Time,Accel_x,Accel_y,Accel_z,Orientation_x,Orientation_y,Orientation_z,Orientation_w,Gyro_x,Gyro_y,Gyro_z
1729156693.104328,-1.2267243896809237,0.0071029903601464795,9.65850238478955,0.0003669436051211394,0.0631246689851278,-2.3209483028622157e-05,0.9980055816373116,0.031541030522612305,0.03689577225716045,0.007884983269199656
1729156693.117757,-1.2266065539745696,0.04065365945046289,9.668201456508495,0.002098075101041588,0.06305544210574174,-0.00013255913585891407,0.9980078114573029,0.029992559911580202,0.03916506581277754,0.008562200514678077
1729156693.120365,-1.2540691716425543,0.07443101036754336,9.620630202518377,0.003859766776193124,0.06476284861200582,-0.000250497242221728,0.9978931871153462,0.024380886868878595,0.03967526182322372,0.011096981169275289
1729156693.128637,-1.2576180532785015,0.08464177394513538,9.602621937428996,0.004397378334590946,0.06506334456522266,-0.00028671844906135287,0.9978714055680223,0.01845974267448544,0.03912999930656737,0.012617849562033615
1729156693.13641,-1.2659723065764756,0.10537286221864373,9.638025070416381,0.00545415231091272,0.06525084576944008,-0.00035665345693380575,0.9978539232509204,0.011075845604691265,0.03497163124341528,0.01353037059768861
1729156693.144635,-1.308334404453698,0.12092397734095185,9.677462882826001,0.006232681301157292,0.06713257681686635,-0.00041937022960082334,0.9977245085404769,0.006645507362814758,0.02992247003675183,0.015354953403467705
1729156693.15245,-1.3303997808558126,0.11660769695144613,9.696097746785444,0.005998266887617136,0.06812027828239085,-0.0004095623950692294,0.9976590002298977,0.0039873044176888545,0.02646728325129173,0.016024013025473127
1729156693.160764,-1.3292737967361437,0.1298196596747739,9.648620724487282,0.006710523761574117,0.06839212453642601,-0.0004600345709182079,0.9976358426502293,0.0023923826506133125,0.025671241364401763,0.015574068675752319
1729156693.168435,-1.337935592738952,0.14157755996502058,9.647907250366197,0.007318517070510083,0.06883504495790928,-0.0005049818611238498,0.9976010830421402,0.0014354295903679876,0.02604499635519185,0.015729792127381865
1729156693.176431,-1.3476816534949334,0.13690071200440299,9.672378863159171,0.0070587296793775435,0.06915703154033533,-0.0004893446658459662,0.9975806934106336,0.006395228553227204,0.02584355928820387,0.015823226198359592
1729156693.194102,-1.3523321891184445,0.14319256953662615,9.675569662866206,0.007380543869591527,0.0693688899868581,-0.0005132305487186761,0.997563642715884,0.011499558238252891,0.024445626863624986,0.01587928664094623
1729156693.221398,-1.3773885859320043,0.12470160861650695,9.642528798452146,0.006448904892675073,0.07087584503368559,-0.00045823357573728337,0.9974641929605474,0.01669060635657846,0.020201346917181402,0.01591292290649821
1729156693.238385,-1.3691986679166244,0.13300006551170104,9.646885716571287,0.0068751190766068605,0.07042835013754707,-0.00048542022758476107,0.9974930298512308,0.020656615350497867,0.01467494851908103,0.014656034481443305
1729156693.254621,-1.3544684903007558,0.12983885400428624,9.662428556407615,0.006701355824866837,0.06957166816713549,-0.0004673675269234865,0.9975543375606891,0.022184840623925443,0.008804969111448617,0.012624831242024268
1729156693.27173,-1.3492216862214692,0.13177284975608736,9.659543831842615,0.00680331318195819,0.06932621030759324,-0.00047279646915428795,0.9975707333104928,0.021399015542133866,0.00528298146686917,0.010980419236910812
1729156693.289586,-1.3448765029438188,0.1365245496974024,9.651827492953226,0.007054322205212843,0.06915999911335598,-0.0004890601892954971,0.9975805189963349,0.019650450308672823,0.003169788880121502,0.010845152156766805
1729156693.306156,-1.3343685274987132,0.12405267903719143,9.654380294600061,0.0064085344652381245,0.06861086094427861,-0.00044074279306252206,0.9976228175980555,0.01604717079982401,0.001901873328072901,0.010338301847218366
1729156693.332396,-1.321359977583212,0.12854056494184612,9.660221538576442,0.006636664604214058,0.06791024360032599,-0.00045175042341113114,0.9976692585314185,0.012608132910128626,0.0011411239968437405,0.010885571784413368
1729156693.357283,-1.3049357216573492,0.1252477923342483,9.642896730518913,0.006478620883223123,0.0671967972379125,-0.00043633803048245086,0.9977186113937845,0.010544710176311397,0.0006846743981062443,0.012065313869654433
1729156693.376374,-1.2986724705920658,0.14841124620133023,9.64590937498127,0.007674373666985237,0.06685518075382325,-0.0005142373929266638,0.997733042629689,0.011009416781869185,-0.0017176456684464118,0.014050229305185164
1729156693.392592,-1.2834223519841457,0.15464787320907938,9.633351751697745,0.008007616673276869,0.06616457881778674,-0.0005310012923259651,0.9977764502245512,0.012565310929589953,-0.0031590377083780055,0.015666868627965635
1729156693.410404,-1.2728357598233,0.16126289140591638,9.637788186028413,0.008346554046041755,0.06559514345702942,-0.0005486943591645809,0.997811260271655,0.014775917602608508,-0.0048752530552610245,0.01706254228309595
1729156693.433254,-1.2662443843607767,0.17097798630839356,9.658406559077985,0.00883066652883496,0.06512090828488479,-0.0005763069197465431,0.9978381404331779,0.015250901483495578,-0.007182052447776931,0.017474256414712105
1729156693.454998,-1.262289559083263,0.17273690042761428,9.671974683737806,0.00890915292089891,0.06482993684881817,-0.0005788205879452491,0.9978563880885551,0.014684511689103757,-0.008566132083286476,0.01729559483221977
1729156693.471535,-1.2900836048347233,0.18576325719992792,9.687777003846199,0.009564351396231255,0.06613025019319814,-0.0006339097657389525,0.9977649579686406,0.011364847382234445,-0.00897088980313017,0.015485637636876241
1729156693.486903,-1.297662065977006,0.20243761740589422,9.707074622717876,0.010401697052374937,0.06638035626006712,-0.0006920323955603441,0.9977399330949827,0.006818908429340667,-0.008362364312112323,0.013548283196746062
1729156693.502345,-1.2866468318713598,0.1882607967618959,9.689683353952992,0.009691124170436079,0.06594316824109944,-0.000640487804511215,0.9977761123869481,0.001962894750294242,-0.007145868894577552,0.008128969918047636
1729156693.524383,-1.2932058005388314,0.18430368752979379,9.6737419288757,0.00950282039556906,0.06638329386739435,-0.0006322518801057233,0.9977487434005642,0.001177736850176545,-0.004287521336746532,0.004877381950828582
1729156693.547719,-1.2772693079600177,0.1836053631526419,9.639756216895732,0.0095005713270193,0.06580403586250133,-0.0006265624316748086,0.9977871393379382,0.000706642110105927,-0.002572512802047919,0.002926429170497149
1729156693.570093,-1.2904523281842135,0.1673846375693195,9.62989927701244,0.00866985672772853,0.06654391861849633,-0.0005782297658318336,0.997745662044969,0.002978125634835746,-0.0032462679270768777,0.0017558575022982893
1729156693.587166,-1.2938131571644345,0.15334263923104485,9.65151843217426,0.007924879913316512,0.06656950836023653,-0.0005287449417610737,0.9977501777819047,0.0043410157496736376,-0.004927591186480348,0.0010535145013789735
1729156693.607437,-1.3013363183709263,0.12360904545268941,9.651321816140493,0.00638839178597976,0.06695642012086199,-0.00042871473016345164,0.9977353569252057,0.005158749818576372,-0.010193285756742746,0.000632108700827384
1729156693.635751,-1.293400366462009,0.11678221682239491,9.65407688851242,0.006034060957314356,0.06653551215409736,-0.00040237835768212654,0.9977657309320724,0.006500770382842076,-0.014204082621824248,-0.001323495025351696
1729156693.674559,-1.2797802491740804,0.11244669947820256,9.668419200734405,0.005801768905166287,0.06574803574464272,-0.0003822885595697913,0.9978193168749288,0.00773167278286353,-0.01661056074087315,-0.002496857261059144
1729156693.691806,-1.2730446997974167,0.12516827969668715,9.66744778142697,0.006458867438242746,0.0654116189850868,-0.0004234006333941488,0.9978373734557494,0.01017297446872453,-0.01762875755084046,-0.0014981143566354862
1729156693.714922,-1.2395546897514969,0.12178790019105916,9.661118845858136,0.0062892762623347935,0.06375358496773954,-0.0004017892753315649,0.9979457720604039,0.012914825664627223,-0.017813985575358814,-0.0008988686139812916
1729156693.733672,-1.235501834846992,0.127660537966198,9.679587559956287,0.006580073403077407,0.0634272802219576,-0.0004182073442726098,0.9979646826718231,0.01711407675094103,-0.01664805220568373,0.0037175794462315417
1729156693.756272,-1.2536602561816323,0.1417186079359688,9.677740099450334,0.00730550482840794,0.06435853676222228,-0.0004711610448425157,0.9978999881512663,0.02176207771003947,-0.01765125242972681,0.00904158865113143
1729156693.78106,-1.2600063258281202,0.15302649191001877,9.661069312355748,0.007901693344242103,0.06478900290518878,-0.0005130368487482847,0.9978675689379011,0.0254022584084226,-0.018678862625614686,0.011810304112609332
1729156693.812307,-1.2779397574109346,0.17010628943312064,9.684346243175167,0.008761877152418896,0.0655410905745338,-0.0005755226670442539,0.997811236521581,0.027586366827452476,-0.01886973868168538,0.007086182467565599
1729156693.863753,-1.27026446357742,0.16431301682393487,9.673412704401194,0.008473287962955038,0.0652259751662403,-0.0005538779541877587,0.997834389452439,0.026768381571560244,-0.02026133449971389,0.002548949234691233
1729156693.886517,-1.2769120350800456,0.14838720462561095,9.635249119222749,0.007682169428874654,0.06582135333309874,-0.0005067647981273032,0.9978017222413003,0.022872069926328654,-0.02407612242076522,-0.005707361504039797
1729156693.909507,-1.2507336370636521,0.13308563332224158,9.631983421728961,0.006893060605926578,0.06451232956997338,-0.0004456263306672456,0.9978930035159639,0.01798014257041751,-0.025513615050471956,-0.014492358500436701
1729156693.927068,-1.2426880435663161,0.14880438780584496,9.636727767881126,0.007703497938890885,0.06406940423504055,-0.000494589451120246,0.9979155890864454,0.013767915972484727,-0.025950420566833964,-0.020614736821198906
1729156693.949618,-1.2464798134444772,0.14099738854288196,9.627363947105628,0.0073063749330663915,0.06432516797883843,-0.00047097183096168687,0.997902133395538,0.009963509829338961,-0.026638193938113203,-0.024288163813656227
1729156693.971233,-1.2348685057424675,0.1154836345417448,9.626055217628611,0.00598547680044407,0.06374461999575,-0.0003823263934952321,0.9979482207587714,0.005978105897603376,-0.02662516789941871,-0.024789459763282493
1729156693.996751,-1.2118605699982148,0.10903392828364063,9.634846786583026,0.005646525768942378,0.06251516811967829,-0.0003536909940644705,0.9980279782673378,0.005289623784410152,-0.029171492644974206,-0.019556266534051844
1729156694.01947,-1.1851271195868196,0.08840469290768437,9.670288668873644,0.0045619650188755126,0.060931748772335245,-0.0002784888710383692,0.9981314707545597,0.006153604700880312,-0.033679117922541725,-0.011733759920431106
1729156694.040033,-1.1793821164786542,0.07363295002195436,9.677906848785122,0.0037968229681603887,0.06059339024745376,-0.00023048755977347072,0.9981552845470253,0.006246303189300377,-0.036809383150544266,-0.005337495706410537
1729156694.059576,-1.1505565770160988,0.07410729076512573,9.672661529925369,0.0038236958164395676,0.05915980059542304,-0.0002266076449423644,0.9982411762659305,0.003747781913580226,-0.037410472102959696,0.0031828534980841514
1729156694.082492,-1.1346977743346593,0.08588406317977856,9.666880716783346,0.004434165784550694,0.05838654105807729,-0.0002593405871708314,0.9982841693323241,0.0022486691481481357,-0.036494055290022864,0.009997823266629092
1729156694.100393,-1.1158451062511863,0.07307825284927338,9.67729859852704,0.0037692078119055295,0.05736568961290135,-0.0002165814106738671,0.9983460942079152,-0.0012049388798833084,-0.03296437477202654,0.01536387531214215
1729156694.124684,-1.1052517658991492,0.09220982524472027,9.735742923764661,0.004727608589320423,0.056487365684629795,-0.00026748024064987005,0.9983920851495959,-0.000722963327929985,-0.026589665846608428,0.01688074629360186
1729156694.156184,-1.129062702605896,0.1113502139944884,9.74974054429786,0.0057002743502788215,0.05760884032565021,-0.00032893785529516104,0.9983229037683913,-0.0021365382426061174,-0.02148777030697147,0.01693948875955362
1729156694.201004,-1.1127034833799436,0.11637010276192741,9.680566982828715,0.005999943493496389,0.05718353636840085,-0.00034366655085529715,0.9983455943408477,-0.0029846831914117967,-0.018000942921727263,0.012717833624504361
1729156694.246846,-1.142152859070935,0.12919826282903143,9.665159644042932,0.006671243858707978,0.058772917071247606,-0.00039277620958314577,0.9982490092412629,-0.0017908099148470778,-0.015483156429118704,0.007630700174702616
1729156694.284899,-1.1758636356085765,0.12252994890835638,9.709784778124979,0.0062973246861461225,0.060214627512468276,-0.0003798879585520187,0.9981655163450954,0.0019053444813259745,-0.015249554717939665,0.002875659858973443
1729156694.30948,-1.1735846059256927,0.14342865782157632,9.689872926201158,0.00738637595364473,0.06021911075329907,-0.000445621936915549,0.9981577538502833,0.004974417241953869,-0.016812153937080368,-0.0016801245763121868
1729156694.343519,-1.1686258856257281,0.1607562864898208,9.662363504255852,0.00830215927155264,0.0601341492351276,-0.0005001657637185205,0.9981556532332049,0.006815860898330606,-0.01732402340710276,-0.004413595237483565
1729156694.375683,-1.1452999393344212,0.18072967033139248,9.63149264112773,0.009363909235513446,0.059130673741497906,-0.0005546892760130251,0.998206177573808,0.0074950370306946165,-0.018482525212040253,-0.002648157142490139
1729156694.41523,-1.131304371559637,0.184094574659773,9.642179383504763,0.00952809036448597,0.05835098987390418,-0.0005569478828742419,0.998250503272499,0.007476852648650991,-0.020029006417926813,-0.0015888942854940834
1729156694.44989,-1.1059081991076571,0.19138076090914505,9.701024445288404,0.009845993529164519,0.056710396553762525,-0.0005592975336681542,0.9983419627163869,0.004486111589190595,-0.02095689514145875,0.0007494236745516764
1729156694.469724,-1.1083875879216256,0.19168232983650266,9.695869474301947,0.009866654204407256,0.056866177661831975,-0.0005620158498220633,0.9983328959375867,0.002691666953514357,-0.019810868129729788,0.00428086475788929
1729156694.492193,-1.0991013137393035,0.1897084896987766,9.651835643321402,0.009809745817561367,0.05664927304542744,-0.000556635761071673,0.9983457912502306,0.0016150001721086142,-0.01912325192269241,0.007251109530815921
1729156694.511881,-1.0928112887318633,0.17846853864348466,9.67377821826823,0.009208000889179634,0.0562032095039247,-0.0005183606298186335,0.9983767541681549,0.0009690001032651685,-0.014879471645311698,0.009458946456033932
1729156694.536984,-1.1084303071746648,0.1757947108325752,9.715434762992189,0.009030905539281134,0.0567571617976619,-0.0005134172272092686,0.9983470357208286,0.0005814000619591011,-0.010630443233035145,0.010357958549702707
1729156694.563732,-1.2370329609161268,0.34944597566946695,9.956864519904688,0.017505097990703,0.06171651856122544,-0.0010825842477336573,0.9979396128485754,-0.05541655801435068,-0.013189306923213592,-0.0040017863452671346
1729156694.589947,-1.1353476891473324,0.3887538695813676,9.80986919167914,0.019768643985587406,0.05752345440083818,-0.001139270891603489,0.998147762092668,-0.26993360898149993,-0.03430636796457411,-0.05986923010453456
1729156694.613539,-0.9958067116329307,0.64864630978593,9.903870741081702,0.03265207785006128,0.04995126420955969,-0.0016339267887001375,0.9982164310905675,-0.4837818518541958,-0.045699534405004336,-0.1133971292488105
1729156694.635833,-1.1119979637473365,1.044241360090308,10.074235669746678,0.05153968747450706,0.0545769823391039,-0.0028208508238598113,0.997174536585455,-0.7427776464466571,-0.005709527508438988,-0.14466248861245198
1729156694.659618,-1.2580877479749644,1.1956465506733254,9.887713906730818,0.06000934958146686,0.06267099189318016,-0.003775110290949674,0.996221347532879,-0.9705424336506792,0.0638333132059376,-0.1472454818950797
1729156694.67839,-1.354600164654119,1.3200084882653236,10.382491549604895,0.0630515053545975,0.06418323462882955,-0.004063363083625611,0.9959359965105943,-1.233205564165854,0.19239979017281802,-0.11814559343939003
1729156694.698833,-0.963115963050284,1.4415520033595848,10.243374013014892,0.06977081171476869,0.04628911108563583,-0.003241026767013095,0.9964832400863847,-1.4308183082523898,0.22015962922335058,-0.10196273055036233
1729156694.72217,-0.8812149281719672,1.500591742787235,10.03277138290659,0.07409364167427045,0.04319210242337025,-0.0032121118197755935,0.9963103215812588,-1.5425749137209186,0.20531446810547976,-0.08118507121893288
1729156694.746096,-1.0465947759949772,1.2168685051449972,10.131943601228329,0.0596481373412874,0.05098766235289869,-0.0030507405151801517,0.9969117568680844,-1.5666341807943707,0.20364410247961182,0.005351595074318295
1729156694.771909,-1.197537440548158,0.8199036653428577,10.310917595063168,0.03959660118732007,0.0575547878890105,-0.002284561615469853,0.9975541771471305,-1.5457374659370933,0.20775016384163544,0.0857948289682251
1729156694.792505,-1.5916878097878793,0.6899426765006365,10.05941116250665,0.03412398369288727,0.07815719581244762,-0.0026767964257215985,0.996353271305192,-1.4625348868200296,0.19488895844621648,0.1327836991201831
1729156694.815687,-1.4300222952477277,0.7321550065351474,9.089450915033286,0.04005100929378951,0.07763532817376378,-0.0031213212351226304,0.9961721386525765,-1.350036900314873,0.15183996010761647,0.12649612623293333
1729156694.8365,-1.4319035150880897,0.47616370948749476,8.960936560982862,0.026454383360732348,0.07900706720825129,-0.002097380508178151,0.9965207724514117,-1.2395434122041136,0.11111140895328536,0.10654736016502626
1729156694.862406,-1.3964009615919164,-0.013098141495003155,9.15126027399206,-0.0007135131118875727,0.07563912850110939,5.412457681601819e-05,0.9971350009949315,-1.076615675385777,0.02963181002477447,0.07755049806580076
1729156694.882866,-1.3760571101582748,-0.08255797669387689,8.988205949551487,-0.004578649934202372,0.07588118279099891,0.00034844166047104136,0.9971062935572257,-0.9350129569641856,-0.049479943696136314,0.06483497148234782
1729156694.909859,-1.50175681492309,-0.282011767217498,9.009604597562923,-0.015589441097278875,0.08243928047931066,0.0012897307790957337,0.9964733167299792,-0.7921574775523945,-0.13994169213634797,0.0742332579907573
1729156694.945337,-1.3130961946667448,-0.5039164524203426,8.960912803703769,-0.02800714176056217,0.07254459776249987,0.0020379422613034446,0.996969772930564,-0.6698348446195851,-0.27212002244802674,0.0973255224157463
1729156694.972746,-0.9736477656281719,-0.4553393575361899,8.504811571382417,-0.026695752680730333,0.056861013661250015,0.0015209530036519577,0.9980239719646944,-0.5726026214180258,-0.3876106758593067,0.13161400402091722
1729156694.995575,-1.0371716134784654,-0.5442272424514014,8.8301800873607,-0.030718040522061094,0.05829048815725013,0.0017944719511005435,0.9978253358415445,-0.4342335559422282,-0.5262925479243858,0.17900556685612776
1729156695.015407,-0.844006041817548,-0.5925321499142002,8.934900374193765,-0.033065757371710504,0.046945491721776596,0.0015548555912438394,0.9983488162563855,-0.3209881222929454,-0.6490908468794023,0.20020377351239954
1729156695.046689,-0.6069600948170913,-0.29255178628641076,8.17915499868618,-0.017862679074847367,0.03699825410294867,0.0006614465630349123,0.999155451557988,-0.22835083853857788,-0.7734269435663939,0.18057025283504818
1729156695.072164,-0.2274671420953329,-0.4640323718206746,8.135834517766394,-0.028480210802124505,0.013946917611006323,0.0003974110612781328,0.9994969750560863,-0.15914638631917236,-0.851434122070285,0.13686338581898502
1729156695.100943,-0.0004896309603247296,-0.1517661552701391,7.951824919644212,-0.009541547412060519,3.078032569508201e-05,2.9370530705283386e-07,0.9999544779266047,-0.12826596652407984,-0.8194857678021439,0.09701718364256212
1729156695.12212,-0.3563115654414292,-0.3747725898905991,8.214435779423246,-0.022788488653022663,0.021644735650536547,0.00049349467254956,0.9995058512417712,-0.14975258042445533,-0.5585248003308253,0.01776975434664426
1729156695.145651,-0.4026894502511857,-0.16045952927615628,8.618365646120743,-0.009305315485679335,0.023338137349912493,0.00021723731318796233,0.9996842977944078,-0.1749895605470795,-0.3483112721038181,-0.049786136119621925
1729156695.172497,-0.5430436591643832,-1.1892287754270219,9.08242663986971,-0.06502269988758642,0.029540591359546918,0.0019257300523263894,0.9974445816812193,-0.1909831287435781,-0.25155576940849406,-0.06179843628142553
1729156695.192275,0.16570340533144814,-1.7641129537327753,12.088098347203076,-0.07239237773733903,-0.006763885267542912,-0.0004909532052690753,0.9973531733877283,-0.0775548418989501,-0.31652689555382674,-0.07283702693166597
1729156695.212063,0.7583063400738688,-2.4739197937240403,14.14025892409333,-0.08646183622063475,-0.026286079704209937,-0.002282086239116048,0.9959057108850904,0.0820254934221635,-0.40020702769453964,-0.10159606451783587
1729156695.23478,0.4631240896888525,-3.2797637011855962,13.400169623254826,-0.11971278729369275,-0.016657305602371154,-0.0020088236166109492,0.9926667856617958,0.3076091633607513,-0.35165501271977606,-0.17929947579714628
1729156695.255091,-0.040554366987469746,-3.820730885506279,12.841433783230238,-0.14409177704955023,0.0014976745236766314,0.00021807863298143904,0.9895631708988738,0.5166037459568354,-0.22589215978303673,-0.26593638834216354
1729156695.279202,-0.4945538262471693,-3.6375010239795484,11.153468341227205,-0.15693943318727954,0.02080262286643694,0.003306467628444878,0.9873835791953167,0.766301993461399,-0.014213628353143007,-0.279180740276129
1729156695.297872,-0.7636016194787704,-3.357335369026401,9.293859948828121,-0.17232738912787104,0.03797346409184923,0.006648346261596213,0.9842850636239596,0.9816772114292901,0.14003765443836325,-0.175596555333456
1729156695.318914,-0.7574361792067934,-3.339591840312325,8.721818110410153,-0.18166766988002925,0.039777085854241154,0.007354714778585444,0.9825276328591632,1.1309097750987402,0.22322324276110228,-0.08237066988112389
1729156695.33753,-0.4108872373092323,-2.5891374100955984,8.484177300572265,-0.1475157912199716,0.022888524129776867,0.003414701203624262,0.9887889292561868,1.2349227753901193,0.25227578274310614,0.007194376245775874
1729156695.372846,-0.3262592576687425,-2.237027020031968,8.548930678439062,-0.1275958080672919,0.018300030113844228,0.0023546576561424824,0.991654614393948,1.2747690023074592,0.25565953470406144,0.08136652687209325
1729156695.401461,-0.31091665445476113,-2.0231271641676183,8.33878573250289,-0.11870778020631867,0.01798021655703634,0.002149948413113023,0.9927640970809084,1.2309920186854,0.22874286170121644,0.1518369109970676
1729156695.43,-0.31751282348340354,-2.000610964027915,8.515086434618922,-0.1151062542750439,0.0180203354592537,0.0020884810444265467,0.993187523070861,1.1804614950088288,0.20322767654734475,0.20050449239398266
1729156695.447164,-0.4854733386212921,-2.145357973680421,8.674496973076039,-0.12088331088481873,0.026935214635442146,0.0032812977020016546,0.9922957988661736,1.1135338355171513,0.178127694041395,0.2501381641823092
1729156695.47158,-0.930535846434494,-2.173548238798096,8.734948531746014,-0.12147039170462916,0.05110091675893317,0.006261984308257653,0.9912590114586821,1.050815666564657,0.17498702625876206,0.27097887596460246
1729156695.488799,-1.3235083584466338,-2.156704154460498,8.969938204740966,-0.11739467343912163,0.0706893387340518,0.008377883464767984,0.9905308269337786,1.0063737242097681,0.18374487712573306,0.26943553100573137
1729156695.511922,-1.5111684122847768,-2.303417912598174,9.791603540520361,-0.11493153462039699,0.07399305771052408,0.008585035610519046,0.9905766335443279,0.9677892370758978,0.20304735967416274,0.22083223714666123
1729156695.530946,-1.6323835705642256,-2.34380155444367,10.492180025923544,-0.10934372115601577,0.07481863963525334,0.008253997719991912,0.9911498339446584,0.9391045739965693,0.21420315914175847,0.14867556462355394
1729156695.558041,-1.7527572785690042,-2.5751301831544837,10.668317347829516,-0.11776315319811066,0.07854900067855666,0.009344688871363409,0.9898861404379474,0.9167854954114277,0.21280852765453734,0.002364566235877913
1729156695.577462,-1.5802940937039023,-2.5841616304005024,10.532424793463335,-0.11968329690750794,0.07176481507800708,0.008674256959260824,0.9901769927767325,0.9348951128085332,0.1911129357505651,-0.12117999795953836
1729156695.593334,-1.434438813400076,-2.5821584736016296,10.592147158792844,-0.11900808937694071,0.06489692796721067,0.007795449408901268,0.9907394684637238,0.9691738366272081,0.15893952784239035,-0.17146809303491434
1729156695.613884,-1.5877823322294986,-2.373618715752775,10.55136612486555,-0.11010670781027831,0.07237579418501536,0.008039417235479181,0.9912485183251394,1.012728334237363,0.08599853535326951,-0.20717492087914635
1729156695.633839,-1.5121943273162148,-2.1627824416098678,10.476619269645893,-0.10135327288820992,0.06979363159036575,0.007128174616181286,0.9923736958378722,1.0256646408981327,0.006901664758448382,-0.34098119381166186
1729156695.657455,-1.569313355422932,-1.9735525936280298,10.115018276875427,-0.09591050067056793,0.07513545204905195,0.0072605615865792665,0.9925236138006758,1.0257640037882783,-0.048218878704760854,-0.4600027531642161
1729156695.677422,-1.4438915215545405,-1.6679997116943959,9.760391085754161,-0.08429837484875564,0.0720775400701067,0.00611385528295768,0.9938114675273575,1.0526420953944733,-0.08980500601192704,-0.5807957359053443
1729156695.696479,-1.192664599212021,-1.551466208852575,9.372598629723981,-0.08176419188025141,0.06219387290287761,0.005112346950664472,0.9946961360175107,1.0955874242302985,-0.12837876436301174,-0.6660422273938822
1729156695.715862,-1.069701185064322,-1.3754829736025607,9.06905478696525,-0.0750574959950322,0.05784953892668163,0.004361711896295981,0.995490220248426,1.137105153805889,-0.1936663354584037,-0.7082506309963021
1729156695.741642,-1.0035845818882025,-1.4322199050111457,8.889801523302197,-0.07965510641691426,0.05529291523227059,0.004425259394472727,0.9952779383800882,1.133920247494749,-0.26050873211067094,-0.716122380637811
1729156695.764864,-0.9045384188106558,-1.196674956922703,8.54929374357116,-0.06938051064593793,0.05205035038903543,0.0036249646497717282,0.9962248568461718,1.0243097181581708,-0.34190610606384836,-0.6863645354442917
1729156695.781529,-0.8613912922531903,-1.1997183481770592,8.524793620410273,-0.06976005187881822,0.04972133895563058,0.003481382252145914,0.9963178225806956,0.8389244932853932,-0.42394835522979324,-0.6476510153165405
1729156695.79796,-0.6959210595316018,-1.0638777874706886,8.695644175175852,-0.06078323090367623,0.03955233559705572,0.0024104724473589362,0.9973641266921068,0.6889555627686818,-0.5033976990931645,-0.6159091020106492
1729156695.819239,-0.49584303000607033,-0.6627475294160068,8.514441611306683,-0.03881396434543674,0.028971472110846233,0.00112581968853309,0.9988257418116288,0.5593850287426858,-0.6387594580723657,-0.5662142696018481
1729156695.841669,-0.1272780799665328,-0.5415400374249947,8.411466156969556,-0.03213973073888467,0.0075455717287422975,0.00024264491592594254,0.9994548730076627,0.4616352754383728,-0.7646739699133998,-0.517667007452238
1729156695.863751,0.3189158461118772,-0.49587002099015304,8.714078377043062,-0.028412830275730903,-0.01825281706081401,-0.0005189102442159465,0.9994294754895041,0.36211917755543,-0.8491621683087229,-0.41021167885345816
1729156695.88246,0.6393046382823607,-0.4912129269007325,8.672745534526618,-0.02826550106926695,-0.03670895718699421,-0.001038713019957396,0.9989256403690961,0.27984794556817666,-0.7938582620418708,-0.2303764750379797
1729156695.897041,0.5815832602643383,-0.15083623636504886,8.637411341712063,-0.008725437962819622,-0.0336030674669289,-0.0002933783508608143,0.9993971255303435,0.2330393467445968,-0.6819232569112836,-0.0841632472171098
1729156695.915456,0.11767007578750915,-0.21188776598895118,8.847490706394424,-0.011971605779993753,-0.006647089087476845,-7.958379184696206e-05,0.9999062408686785,0.22283317003185427,-0.47471022361192305,0.029531783224596063
1729156695.937885,0.06389828082406798,-0.8068465109117301,8.597169824227281,-0.04677067496605437,-0.0036958555460730636,-0.0001730482189899708,0.9988988010150559,0.24139948756900653,-0.3065363273017174,0.09689742136669552
1729156695.957693,-0.21520698731610607,-0.12473823735758495,9.227726456303946,-0.006757941778318229,0.011657180563076047,7.87857002653384e-05,0.9999092129573836,0.31639278731060266,-0.17711075539763796,0.16158113775529098
1729156695.978156,0.4892980964286957,0.35443741525146466,11.317675202395648,0.015649028348412294,-0.021588197626278918,0.00033795449039291774,0.9996444084882192,0.2988123281206417,-0.20672930774362225,0.18932342599043545
1729156695.992781,0.8988330375447174,1.024536232109863,11.870143363624887,0.043004307144423104,-0.037605757043683234,0.0016198570682337608,0.9983655706539956,0.20951139123618925,-0.3015503402758405,0.22427347157438948
1729156696.009412,0.8586863239916742,1.8424683505940427,12.329235208848761,0.07405705493051357,-0.03428512712426932,0.0025475612828160807,0.9966612225849875,0.06781298638287725,-0.31800240395627843,0.4414866172587585
1729156696.028148,0.8848765307231296,2.2132781185107224,11.90558343121746,0.09170933341358828,-0.03630949478298697,0.0033462560061383964,0.9951179936691834,-0.04019331984805966,-0.25124943110137554,0.6761085697275775
1729156696.048975,0.6638041105725496,2.8020768332646364,11.423224946425789,0.11993410284573935,-0.027981224716729102,0.0033816656469736303,0.9923816938937314,-0.2246160108574527,-0.15883776982860393,0.8892490516574143
1729156696.071142,0.9151906047712641,2.8237591321853444,10.386100677083988,0.1322177380624879,-0.04202747032556689,0.0056111297002003815,0.9903134234691361,-0.4710647550694766,-0.11190457429418159,1.0660876978834501
1729156696.088331,0.8110400244838523,2.9615064180319095,9.650819797119532,0.14819852918411885,-0.03963036646566192,0.0059436213597439105,0.9881453857437139,-0.6606516276199701,-0.08842724764961053,1.191772628446325
1729156696.103136,0.8802307676199989,2.7130366999402393,9.5872168709475,0.13731181534631917,-0.04362525767317117,0.006053533596910565,0.9895482085225756,-0.828466388955944,-0.07391516160140586,1.2314256216212394
1729156696.121514,0.8113725169684837,2.3487161398371907,9.592869005625142,0.11966518236719924,-0.04067866723538143,0.00490723281036633,0.9919684517297528,-0.936817666863845,-0.05456565843593227,1.2177566921175291
1729156696.142501,0.8823456244389027,1.8873517554355175,10.18044549150985,0.09144007647006716,-0.042315428236663885,0.0038891469979365338,0.994903508629819,-1.0086394745919782,-0.011880582049919809,1.129951292921903
1729156696.166477,0.9268448502492791,1.6931330820699042,10.157580562728176,0.08240379161146527,-0.04471351139037044,0.003700889051139618,0.9955885799101095,-1.0406646176308452,0.04225169789964379,0.9934071112965073
1729156696.184004,0.9420522177667551,1.7133107928454583,9.865415952383,0.08577251718440614,-0.046712635206818266,0.004025940815114573,0.9952109308123774,-1.0236960482298927,0.10069815961856587,0.8931759296784024
1729156696.201394,0.584384943941303,1.66963252062915,9.159801518451284,0.08998134560849223,-0.031208863323413837,0.0028210502988177183,0.9954503533415201,-0.9241199936822947,0.22260680918817355,0.8424024020597042
1729156696.222067,0.2804808577222037,1.6130191962153806,8.8796061173696,0.08971536233167533,-0.015470958100444377,0.0013937719168367192,0.995846303712071,-0.8311705361596973,0.33236134421567287,0.7761803203256745
1729156696.242432,0.011707726059103458,1.988699105619853,9.667014759288946,0.10127084734277127,-0.0005900797871549573,6.006670004284548e-05,0.9948587154346659,-0.749859457958417,0.44206014156276174,0.5921381404496281
1729156696.265127,-0.45002846128836604,2.0706943718191773,11.427061597272585,0.08949478097654161,0.019287159619585176,-0.0017333820318427928,0.9957990183960321,-0.7402362966921557,0.5389547944577433,0.3510259836551565
1729156696.282335,-0.7220423502105197,2.2580369673297875,12.096904972279566,0.09209729815340172,0.029174950659385152,-0.0026995712149717886,0.9953188545597441,-0.7519156924523422,0.6183760892678338,0.1471877710352512
1729156696.296811,-0.8610692467962336,2.337163121559982,11.240658024871646,0.10224588472630455,0.03722435090847918,-0.003828798661174124,0.9940550623867824,-0.757220569662606,0.730308065434655,-0.04748246698523734
1729156696.316354,-1.2437605922671933,2.3930185199086456,10.844943998272596,0.10820009328484416,0.055406381617110846,-0.006039878770838974,0.9925655608339853,-0.7450786537761311,0.8289683156829379,-0.17322410108823313
1729156696.337689,-1.4700235172255502,2.1258200304022186,10.901044705848323,0.09593149024384938,0.06544471092911126,-0.006321103231793895,0.9932140668783,-0.7084208900033662,0.8885901558933698,-0.266973754192898
1729156696.362724,-1.3122521486654084,2.0406788688272686,10.740295955589072,0.09357016229648354,0.05943229318336955,-0.0055956622816336395,0.9938214707976506,-0.6757839802031563,0.83241420674383,-0.351319090112191
1729156696.380294,-1.2829510328515887,1.9278237690502673,10.483914034535085,0.09063157875824474,0.059606619623431965,-0.005434390704105755,0.9940842193831118,-0.6544990740771823,0.7395377187108838,-0.40660888233984915
1729156696.3951,-1.3087054134121252,1.385579940141098,10.144534253240582,0.06767735086619865,0.06337591255769431,-0.004307710088449302,0.9956830386829971,-0.6404510602172118,0.5990995036601718,-0.41509273411164616
1729156696.430044,-1.5013289646000094,1.2730781703834868,10.170749743838881,0.062050114684553855,0.07251284652704863,-0.004520109242816507,0.9954251548803714,-0.6235084506719888,0.5029172529088077,-0.41124355388402173
1729156696.455175,-2.0119463692385215,1.3698193424156389,10.140989206654892,0.06675326014050993,0.09669723584010763,-0.006500020757030578,0.9930515578617528,-0.5643885278767213,0.42690322981512197,-0.44213787054148557
1729156696.474933,-2.0635737553810034,1.1558827370411802,9.845166071600357,0.058082416954031095,0.10226601252428871,-0.00598147658376678,0.9930419515111323,-0.4429271817842305,0.33021200858346667,-0.4670598114578943
1729156696.496441,-1.9370117178282111,1.1343021678594738,9.507739519669197,0.059028650824969005,0.09945979124809984,-0.0059107472797009205,0.9932715798678948,-0.34791449093271043,0.23005395975973236,-0.4577486425044038
1729156696.520962,-1.444722826595364,1.1038761542313094,8.577685703989019,0.06372258795309035,0.08249740836421408,-0.005285819944582844,0.9945379175804522,-0.28239307519255774,0.043103492149806355,-0.473872134266873
1729156696.556869,-1.1651512228126872,1.0758043192477698,7.968656919219582,0.06686570653121318,0.07172653849825726,-0.004819328536396368,0.9951688575501134,-0.23116090402752923,-0.1295147771437577,-0.5184528143642412
1729156696.573338,-1.2353919055626124,0.8140343884236619,7.524230993572765,0.05367519522250917,0.08069890736963359,-0.004352059432035693,0.9952827333707105,-0.1463589635228341,-0.3156696106435303,-0.5958583397366438
1729156696.590246,-1.1786557866481142,0.7943996052221659,7.557329486036236,0.052180840045837486,0.07675934499825646,-0.004022765007259914,0.9956751379085679,-0.03971240116849088,-0.5299538155557435,-0.6972156728886876
1729156696.610651,-0.8707174453775404,0.6490222826645495,7.258280920381507,0.0444937657213285,0.059366614667202146,-0.0026487531081612874,0.9972406399570083,0.03576916790358991,-0.7283375085828445,-0.8001733888646549
1729156696.629569,-0.5458936434960555,0.5285164860538077,7.188266796857811,0.03666091992751922,0.03776234146785534,-0.0013863249144932454,0.9986130685206179,0.09212605094485118,-0.9499590292114548,-0.938572229513401
1729156696.648747,-0.3550695051894302,0.36595160549947214,7.5149653784076555,0.024319538249534974,0.023569544845500313,-0.0005735295448354439,0.999426189210072,0.12849432113838016,-1.110176105522191,-1.027571194763117
1729156696.664903,0.16859404151524815,0.4992137172059333,7.1833024814391235,0.03468299382858999,-0.011697449223354299,0.000405974634153644,0.9993298228339578,0.12945647024285797,-1.2620717493601588,-1.057557620532535
1729156696.697343,0.8886093509345395,0.54852520297981,8.016923919283396,0.03409672238712118,-0.05500790239740195,0.001879532804293246,0.9979018045643224,0.1181144379846078,-1.210602965073159,-1.1117331312184584
1729156696.733359,0.5355598122208799,0.7813798153914016,8.531701412116911,0.04562633568023324,-0.031177428825068874,0.001424690300378666,0.9984709187962364,0.09513299629410048,-0.991566687334741,-1.1497724084290188
1729156696.76072,0.8451872105747156,0.7429639793227316,8.667467127787726,0.0426896858166978,-0.048363008694222255,0.0020689153529799545,0.9979149912212846,0.04601185617844746,-0.6630504222347696,-1.1330067990393862
1729156696.777323,0.9277735580342825,1.3668277662557484,8.712055851623807,0.07762079171241086,-0.0522278021651133,0.004071856353775352,0.995605689698876,0.019519002539289877,-0.4753058445269515,-1.088892228488644
1729156696.794732,1.046038954156507,0.8928803902221989,9.124514973376629,0.04867113586292368,-0.056704096622830075,0.002767601705893142,0.9972001335443147,-0.03468881517578753,-0.3481856358125516,-0.9802653042960267
1729156696.811925,1.095689797054451,1.0002033562036319,9.593693520158789,0.051830816238948384,-0.056448070474306215,0.002934391500642739,0.997054948924207,-0.08551817844770132,-0.26382539941613303,-0.8784798044947215
1729156696.836762,1.6941031970803266,-0.20432974409032084,11.357211475864807,-0.008968873241821104,-0.07395443201614552,-0.000665136294814775,0.9972210682148923,-0.11729286659523569,-0.22300012899190863,-0.810597463630546
1729156696.863891,2.289458940953274,0.5801003408016668,12.121314285421224,0.023800336570405464,-0.0930739050824144,0.002225489361019459,0.9953722114711406,-0.10741075530433816,-0.212127048704159,-0.8047746441519272
1729156696.883183,2.0950483247770424,-0.11138709410298427,13.185269571008595,-0.004210175295950267,-0.07870295555450814,-0.00033238724081686863,0.9968891657198831,-0.07594008484207775,-0.13323589008296385,-0.7821248996989646
1729156696.904848,1.9223776362236475,-0.745827847282103,13.262441873220391,-0.028009346169080577,-0.07177110501235781,-0.002016258609140715,0.9970257367358712,-0.025556618016531158,0.09629415139550278,-0.6846741109191667
1729156696.929338,1.4934032174763758,-1.1231404168653554,12.152106432525985,-0.045975743047750664,-0.06078061802574948,-0.002802595779097811,0.9970878060534659,0.05447919926985449,0.3221300190052233,-0.6091760351928068
1729156696.959062,1.2879727422534037,-0.8575195174531977,10.82869681239645,-0.039430502591584586,-0.05892898540822803,-0.0023294688001875958,0.9974804177121679,0.12506226289917355,0.5002005457172588,-0.5753708214164657
1729156696.978599,1.1690240201079016,-0.7589596999738717,10.18620400540662,-0.037114253872211025,-0.056906005523526204,-0.002116919939482991,0.9976872041601191,0.22317749912829113,0.6402466865385186,-0.5444454416141101
1729156696.99691,1.0318142411663034,-0.8925570431288542,9.7865825314178,-0.04539489909308763,-0.05222833591446449,-0.0023766037735583885,0.9976000480244764,0.312696325291028,0.7264028213385846,-0.4888551783855001
1729156697.0176,0.9468547519751725,-1.0162899192366874,9.46899809306943,-0.05336573729175327,-0.0494582525698658,-0.002646399748452087,0.9973459660039811,0.3898205743690818,0.7712854612352316,-0.3763226690163962
1729156697.049785,0.7067371273081503,-1.3364141553994342,9.248041068976423,-0.07164247477228006,-0.03763934436656242,-0.0027054597879673896,0.9967162665731377,0.45567686664316753,0.7752277818542701,-0.24622672436001525
1729156697.073207,0.20832470680481202,-1.5533883943627074,9.111875552030384,-0.0843222631416418,-0.011226634286685673,-0.0009500994759235013,0.9963748370629653,0.5262660164943473,0.7869583555778579,-0.15582414578378775
1729156697.090793,-0.6258268165421128,-2.000565237545359,8.973433662517058,-0.10939238242392398,0.0337723963266244,0.003718921624840995,0.9934177880106253,0.6643997702340123,0.8008077407954031,-0.1748012892095207
1729156697.115627,-0.7700605235190177,-2.0347184210916684,8.949505309814922,-0.11144333418316894,0.04158057302369002,0.004667062612142188,0.9928895496175466,0.8085793913283439,0.7920897694674489,-0.2572778155291197
1729156697.14526,-1.0280255865723482,-2.480420546063204,9.251661757666296,-0.1304042251474382,0.05297605900755182,0.006977941845194617,0.990019991496803,1.0261997029152483,0.7617432730444167,-0.4161660771166213
1729156697.168925,-1.3731436563867683,-2.8354696018078442,9.358735374912278,-0.14619129403508063,0.0689448005988611,0.010213973973308647,0.986798051657179,1.2691540660933676,0.7082031000892486,-0.5153302446222805
1729156697.186512,-1.5981710107265925,-2.953688649512441,10.357915293550882,-0.13805769931607986,0.0728773523568846,0.010186710712224373,0.9876867894721822,1.4370625671962647,0.6586257037962044,-0.5658892538349733
1729156697.205882,-1.90102095970744,-3.0662791870219173,11.10873678965592,-0.1337856081340672,0.08091371163313373,0.010960554362525892,0.9876407487411675,1.5229085157068318,0.62930495608184,-0.6119751916366842
1729156697.232148,-2.0094683582951673,-2.902793049322525,10.85389787823691,-0.1297608701290437,0.08762191763419702,0.011512663710368272,0.9875990961456736,1.5684564239527037,0.5989418056093604,-0.6498433157927994
1729156697.255993,-2.1466022674185066,-2.3945746223181246,10.191029577772225,-0.11452272789587199,0.10028092130377274,0.011620663036851298,0.9882779172926706,1.5745006658271252,0.5611421724986192,-0.7210928572931402
1729156697.278826,-1.8750196075214165,-1.4496734623557181,9.291244509358647,-0.07692228236294095,0.09795303615007428,0.007594121382213978,0.9921847078571058,1.5074626607490806,0.5069613280839842,-0.8540888752232954
1729156697.300498,-1.6608340960558186,-1.1913453603724153,8.982413928515578,-0.06560136332694462,0.0903198625847166,0.005962479106387282,0.9937319721108051,1.4038120385444115,0.4369920960265443,-0.9628334101608067
1729156697.326027,-1.636949401725288,-0.9163989960086053,9.874266906914036,-0.04609339737023978,0.08161875901399573,0.003778750085383947,0.9955900250322302,1.2369019101019503,0.32775152708107946,-1.0404251429057123
1729156697.348904,-1.6958811559277507,-0.6329181952125851,10.42733520640428,-0.03020510946511857,0.0803439163570985,0.0024357934754392994,0.996306465590156,1.1252622013769984,0.24347682300947115,-1.0665470596024782
1729156697.371081,-1.8782441903828222,-0.46187203407091043,9.968131957582802,-0.023044637068589335,0.09286414400491745,0.0021498890200670312,0.9954097515283906,1.064238037002496,0.19333769062796818,-0.9992106476354417
1729156697.38815,-2.0626005230187556,-0.05111058372379623,9.941367560780149,-0.002556590138877702,0.10210713002413083,0.00026241850729695503,0.9947700885036823,0.9871829825389015,0.16453128138345252,-0.9162397943090165
1729156697.408259,-1.895965770354222,-0.06753705580068399,10.228654273040355,-0.003286895638387159,0.09150843476291631,0.00030204762828637426,0.9957988308145043,0.8890157623623769,0.14511898552943298,-0.8668829723746234
1729156697.424624,-1.671965272759408,0.27527296549419894,10.299272729839837,0.013315177686333743,0.08034500619691776,-0.0010733742146092253,0.9966775977667974,0.6849551192979093,0.10409899377614105,-0.7725639898717587
1729156697.448657,-1.5761116209310355,0.22693418212855063,9.881478244837496,0.01144321554615192,0.07897658113043318,-0.0009066378727283358,0.9968103783863208,0.48334038202729096,0.06714198694176697,-0.6410511495527224
1729156697.472051,-1.5142898668457307,-0.17317034521505717,9.705021805300936,-0.008892847137371894,0.07729936582010326,0.0006895019944331918,0.9969680285247872,0.23849573177946876,0.029217250567047354,-0.460403520671875
1729156697.492427,-1.6321016618066573,-0.38689684335950303,10.121562743825091,-0.01903866032111142,0.07978007033489094,0.0015240424546751668,0.9966294933851464,0.02816112247293269,-0.057391100477089146,-0.2962495452918405
1729156697.516955,-1.6525105039199317,-0.3439473235449987,10.23118708965443,-0.016745701508843126,0.07992591993921878,0.0013429019214256284,0.9966592323443735,-0.12954070765917927,-0.13319475454544483,-0.17051299613024976
1729156697.544172,-1.6614039268636778,-0.7534434734727024,10.218671302864923,-0.03666753092291304,0.0802321515870289,0.00295344168141953,0.996097169562271,-0.3152594788913212,-0.20677249104295234,-0.04952223005685793
1729156697.568579,-1.5501423597803163,-1.1978599012222932,9.652115743144735,-0.06149642751326917,0.07879210298065373,0.004869876994440923,0.9949805416233276,-0.47564509869874005,-0.26454121490824184,0.031160340754955763
1729156697.586115,-1.2238539595693616,-1.5720094124130635,9.127110618982543,-0.08498633836151322,0.06540576567112227,0.005590926875600046,0.9942173553331024,-0.648500681646357,-0.29920244922741557,0.039980707526075035
1729156697.606818,-1.2749231106048984,-1.3236442912466662,9.207629658743041,-0.0711558164751744,0.06787719633226602,0.004853439283677427,0.9951411860268582,-0.7568966220910095,-0.3268102308023123,0.012494792856170167
1729156697.63267,-0.720900555816064,-1.1956941931562026,8.808943632648168,-0.06734740300115202,0.0403553005396885,0.0027262504481898988,0.9969093963775473,-0.767871548552123,-0.3216647066126867,-0.10147978002057799
1729156697.657302,-0.19719031029627898,-1.075349664087081,9.91886465248929,-0.05396742680112103,0.00986641036369273,0.0005332679825804506,0.9984938089023184,-0.6744193399852136,-0.22364850839287828,-0.15453968153399372
1729156697.679586,0.15103350058981072,-1.1551747520655298,9.902469791249432,-0.058030810676951705,-0.00756127004298933,-0.00043953997517406484,0.9982860607121202,-0.5706707279613205,-0.13972307583473337,-0.12294780328420048
1729156697.694896,0.09277488184802704,-0.6966961537295522,10.474663298089505,-0.03320090425526764,-0.004416208842964637,-0.000146704438371876,0.9994389303673815,-0.4650011744778574,-0.015297745605452925,0.036910734009607926
1729156697.718421,-0.09086021249274627,-0.3033354327162469,10.907283124117376,-0.013901022056477018,0.00416299632629277,5.7875997614676724e-05,0.9998947083057003,-0.41479583429310246,0.07595936492913456,0.16900951161016564
1729156697.744967,0.1394142069770085,-0.1221462181258419,10.004948954060268,-0.006103794729164365,-0.00696610619389852,-4.2521506156699156e-05,0.9999571067032431,-0.43745819780354145,0.10772636793093736,0.2674248309362917
1729156697.765571,-0.6836931078938729,0.364611752767073,10.229214142943974,0.01780329470867613,0.03333643700716328,-0.0005939228116097634,0.9992854306557648,-0.45190699603272894,0.20937044165565316,0.3477585256050689
1729156697.787224,-1.0487494474999957,0.5594619479004782,10.480849717455838,0.026626879341192393,0.04975702069339961,-0.001326990108755466,0.998405472383599,-0.4388660818356778,0.3180341727742302,0.3704173387186134
1729156697.804256,-1.1861409746523413,1.2624726313867713,10.653857717436393,0.0588474411908144,0.054933360502164144,-0.003243231092776199,0.9967491088640671,-0.36505957379083226,0.4109022654404084,0.3014287546631059
1729156697.826094,-1.1471898667738265,1.3960171615957344,10.60850375399699,0.06527755298839916,0.05326363583333109,-0.003489347179366558,0.9964384831136958,-0.29693702552205115,0.4687515713474255,0.2523731831234849
1729156697.850027,-1.2396985623982804,1.3621798806976748,9.966460389605226,0.06773248938416061,0.0611318261958852,-0.004157990231829628,0.9958202251536231,-0.25989470711394075,0.5021840847072497,0.2140003489090096
1729156697.874003,-1.2786837883178743,1.6150559215826674,9.133039820188916,0.08718857901674622,0.06818637538842627,-0.005981936834288516,0.9938375049937187,-0.25980519926510015,0.5116013411865934,0.14840764223412123
1729156697.887973,-1.2709503022875996,1.7703728486038974,8.633466318871163,0.10068615617202373,0.07118525654353582,-0.007222680617510008,0.9923420731233918,-0.27039374609234657,0.5112920342137312,0.09713269650825133
1729156697.911145,-1.179879530737794,2.0064968439279633,8.68064203863715,0.11307875525707249,0.06536015638928723,-0.007454913358276687,0.9914059054358612,-0.3005855176305682,0.48726780658814006,0.07615860048635613
1729156697.934548,-1.2131042687356453,2.361494609042325,8.890906796668617,0.12915309356056018,0.06495921048244878,-0.008479066085616964,0.9894583795367796,-0.32551162153689367,0.4553999774928421,0.08102743539316229
1729156697.959133,-1.6594464272081841,3.0107168105914104,9.175322381223825,0.15727282259131886,0.08392327395792525,-0.013414946902077549,0.9838913469290992,-0.36898851799864507,0.4388334204044355,0.08990839719771443
1729156697.978971,-2.2598063328874107,3.1732798141380494,9.590180301292888,0.1580924459428052,0.10842262373342508,-0.017467470536219044,0.9812982220872755,-0.46488782595546907,0.5136058083823358,0.05394503831862866
1729156698.006072,-2.5881793942148676,3.0558183071840013,10.302612494740575,0.1426269882973636,0.11667462763426414,-0.016933394078043104,0.9827297866863643,-0.5411577734338929,0.5886932355328803,0.0051228590576071695
1729156698.035427,-2.3473037473687643,3.184778401302588,10.59264463551622,0.14468443205912399,0.10325486894492354,-0.01518292905718112,0.9839584980191695,-0.5822371512448649,0.5690408024809782,-0.07482756581298748
1729156698.063399,-2.087377839241571,3.0131574851174903,10.493964350889808,0.13870315549319925,0.09339347511406344,-0.013140127712047901,0.985832861344183,-0.6158242692221507,0.4968013539222284,-0.1232235107968063
1729156698.085857,-2.085130040947286,2.5833764087951034,10.227657736510446,0.12277958648532299,0.09667512804249719,-0.012018266553579578,0.9876409540058102,-0.6764170958474152,0.39088124575205996,-0.14374727655785696
1729156698.105614,-2.006688068513684,2.5407464922497183,10.450467193175799,0.11843881622189663,0.0914468154114488,-0.010954852769098371,0.9886807968014083,-0.7217122831132765,0.3060446777768573,-0.1794744893948991
1729156698.14338,-2.0276182122019604,2.3636155772345964,10.333240533190635,0.11167718545488885,0.0937636041492764,-0.010584996030262772,0.9892545428982631,-0.7501664656571794,0.24237203514787473,-0.2051677177117447
1729156698.164831,-2.010727617995004,2.117276231106383,9.993078010099929,0.10369184964824546,0.09649787165289218,-0.010108485862472335,0.9898656371430195,-0.7485086124791918,0.18714084711200393,-0.22484055531647235
1729156698.182788,-1.89117824560169,2.0231027406169546,9.466481532622458,0.10456941322813672,0.09578470226849822,-0.010118933377526293,0.9898424803046996,-0.7343175086670762,0.14463695293831677,-0.24600943923147367
1729156698.200111,-1.7167373709449982,1.650564027182673,8.700653154192615,0.09315544224469796,0.09517375744663721,-0.008946002649658807,0.9910519605501397,-0.7287826768100412,0.08678217176299007,-0.27956958259211395
1729156698.219708,-1.5167836200767646,1.7361322334482754,7.886096020933538,0.10765044464466979,0.09216069522058797,-0.010022798783615986,0.9898572278509694,-0.7305700584333644,-0.012209896222972742,-0.31715896112844144
1729156698.246282,-1.459060612719887,1.6672842338677933,7.196967062023013,0.11301715953291075,0.09671227234969847,-0.011053802278468881,0.9888132642128435,-0.7158919551332632,-0.10182913137835467,-0.34056396837316205
1729156698.27841,-1.4031184135303696,1.4751407295296601,7.473738025299745,0.096862034184522,0.09051542192988493,-0.008845936645016155,0.9911339234086198,-0.6679216074986957,-0.2360560940879078,-0.3937704583745013
1729156698.303629,-1.5179935969463467,0.9933023527568586,7.930217264642738,0.06197770000405169,0.09353003765223164,-0.005833713427159991,0.9936683876156218,-0.6238145567053219,-0.3600126579827669,-0.4657092181527358
1729156698.331183,-1.1224435849256205,0.700129183870912,7.81792008046533,0.04452613115338478,0.07088854228053824,-0.0031675266257162366,0.9964849246189966,-0.588410834938595,-0.5582624042051335,-0.6080582583403299
1729156698.353538,-0.9406590562288099,0.6255000127639534,7.609523292175682,0.04091603966330195,0.061201544669720824,-0.002510946363325887,0.9972832816089277,-0.5263023559782039,-0.8372717150482774,-0.7734974140077482
1729156698.376203,-0.8090828434052546,0.6106500308517314,7.614729789514394,0.039942431308826826,0.05269280003264574,-0.00210929915204372,0.9978094115926881,-0.4571105139923168,-1.0689565008349304,-0.8983023110959212
1729156698.391293,-0.880492979968934,0.5785162856008826,7.891989778005511,0.03652012134133039,0.05534137787616124,-0.002025535423290302,0.9977973290394354,-0.3832429641296702,-1.284165893308626,-1.0302277175847372
1729156698.413263,-0.5110575360282354,0.4443143587628733,7.9053562850161985,0.028053726388565618,0.032209586245512595,-0.0009044247139544656,0.9990869396631833,-0.32572604230675917,-1.4405356927264132,-1.1285390142438183
1729156698.439189,0.3275894981584494,0.4344221516346771,7.982568617201125,0.027174584318256062,-0.020468282661131508,0.0005565393242188226,0.9994209731819793,-0.2873846786598543,-1.5713926077242824,-1.2028506344519
1729156698.463332,-0.056513416583446,0.2537101061663531,8.372463954744504,0.015146156102818012,0.0033729642623340915,-5.1093594916371144e-05,0.9998795999803369,-0.2754478020697242,-1.327659380196246,-1.2176393022744068
1729156698.482614,-0.4615124664539739,0.24775470994004625,9.141265808149436,0.013543234930133114,0.02520771424324633,-0.0003415338767902184,0.9995904337701862,-0.26956274630003224,-0.9873047756527377,-1.2082078303250434
1729156698.499935,0.4344098333600375,0.5788908642941059,9.551789844997083,0.03025300686223679,-0.02267015676942842,0.000686331190990685,0.9992849185879568,-0.26560602277675505,-0.7264752347521825,-1.1629597714394566
1729156698.523917,0.8053267777015694,-0.7695605558864271,9.118869256119343,-0.04204171792466907,-0.04383474033150511,-0.0018462995783148765,0.9981520929557174,-0.2977128836412133,-0.6125465163580526,-1.1247429945100915
1729156698.551598,2.042779028046723,0.7303366730599407,10.185983462851294,0.03559987192053328,-0.09849104915780892,0.0035256786119353054,0.9944947118740054,-0.2501436605103493,-0.615279525585734,-1.0877651563242257
1729156698.573521,2.6691315977362366,1.751661034597683,10.708457265210773,0.08036924370613506,-0.1199112635677916,0.009739655761128459,0.9894782527379439,-0.039406780326081386,-0.5645594535625129,-1.022583757205041
1729156698.58751,2.2562931126944763,-1.3946803750909995,13.058688898921385,-0.05297359030850783,-0.08484869774467882,-0.004517442938229267,0.9949744167214343,0.14663195638916382,-0.28935562500791207,-0.9447371221404852
1729156698.614928,1.2821892379780138,-1.5785318993710058,14.188466864743457,-0.055313372668844,-0.04470331907857841,-0.002478976207882362,0.9974647355893427,0.3012498946259761,0.23973167467488546,-0.8154452691781177
1729156698.638853,0.6012405862438396,-2.313490027073775,13.465965093211308,-0.08494694001194046,-0.02190663972184415,-0.0018681075352670806,0.9961428746384435,0.4170079208870132,0.5150407383998229,-0.6872130400867152
1729156698.664596,0.6607378197638818,-1.6102759303067653,11.40823762404202,-0.07002464510801368,-0.02856891425348141,-0.0020062779464416615,0.997134063737006,0.5464850353097819,0.5980679947726132,-0.464687701611859
1729156698.679837,0.703618764856376,-1.626965216387184,9.44336963619279,-0.08514285354849403,-0.03650654937418691,-0.003121711242548501,0.9956948434441789,0.6756798014003489,0.7032240565863515,-0.23368947445214006
1729156698.697329,0.5033346951931225,-1.287425345652623,8.516079437965674,-0.07491629412941375,-0.029100588562099343,-0.0021871887936707663,0.9967627204226869,0.7791637548038731,0.7944132377310885,-0.06486654379250444
1729156698.71851,0.14302582688149845,-1.2036509263857142,8.8223361771837,-0.06774332434714539,-0.008012263142987669,-0.0005440447139811764,0.9976704614556222,0.8680726007180956,0.8499781265408548,0.0683539692129293
1729156698.743293,0.0013001775253834286,-0.8945730753626786,9.070733665538734,-0.049132221627747476,-7.123666647244991e-05,-3.50424783336897e-06,0.9987922805623697,0.9112013467915403,0.835214082881505,0.13892109566402486
1729156698.763984,-0.17591197600430117,-1.002176647951982,8.599195088239256,-0.05797420596880205,0.010140975571852234,0.0005889359859990325,0.9982663999209541,0.9047261497644927,0.716101930767229,0.15061168710941591
1729156698.782205,-0.8003445073799244,-1.3059195373551737,8.429757100550976,-0.07668503882138246,0.04661982173949101,0.0035895504071597416,0.9959583887742578,0.9123346632077389,0.6501686102976697,0.13719291902647301
1729156698.798914,-1.4505766372892825,-1.5846515979013855,8.432242080154804,-0.09240870879074468,0.08328374634139367,0.007756631732964109,0.9922017349305174,0.933927373732168,0.6463665831787448,0.11849940664015648
1729156698.817067,-1.9223581918462258,-1.9707208659673938,8.87211139189171,-0.10845448163668978,0.10341429413353531,0.011344587424889838,0.9886427107494085,0.9788097546564778,0.6772891917014283,0.09153276693427141
1729156698.841469,-2.0976880498733603,-2.1961375024905925,9.3819174894319,-0.11403210838713539,0.10626840678889225,0.012268906303071777,0.9877009557115258,1.0244695459153932,0.6903087860160322,0.0583251806522591
1729156698.864515,-2.2668111490158127,-2.6886023720998242,9.705757660407189,-0.13384772013832888,0.10946169109168588,0.014876945458267116,0.9848256711169504,1.0846435554033187,0.6755589693473067,-0.017364769168474424
1729156698.881149,-2.2272665307180812,-2.58808033927552,9.47365444731853,-0.13208496584530655,0.11029082460060499,0.014790017345891866,0.9849724621498162,1.1552288560744985,0.6492557868261282,-0.12876069858752942
1729156698.895933,-2.1628383315167863,-2.3326396842782025,9.378924670344244,-0.12081430492715875,0.10904381096109735,0.013353287561065621,0.9865774377753423,1.2094993581981435,0.6143178245476295,-0.2207139698652223
1729156698.914301,-2.0628898494960093,-1.7046051020708277,8.861202984579593,-0.0942566347638119,0.11163136197156934,0.010636742440469414,0.9892123055935106,1.2599406420537356,0.5197106665475989,-0.3444220325272251
1729156698.940046,-1.9734720798636214,-1.4721547128538248,8.885279365210646,-0.08150815375502159,0.10728335907339291,0.008825286280647474,0.9908424779244387,1.3187266464850471,0.4310196171379282,-0.4633443265779401
1729156698.960362,-1.7732962764826259,-1.232846270095107,9.899064966538498,-0.06166308344470346,0.08768147737079723,0.00543812445257897,0.9942233398329593,1.4127434776255943,0.28500455409340286,-0.5981255221662118
1729156698.976788,-2.050628270039966,-0.6827257625453454,10.792725165225834,-0.03143744976452991,0.09351482867573144,0.0029542934068263393,0.9951170462415553,1.4665994359411505,0.17909084362382033,-0.7428477487384797
1729156698.991036,-2.2019439957153857,-0.36079374366001976,11.11583733668433,-0.01614183545835786,0.09756101761751047,0.0015825726548103411,0.9950973743575366,1.4767771277344586,0.1559831731809638,-0.8633105995373407
1729156699.017902,-2.0130906772143877,-0.2574170945846837,10.326406017733254,-0.012401103650297488,0.09608048675310353,0.0011971358881772193,0.9952955940619884,1.4041310814399677,0.16553152429566162,-0.9351626199551953
1729156699.039361,-1.7798291829399606,-0.37040724649690393,9.70813744608917,-0.01898536928700209,0.09045528382457589,0.0017247121090784162,0.995718043800248,1.3077578860419812,0.13550256980166966,-0.936556206182629
1729156699.06002,-1.6736305297835077,-0.08864789526142358,9.654886863405455,-0.004573104682564842,0.08571016446422053,0.00039341343095513416,0.996309540076251,1.127335231102124,0.05959134874643818,-0.8437405443974424
1729156699.07949,-1.634571614989245,0.23483372255994275,9.590854211549132,0.012194517771071898,0.0842729264197741,-0.0010314142548458246,0.9963675545668944,0.9186187836331704,0.027666698080084304,-0.7165352170007091
1729156699.094025,-1.612812207274797,0.4054595169832313,9.618993426587682,0.020986523668981374,0.08287618359022611,-0.0017456768429390357,0.9963373207052773,0.750819909005595,-1.893548968647657e-06,-0.6163733771207953
1729156699.111167,-1.471427353661753,0.494666884506345,9.641862459761205,0.025550553489346192,0.07552508423023857,-0.0019358742026679516,0.9968146183014547,0.5645768818751815,-0.08471345836032548,-0.4817805124369915
1729156699.135757,-1.491941314540802,0.44284643197333823,9.88901854153055,0.022308911125476342,0.07470734301327756,-0.0016717306848627314,0.9969545279002495,0.40132256816002754,-0.23046928095317262,-0.3163124713957649
1729156699.156439,-1.424522775785028,-0.022075180366778333,9.827340704996455,-0.0011201234619902726,0.07191384990412918,8.076154555865853e-05,0.9974102150033199,0.1650207099557749,-0.4371159917182498,-0.07868237679586869
1729156699.175228,-1.3239771908616418,1.219529326594386,10.181307134179514,0.05944362096650329,0.06404528839321823,-0.003821729931038131,0.9961676823413588,-0.0452965048621638,-0.35379295824528667,0.0864572532215567
1729156699.195366,-2.024287707339251,1.2732860114839755,9.833443803212786,0.06400062950172784,0.10031460215323139,-0.006466275363178741,0.9928741548157798,-0.18553460578117403,-0.19269403211991856,0.21278519516558195
1729156699.219433,-1.513608411757066,0.6430644230524946,9.659202308539,0.03312855433379302,0.07742916051970661,-0.0025742703185718916,0.9964439759069715,-0.34076770659673944,-0.127535740992888,0.48269662835868354
1729156699.241235,-0.9119957697104897,0.25679118434907483,9.569022621695666,0.013398481944334906,0.04747092518745154,-0.000636813621400661,0.9987825521162483,-0.47264536267912355,-0.18507241026855087,0.7663908458526856
1729156699.264425,-0.30729845547863754,1.279588911048898,9.207020476093572,0.06898290727316596,0.016483256431819464,-0.0011399344357256608,0.9974810079951533,-0.5794418103235861,-0.1689372945199668,1.0647400848491582
1729156699.280348,-0.7843660093223388,1.5463477265121515,8.903388508800674,0.08579307584450695,0.04311715052339651,-0.003716349936701508,0.9953726177723744,-0.6907712757325492,0.018682220620312842,1.288021394639093
1729156699.295513,-0.49527988269301265,1.4356188080264314,8.90699937725306,0.0797859673311962,0.027330162004791072,-0.0021883651944949022,0.9964348813242101,-0.7839617387885729,0.11252356700015122,1.4679647071509536
1729156699.315865,-0.6802401952408076,1.9509724603529681,10.161093946420195,0.09465256141999943,0.03267169861722342,-0.0031080960391714697,0.9949692419693736,-0.8232741042251679,0.10029227493266715,1.6572374963973178
1729156699.337272,-0.7471630722226095,3.117308846084828,11.671076093193912,0.13006732881811275,0.030618236607694846,-0.004018501718710585,0.9910241496578642,-0.8353678918276501,0.12317749405598097,1.757179087978351
1729156699.359187,-0.7810918740952845,3.5367496631196462,12.512182516267911,0.13723945880747987,0.02971173644268521,-0.004118462857075117,0.990083623704324,-0.8477324451266838,0.2433311408954772,1.7635070951827552
1729156699.374001,-0.6496567699649832,3.619144095967491,11.900669556147465,0.14702519831575497,0.025803733844461867,-0.0038368148770807123,0.9887886716743352,-0.867921878949965,0.32861972090449787,1.706430220716327
1729156699.388468,-0.24997268502586492,3.5881355798949475,10.746308854049808,0.16042138902009417,0.010887041784247547,-0.001769541425107183,0.9869869902836594,-0.8949346913951047,0.3819213192172204,1.6198242184766403
1729156699.406658,-0.2828618031541908,3.0854228945678277,9.237987927175977,0.16045757072193828,0.01432846279494612,-0.0023295435263167184,0.9869359839315349,-0.9188047999685052,0.495209079944102,1.4380251483869086
1729156699.423905,-0.5853504900956394,2.6363124611059314,8.448395891071211,0.15057553506865007,0.03263906773951691,-0.004974100299433144,0.9880470423123062,-0.9156735725926021,0.618095754308833,1.2284828518280304
1729156699.451811,-1.4357836461081648,1.8927942723178555,9.080522416234523,0.10225613373234958,0.07630560499902413,-0.007867259389762574,0.9917959689318862,-0.85717805799261,0.7807969817732363,0.8601141388593454
1729156699.478002,-1.7638447933777894,1.3705477462520412,9.53808872561962,0.07099319268101978,0.09016752362631279,-0.006443990077876788,0.9933721655391449,-0.7773832927791016,0.9094930927386065,0.4164570089334918
1729156699.499255,-1.843365600391908,0.951136697067631,9.411599733174507,0.05009534741338283,0.09595807005249532,-0.004835523313185277,0.9941122284096602,-0.7192898721759077,0.9837309288875944,0.0817266310825926
1729156699.52219,-1.591084616582801,0.696856445730813,8.854471804016033,0.039099125086962665,0.08844514030303798,-0.003474432032032136,0.9953073112844418,-0.6886907204286117,0.987407384676632,-0.20850650853497354
1729156699.551936,-1.4346882028110086,0.4636036989814565,7.922841732311963,0.029098425912520143,0.08926369760228553,-0.0026089661225711445,0.9955794630241991,-0.684804691469943,0.9585378836633264,-0.4175529773453998
1729156699.56957,-1.1919310112862145,0.4814299403361395,6.489501243000459,0.03685875987204782,0.09039379293271581,-0.0033478118077387743,0.995218160091561,-0.7135484485814703,0.8922618259872093,-0.5766103734871562
1729156699.589179,-1.0876963850920411,1.0806204532153556,6.6058523864252745,0.08071249226686927,0.08019303330041365,-0.006515026023198997,0.993484839057983,-0.7482479953683299,0.8056702846207157,-0.659274109328349
1729156699.605787,-1.3229942958989747,1.6606407338432758,7.784178441132508,0.10452879228983825,0.08180974518908879,-0.008628145779891652,0.991113743358917,-0.7886494662676992,0.7285996461745596,-0.6965273390506657
1729156699.64572,-1.889143837060869,1.9705850958235436,9.71413228196466,0.09944305047964745,0.09355716805456592,-0.009391982202782785,0.9905906958412312,-0.9022852617143473,0.6257404849324157,-0.7452720606947016
1729156699.664869,-2.113193621572459,2.261417745726548,10.618319210487389,0.10422327891021271,0.09544681008903019,-0.01004915199734356,0.9899123340585099,-1.0155898854973116,0.5576396372651989,-0.81155392902832
1729156699.685518,-2.0644670652774595,2.4900262931878814,10.40593958415376,0.11661283663754374,0.09450254160450014,-0.01114719446082061,0.9886083430850096,-1.1082626833318878,0.5614765851183822,-0.8858039450069155
1729156699.700062,-2.066595173248507,2.634613446811166,10.059202936283272,0.12708908571395341,0.09713268699744375,-0.012506530540724417,0.9870446758393877,-1.1059725136737975,0.5450483911259627,-0.9371649955774655
1729156699.724194,-1.780088998480354,2.2348639616413872,9.452765791310979,0.11532523175683296,0.08989247731003117,-0.010480093071111547,0.9891964421147699,-1.0794826982526833,0.521995082825188,-0.9509540234613141
1729156699.75148,-1.928290055582353,1.8800925908520199,9.531351971124478,0.09673739933731565,0.09734968087485732,-0.009507754124824295,0.9904920584308176,-1.038898785435217,0.5315760512251351,-0.874940808022141
1729156699.771062,-2.140272655175584,1.869060968329571,8.89807156719617,0.10261802417445424,0.11471885956158095,-0.011915063844812062,0.9880117183662325,-1.013271367560351,0.5398787726338754,-0.8050685452553015
1729156699.788467,-2.4190151800194126,1.6761731056559457,8.926554128061843,0.09185645008937847,0.1292217382199308,-0.012022793543684225,0.9872788802480296,-1.0085371683719824,0.5065482999475368,-0.781875550299527
1729156699.805734,-2.930786313822194,1.0253363170068488,9.500295550567573,0.05311064109218284,0.14803960100982327,-0.007961823961312203,0.9875222254181618,-0.9950543973224104,0.4742050045533347,-0.7824332154157714
1729156699.829719,-3.0434398192991754,1.1862188861513747,9.08294485597531,0.06401787300010155,0.15936490618438345,-0.01035664636122131,0.9850874471281899,-0.9839849042624329,0.3705123951473312,-0.83555338210681
1729156699.852341,-2.860359008767005,0.9841914806166061,8.720485801524639,0.05543748711727714,0.1566406281454072,-0.00880653247644172,0.9860592495494758,-0.9522274948001865,0.15206857694716347,-0.9414955528158266
1729156699.869551,-2.7646363122426245,0.6659322406648855,8.78792036641283,0.03735353999824328,0.15129428180593052,-0.005721371253570423,0.9877661764068489,-0.8927324932839458,-0.04540536356101409,-1.0059122353641607
1729156699.886036,-2.795309315421747,0.31600170645947817,9.250239437865277,0.016882298586082662,0.14610427124010125,-0.002493702451647668,0.9891219901346506,-0.826385807948935,-0.27712328421482096,-1.0105070399761986
1729156699.901599,-2.6997491183057827,0.2070786959948275,9.59299258605901,0.010685798092529022,0.1366990377494931,-0.0014746681924433876,0.9905538915935925,-0.7989228085303275,-0.4655340837367008,-1.061792589750093
1729156699.924252,-2.5492785554561257,0.17452545246017773,9.490750141479156,0.00911105827096137,0.13080370155631998,-0.0012021397922462773,0.9913656919302121,-0.7641403362362956,-0.5641071013601195,-1.1155511829333793
1729156699.949022,-2.1819870856662535,0.26009895922024723,8.649852614184368,0.01491057453654424,0.12316978608697023,-0.0018508357859437822,0.9922718644450087,-0.6602612908747804,-0.5432211803793089,-1.1146025140493125
1729156699.967859,-1.9927368253743614,-0.07833296699714852,8.337568491118041,-0.004663824816737013,0.11702782828939051,0.0005495797544165946,0.9931175328761652,-0.5485538165282755,-0.4996142533040942,-1.0961543301374672
1729156699.982965,-1.3127185564062573,0.3279321997821797,7.079989875188403,0.023039579205034032,0.09141690890898421,-0.0021156345993943297,0.9955438968954725,-0.41469599227083365,-0.4223672896835216,-1.099558881880069
1729156699.997686,-0.7881099741757855,0.03993911112907343,6.102063690738042,0.0032655194821023764,0.06417597395912097,-0.00021000191837358868,0.9979332325602273,-0.32671887661005194,-0.3189766432752658,-1.102452993048554
1729156700.029453,-1.2655861541832056,-0.22790654797099344,6.290789897792434,-0.018012738703097796,0.09902310369075185,0.0017927837819118172,0.9949204752673331,-0.2867033090574439,-0.1028424531810569,-1.0560864828044356
1729156700.05988,-2.2684169989064076,-0.8425545781966586,7.542468511429367,-0.054984928447572176,0.1444871683891337,0.00804155707257094,0.9879450638443182,-0.32441902743787365,0.11538159365957103,-1.004853623277553
1729156700.08101,-4.168491066043064,-2.925112944671901,11.81917704435762,-0.11929657322230432,0.16297436337988805,0.019855471495718844,0.9791901984548346,-0.37386693233823953,0.28505381735699264,-0.916220059202587
1729156700.094703,-3.8377774264910727,-3.944086344684,14.936586806448556,-0.1277303940518172,0.1204367993027909,0.015628092803601196,0.9843453085804742,-0.3528785579644773,0.37408644973158467,-0.6140112348023189
1729156700.117814,-3.3501296822130024,-3.9332173732166495,14.707557227912101,-0.12949005941976044,0.10716659555141438,0.014078727815585751,0.9856720726146608,-0.2568502812936617,0.35215888827756026,-0.3181753136288716
1729156700.135014,-3.2687096220719423,-4.282713777201474,11.482337599686714,-0.1759836008525881,0.12789592066162456,0.023066325010736195,0.975776793308578,0.03063931789832469,0.27642591237022696,-0.060218339308479224
1729156700.155539,-3.758792379688478,-3.8632154233033056,9.753586005856949,-0.1845570064135207,0.16814513560698835,0.032064835137553475,0.9678004810408956,0.36915220138370886,0.26078443112816924,0.053263909321939105
1729156700.176303,-3.224448259844337,-3.3167901865991705,9.120715709959482,-0.17118658842731363,0.15727839587650846,0.027693564139023012,0.9722097122732356,0.5884361538104965,0.22372968838790253,0.09070357407492383
1729156700.193724,-3.225861911228868,-4.009583212301298,9.25383152802647,-0.20047983328946117,0.1509647837527497,0.03128235184899038,0.9674910257844831,0.7272432563114237,0.09933122799285493,0.12082979403303121
1729156700.2156,-3.357912353036149,-4.256946651013592,9.086379987372524,-0.21436384254609397,0.15692876832871297,0.03491666627836295,0.9634325773481568,0.8441570326674805,-0.03362738666447197,0.1665753800029277
1729156700.247816,-2.4325356015189548,-3.55973268787378,8.258550598624684,-0.2002479184609947,0.12898534316553448,0.026604484567394834,0.9708531061913596,0.9611312052419382,-0.2764418489988262,0.1965768719536378
1729156700.268812,-2.201963295725826,-3.1131527304000493,7.743417612592778,-0.1883236099234603,0.12628343995947933,0.024425826919749972,0.9736478263297687,1.0823985161620564,-0.5013088778313766,0.2448017614878681
1729156700.288195,-2.1026453993104957,-2.6852720850173735,7.517656038747073,-0.16922145732152072,0.12653401927534402,0.02191239800834564,0.9771760778700691,1.189639797692552,-0.6749668907239517,0.2771422157001025
1729156700.308987,-1.957102821861688,-2.621755771762377,7.300317397662306,-0.17017558620573603,0.12143445690779126,0.021137078564184564,0.9776743662614947,1.302513233617521,-0.8183251841140037,0.26674818392510097
1729156700.333231,-1.6487924621599817,-2.4021654979695355,7.429445672972384,-0.15484651421165532,0.10259885309067646,0.016170651277525434,0.9824635069142457,1.3868392075695213,-0.893697908611484,0.2251794897587514
1729156700.35537,-1.7096907568370043,-2.4329776264184404,8.01473281027757,-0.14605391048001615,0.09941852611597325,0.014754203937328163,0.9841577746299618,1.4553137745221272,-0.881027694951136,0.12446544231870005
1729156700.37055,-1.6241254489752495,-2.6573662462612204,9.139711069223184,-0.14047884116332937,0.08355955239030131,0.011899232047193786,0.9864795510634914,1.4661745203298864,-0.8240455196253313,0.012102826356301374
1729156700.387003,-1.4968900716312434,-2.949777307571185,9.921239998467502,-0.14360907210814303,0.07100306010447403,0.01033067210160895,0.9870300284580847,1.4560890554175225,-0.7885791442454626,-0.07021389537230895
1729156700.403162,-1.3791291565041368,-2.7385603762419297,10.478263977107844,-0.12720525036472902,0.06277103423913544,0.008066638608273485,0.989855318156022,1.4074687703239013,-0.7592112078497628,-0.16132155443275425
1729156700.428364,-1.3474980944884196,-2.621167603918986,10.74903202029791,-0.11907895247777216,0.060127576953117615,0.0072246898019566715,0.9910361655478618,1.3570120961946266,-0.715623352263159,-0.24748721441721175
1729156700.452122,-1.3428846672399268,-2.4552032942849853,10.944772249288121,-0.10990961288751892,0.059179730622121784,0.0065558415744689305,0.9921565690049425,1.3054535886439604,-0.6205088489543475,-0.41199447669532463
1729156700.469193,-1.0444327058615341,-2.4746165310143504,11.095495789758418,-0.10937923558770021,0.04551703878433648,0.005013993977027426,0.9929447325339683,1.2749441741750227,-0.526405111621864,-0.5834918345721998
1729156700.485676,-0.9146820832337172,-2.4757299857472823,10.978352630105052,-0.1105781271532258,0.040288685646137405,0.004486270192664611,0.9930403682549618,1.269409227337521,-0.4622804481160573,-0.6863902492983248
1729156700.502837,-0.9634849774792928,-2.3274787153253222,10.749091744078655,-0.10631050964266103,0.043428560902107456,0.0046477116173228635,0.993373260368031,1.305677434950989,-0.42508272019695925,-0.7817588129895003
1729156700.524502,-0.9731342604133568,-2.1710114662557403,10.435321970275318,-0.10226921046788358,0.04526845987072352,0.004658849183295999,0.9937152863146947,1.3491485526536333,-0.4142577151049754,-0.8858058579650292
1729156700.553534,-0.9138015450175454,-1.4939035923999284,10.079226569616361,-0.07342960217980696,0.04458559906611809,0.0032860682974945473,0.9962978568855676,1.418225919482885,-0.43841239647505137,-1.0550822903773165
1729156700.574169,-0.6675121696863083,-1.1656898422075352,9.377631030881146,-0.06175613739223871,0.03518559032945773,0.00217844087408908,0.9974684998148646,1.4886192637598543,-0.48696041021405945,-1.230718220519082
1729156700.589856,-0.5898886531301444,-1.0523192300315525,8.896818666136108,-0.058799634220929264,0.032811860733909515,0.0019337177659890777,0.9977285430147145,1.5214900889738712,-0.5229002594408567,-1.353127381062623
1729156700.612585,-0.33334305760074284,-0.8495033092591658,8.475931895482447,-0.049915194450935035,0.019530458757572724,0.000976270516957584,0.9985620068075501,1.5024747885092364,-0.5453155490998592,-1.4231673568970513
1729156700.637581,-0.3082237495995082,-0.6425801776941713,8.40128901643986,-0.0381527376445186,0.018267929479674955,0.0006975960913883356,0.9991046815636725,1.4650985144812716,-0.5694069744318115,-1.4468866697548408
1729156700.659979,-0.2893214421425174,-0.3252142247805652,8.920337779981102,-0.01821724193820189,0.016197119512824876,0.000295154563331305,0.9997028049872803,1.362217328448169,-0.6277079059615722,-1.413866660647229
1729156700.674175,0.05888411591566143,0.06440292509259837,8.72826642897499,0.0036892336953949652,-0.003373012722120948,1.2443987664446157e-05,0.9999875060144824,1.2247157858880655,-0.7427181964342905,-1.3408433974999079
1729156700.692231,0.19502372028181872,0.28069554289735593,8.528508299767806,0.016448512651885298,-0.011423664886030435,0.00018793999052112763,0.9997994353822532,1.0975174038984903,-0.8313061135451749,-1.2578659539570083
1729156700.709473,0.5410273461827632,0.4095134329161479,9.057242651979825,0.022579218835881806,-0.029789275420540922,0.0006730891131047941,0.9993009180911056,0.9164786195850854,-0.8142200036704703,-1.1110221538179255
1729156700.733417,1.0809447121530171,0.32088599187859496,9.577990404420317,0.016716710047280182,-0.05612219060141381,0.0009397915294259288,0.9982835108921588,0.7618808223591429,-0.7499056999399696,-0.9692789259902597
1729156700.755336,1.0922123949187634,0.4597245004005944,9.696748141577972,0.023646482000512996,-0.055974714827223146,0.0013260566345887914,0.9981512494420934,0.6197420968939817,-0.6095771930122436,-0.7569516609165128
1729156700.770918,0.8255551749883675,0.3672932036583254,9.506316542417485,0.019288765194618498,-0.04325902905239709,0.0008353510851755896,0.9988773208614136,0.4952953759603782,-0.4210860237974102,-0.4771582598688574
1729156700.788034,0.41704271070591115,0.5953079021754639,9.408816994542288,0.03158024517321769,-0.02209086761298201,0.0006981538686187895,0.9992568209745084,0.41381630241682354,-0.2875581993183327,-0.2373405988531808
1729156700.803613,0.08430745137471855,0.9112030054654345,11.357137097360138,0.040019154981402336,-0.0036967220814671806,0.0001480593164423309,0.999192063398657,0.32448830245179777,-0.2410710194863867,-0.029596493024470122
1729156700.826987,0.2052498980709249,1.320288359675745,12.497398739128972,0.0526012033927671,-0.008154138171421941,0.00042952645686804064,0.9985822144116813,0.19171315104084444,-0.25872754816365645,0.10100963133322476
1729156700.850007,0.8076521934812269,2.105632046567166,11.504896301582852,0.0903291653449462,-0.03432425318427795,0.003115073956640069,0.9953154192745491,-0.04503157248521722,-0.30720788084013917,0.25557182694954533
1729156700.867535,1.0965492604246736,2.6984637030379557,10.66901699237549,0.12338996255056343,-0.04925602757273241,0.006132176940314648,0.9911161169588039,-0.21432257053442422,-0.2622260097516353,0.5236934496416947
1729156700.883704,1.0520151495165229,3.0433887894497262,10.324788455923342,0.1426571149469092,-0.04819415401784733,0.0069547057246830335,0.9885736710745494,-0.3218568302244169,-0.2292772262380645,0.7760897864713211
1729156700.898775,0.9956065823856951,3.58409555272257,9.737812690253223,0.17521469560518207,-0.047068374502382104,0.008386549950759034,0.983368722476778,-0.40085084812812155,-0.22866400889571345,1.0271390629512123
1729156700.917085,1.1518610539236045,4.162304986662839,9.446918793351152,0.20568717641519282,-0.054340275688126334,0.011439743310391387,0.9770409674980247,-0.4554839899151989,-0.2453236809487841,1.201607272281021
1729156700.940434,1.0320509487604128,3.6712600659723127,9.182839313120066,0.18875497906762162,-0.05103068085424808,0.009822375460093695,0.9806482286880727,-0.5023116470156923,-0.3055509114331462,1.3092680283091402
1729156700.959261,0.9723753141292946,3.869359815218153,9.392140999981414,0.19392369137828916,-0.046791622354022885,0.00926054569394165,0.9798563100236417,-0.5295568611530643,-0.3433900099696116,1.3487487682997519
1729156700.981873,0.6746442717295299,4.014316462861361,9.84405169837752,0.19229458968406007,-0.03109011088148315,0.006095333910656518,0.9808256943453988,-0.5433498492667153,-0.34310620577254114,1.3528554694668653
1729156701.006248,0.25036055595763984,4.030900922638692,10.366828711897606,0.1843458992456064,-0.01105925873053187,0.002074415121195958,0.9827970182237861,-0.5316182092461903,-0.2765282736662219,1.2331464425275305
1729156701.037929,-0.014744160810181726,3.857216331171105,10.41880867855458,0.17635796625314643,0.0006531590529194495,-0.00011702405187539048,0.9843258746104752,-0.5169168041275589,-0.2148713212678668,1.0842711252393018
1729156701.06676,0.18197137582834408,3.6610682325405537,10.301556155619076,0.16989977076329954,-0.008200434601833926,0.0014138572125107153,0.9854262132573407,-0.49149404865936086,-0.14637608528066337,0.8966115306686353
1729156701.082358,0.2600175300868502,3.4150501643778477,9.908466258068712,0.1651808206188088,-0.012231608004099935,0.0020487295896418406,0.9861853208055773,-0.5239176822621895,-0.06015579717336597,0.7150539839693864
1729156701.097581,0.2977472563333601,3.099845207269287,9.388660002643961,0.15875649348546014,-0.014861209574460185,0.0023898969776512983,0.9872030229991302,-0.5718930965418427,0.026908650792361093,0.5414145666076082
1729156701.125774,-0.16420132393435896,3.2116733816857903,9.25251065124458,0.16626865811722608,0.0082651289743352,-0.0013936809069305608,0.9860448664358352,-0.6019554152940209,0.1676908523558999,0.25801540031502596
1729156701.154345,-0.42149859831569353,3.313246790241943,9.093727746947918,0.17376789589357794,0.021428319965162056,-0.003782000306970515,0.9845462111723692,-0.6140331456848593,0.2883438285182959,0.013054449722159023
1729156701.174288,-0.5682155176319943,3.4651704984615717,9.39757142111797,0.17564091590711467,0.02789023498383797,-0.004978084007543533,0.9840465548598146,-0.6557606788977869,0.4024532402390125,-0.21522892237280913
1729156701.188834,-0.5058898049639622,3.195997373539834,9.886814278452032,0.1556441039086565,0.024025556624642366,-0.003786718257877781,0.9875137195564337,-0.7927536849900578,0.47815561831629705,-0.4007276126364616
1729156701.218991,-0.5123082677440023,3.0385636414090564,10.239017933526297,0.14369967793851696,0.023714122904945206,-0.003444460158323363,0.9893311774271715,-0.9290121264510982,0.5240027352241299,-0.5401223708511472
1729156701.258204,-0.5247784713885889,2.973552082550512,10.239171540145076,0.14080331221572534,0.024341866068236764,-0.0034629723336619153,0.9897322408853888,-1.0890941626367363,0.5766267189950894,-0.642489588484288
1729156701.274534,-0.5530901480187002,2.7185881574892914,10.264402821547982,0.12904879969660785,0.025799995749735984,-0.0033586895920206788,0.9912968711341739,-1.2072792675441448,0.6269314719619945,-0.6915649072817736
1729156701.292387,-0.721390698918642,2.352286434532637,10.11194747417879,0.11395981857798193,0.03445365995403358,-0.003954489253886882,0.9928798855250247,-1.279041710611514,0.6749933063235429,-0.6971714551183912
1729156701.319238,-0.8915634574371227,2.303451399293801,10.203151852427196,0.11068618824925891,0.042240826427637386,-0.004708690338416785,0.9929461760583284,-1.3003889833173718,0.6957422957726933,-0.7103262552339884
1729156701.346952,-1.0228763728021173,2.0704038168712025,10.310546915899677,0.09880148186320772,0.048223438905624035,-0.004793661769048272,0.9939264499592481,-1.302555095404336,0.7060632391348735,-0.7288613868398974
1729156701.369203,-1.0339082150386922,1.8635376209332681,9.897580142948009,0.0927910337174651,0.050905837448403504,-0.00475033976212538,0.994372090340163,-1.2842730198292607,0.6803290505425291,-0.7510504074014557
1729156701.384564,-0.944280413642356,1.723855592579492,9.28468432600318,0.09154087857019158,0.04960113251225918,-0.004565390939446867,0.9945547508356032,-1.2686211838081334,0.6214681511179954,-0.7562757085706121
1729156701.406939,-0.8524359264080699,1.426483587481289,8.915270894674174,0.07915533710075756,0.046902303694506486,-0.0037284084475490923,0.9957513271329654,-1.2528447312735265,0.44993079179542494,-0.720247403617599
1729156701.440578,-0.7422625958839044,1.5269848778305701,8.021331009704896,0.0938183572719231,0.045111442426819,-0.004255440923901362,0.9945576729498963,-1.223371426864047,0.21036186647257052,-0.669683496466373
1729156701.461338,-0.7175782862901082,1.0823485219131859,7.297979929065124,0.0734609844060453,0.048328176449049146,-0.0035640637796954455,0.9961200573126607,-1.1861057013911056,0.03043685605458521,-0.6218918596556942
1729156701.476742,-0.7164146499967212,0.7284177679330677,7.691884214763292,0.04713898963206615,0.04616195435965611,-0.0021807847509723597,0.997818737949952,-1.134799341927923,-0.14945977058328933,-0.6055618893516856
1729156701.494717,-0.6213849228105327,0.3556478043145281,8.026628474414617,0.022120810240015314,0.03857391723990398,-0.0008541314605681063,0.9990105070130857,-1.100184315696855,-0.32423108621555297,-0.6298191120862432
1729156701.51311,-0.5763380947996009,0.033344717744966855,7.890610856621425,0.0021114620454862256,0.03644728077638226,-7.700838815953122e-05,0.9993333435454589,-1.051745445963182,-0.5563752039720586,-0.6911993524878011
1729156701.538497,-0.4257691923289792,-0.0987455716967699,7.721611925349808,-0.006391189788794373,0.027535786636689295,0.00017605679574059737,0.9996003712241143,-0.9886269192060158,-0.7561096633535705,-0.7395211283882107
1729156701.559603,-0.22218211232121565,-0.3321863322758744,7.722684397641525,-0.021489968517882437,0.01436397291702568,0.00030878451376404936,0.9996658252572524,-0.884348153563639,-1.0023802872367011,-0.7846904162640138
1729156701.579094,0.039312672304536236,-0.7439926770510715,8.211266179356398,-0.04516429670184175,-0.0023816061795739448,-0.0001076737476751873,0.9989767277878887,-0.7749549874173896,-1.2586936272393974,-0.8049809480061031
1729156701.593675,0.8414468904920968,-0.5656268489064241,7.715765221529855,-0.036524538972729316,-0.05410618932155231,-0.0019804318445189447,0.9978649989951742,-0.6859061343492281,-1.4822948013207884,-0.8043845652074957
1729156701.620074,1.6521695698421333,-0.575923233367292,7.445997965925725,-0.03834910556078566,-0.10856402818916958,-0.004191244373228325,0.9933406421548616,-0.5971445474069826,-1.5670754586400273,-0.7887018933156982
1729156701.638851,1.266874352989264,-0.1899308321102189,8.30574346095192,-0.011397432306099124,-0.07558504715786661,-0.0008640036668559641,0.9970738451492119,-0.5353737940123947,-1.391051050272308,-0.7861033311640122
1729156701.656242,1.331859968238871,-2.468176991697772,11.699421153475448,-0.10360524981479567,-0.05513769711115029,-0.005752405523768817,0.9930723520463063,-0.4944801314224837,-0.9495669467581332,-0.8262618198962797
1729156701.676346,2.311772589830041,-3.6076755297354604,12.389368175483707,-0.1406271068361406,-0.08763326154956204,-0.012497356759345336,0.9860974821827264,-0.42226664698478955,-0.8051467720433834,-0.9222985335227234
1729156701.692272,2.732604886905837,-1.9342831181342446,12.65848718824921,-0.07530819316269734,-0.10462572813765375,-0.007945724563363987,0.9916244241220559,-0.3065712458736277,-0.7078524156779826,-1.0075904156936217
1729156701.712971,2.8783228711083453,-2.5147303298649213,12.867842629111637,-0.09576267359435012,-0.10733964707445907,-0.01038773271558899,0.9895452518813993,-0.08603403338790937,-0.309349442750579,-1.119639223785231
1729156701.729554,2.9509096113368827,-2.574257936688484,12.705194013746278,-0.09913765690805752,-0.11111976850904398,-0.011141076876595836,0.988787135047431,0.07225538785270558,0.07704110227172609,-1.1962336899923616
1729156701.748393,2.5694908607962708,-2.702869525196684,11.535960181441128,-0.11413904893409826,-0.1058714757412708,-0.012234162406720414,0.9877316606259976,0.18212819274824565,0.39358775151605346,-1.1604578779159298
1729156701.772852,2.192199107542215,-2.854017309600432,10.642404908913504,-0.12997473430895168,-0.0971988424238337,-0.012804221172550092,0.9866585049514085,0.2054828695393665,0.6456664900361064,-1.0972747646467917
1729156701.788531,1.8403678885975947,-2.921482224139165,10.28463976907857,-0.13742323968563655,-0.08431461948332268,-0.011741214161654726,0.986847527243037,0.21694153524526685,0.819900996467088,-1.0525538557019163
1729156701.813645,1.3565695881390256,-2.5831984702256863,9.90956917394714,-0.12686903914709705,-0.06526903309446992,-0.008366506644005681,0.9897344097238314,0.28852162401103587,0.9027315071911133,-0.9537796899479077
1729156701.833332,0.45912106684825904,-2.8633781128971303,9.550451523899534,-0.1450896447450697,-0.022762220238701555,-0.0033387848778724527,0.9891510141697746,0.38255248464594105,0.9366792813514333,-0.8574801551483058
1729156701.84774,0.21465991794098668,-2.6366820447402315,9.068985129427611,-0.14098730269529874,-0.011248574824509383,-0.0016020125334762604,0.9899462023761515,0.5411366157777717,0.9587507060934735,-0.7745847206422848
1729156701.875434,0.193918235920842,-2.749421956336326,8.748022990498363,-0.15166126917230746,-0.010449542570402266,-0.0016034291668710378,0.9883759889374191,0.6916268024469343,0.9579457889104503,-0.6541829097359749
1729156701.891301,0.14723614296852083,-2.8764421044658577,8.59399235386933,-0.16078519727972443,-0.00801679931466648,-0.0013060183631244148,0.9869559998199027,0.8057595578903056,0.9319214349129148,-0.5125543431738778
1729156701.914949,-0.4132435620216219,-2.989764319075999,8.781934986296207,-0.16329137885869766,0.021957266983638805,0.0036351362856338384,0.986326816933018,0.9253220185317722,0.8758662666755004,-0.2726260208644401
1729156701.936301,-0.9480107026426606,-2.979467253554975,9.031409480547255,-0.1584518815841987,0.049028434171775284,0.007878016498856886,0.9861172094234715,1.0294119395877663,0.8439359259788999,-0.07801191016479571
1729156701.962977,-1.3287260285191902,-2.8878160149747814,9.309423386082258,-0.14947147746896738,0.0669271364765254,0.010141148622670635,0.9864462443189236,1.1816864951898518,0.8294603122370219,0.06983193074171923
1729156701.978239,-1.6850055926974514,-3.0664993538579153,9.356761066561464,-0.15709952652313003,0.08358328234522681,0.013345097272463295,0.9839489224839849,1.3569121706591232,0.8177951135616608,0.18067411848165385
1729156701.99288,-2.172191160794252,-3.037958123056937,9.380375271528674,-0.15500804470968776,0.10688351787255533,0.016872019013562948,0.981969324702596,1.4935486404888763,0.8244180763232293,0.25611892241631723
1729156702.011881,-2.3859726871992075,-2.985399200006037,9.646653229323455,-0.1484534555883586,0.1144524303186021,0.017300157206467676,0.9821216407750479,1.6057545167505323,0.8198780527509297,0.2779728513967036
1729156702.032916,-2.4972427712550718,-2.4036763046715914,9.973295859713213,-0.11710007871523558,0.11827479085193267,0.014047324331973131,0.9859519856934867,1.6688211418929058,0.7639427809247961,0.2659694951586755
1729156702.056321,-2.1639337242764802,-2.2442633389552986,10.059866422077928,-0.10891797853862761,0.10266394044813086,0.0113100881441068,0.9886703551684425,1.6619636605248163,0.5958635584071138,0.21449571502380738
1729156702.071826,-2.275194511909638,-1.9922741911173196,10.22816696018035,-0.09546172544763372,0.10678100850104781,0.010300254445396359,0.9896356804180111,1.6042122239597467,0.46394065040977617,0.15892142337808865
1729156702.087058,-2.384567774040314,-2.0522492888403137,10.166341570151179,-0.09877005627735681,0.1121961806267559,0.01120825838096841,0.9887016071493975,1.5380602974725148,0.3864896658572217,0.10003544470293553
1729156702.103911,-2.4176305887405944,-1.8164924590463756,10.044970437696175,-0.08870375925010854,0.11555174148584882,0.010360958147192026,0.989278569807695,1.4268532112545542,0.31830888199112545,-0.015751564118480305
1729156702.125129,-2.2270179516330284,-1.7301049993536066,9.763612793623563,-0.08702115560030833,0.10981649521262718,0.009652028017722636,0.9900881244678915,1.348209637802841,0.25824435890567626,-0.11800190414390625
1729156702.148347,-1.8344441364583328,-1.5090024661648982,9.352265579006168,-0.07952098624655962,0.09518795562408969,0.007628571502066717,0.9922486940013168,1.3184767862517563,0.1460071240527031,-0.22873215528875748
1729156702.166767,-1.6381647545800777,-1.1991700234001106,8.596928817618545,-0.06892825524743873,0.09290702584888622,0.006447341218057869,0.9932651267248218,1.277649812002156,0.010128683245532094,-0.3658348561783654
1729156702.180976,-1.487117722376953,-1.1830194554463165,8.232551642377768,-0.07101079526532765,0.08812603323651792,0.006298493302289515,0.9935550302846355,1.215267211982275,-0.08714891351286568,-0.4774690909530104
1729156702.203327,-1.332564318728906,-1.1893702657970868,8.441050913405176,-0.06971499878070712,0.07726672000901856,0.005416138284439533,0.9945553470622627,1.0816316980799272,-0.17233394544001232,-0.5614772342762786
1729156702.234547,-1.2087076549580467,-1.074188929497783,8.84866627192006,-0.060222931201703404,0.06721627358199264,0.004064581234295952,0.9959109650478879,0.9601584537767014,-0.24004687699331956,-0.5893205470127518
1729156702.259747,-1.120507287066625,-1.011544472200623,9.705911691862973,-0.051810746070481126,0.057053529465644084,0.002964816813215501,0.9970214397034786,0.819164097360841,-0.3198381215798108,-0.513226101255913
1729156702.274957,-1.2375753842028656,-0.48554065915045186,9.43280601780333,-0.025654545104684727,0.0650741396592874,0.0016735489903757055,0.9975491967300921,0.6796534655827224,-0.4485939800094916,-0.4118040357502835
1729156702.29747,-1.326251595267813,-0.32077307591019294,8.852590944666373,-0.018056561667235335,0.07422596347506154,0.0013441946895898118,0.9970770582395287,0.5597634312915788,-0.567565121090579,-0.3752151299502416
1729156702.321586,-0.7157846217114691,0.2011429073835717,8.678520361477558,0.011576020334648012,0.04112037588741465,-0.0004764452900996906,0.9990870249582742,0.4286584921736702,-0.7194032273555555,-0.44606221986893935
1729156702.350057,-0.25445463166945953,0.4324108005824868,8.72060315316583,0.024766926641018726,0.014562269774467174,-0.00036081163932309083,0.9995871194942114,0.3308394759371336,-0.8232767929584024,-0.5000641054796329
1729156702.375993,0.3728544854026211,0.24340532922644517,8.32471275615731,0.014610955807504532,-0.022365676833325018,0.0003269006091708773,0.9996430310896836,0.24830942275333784,-0.7821582473848369,-0.4843622599008394
1729156702.390705,0.022839171954463302,0.012207324733132725,8.21909902942681,0.0007426180374139536,-0.001389390385179875,1.0317876414357057e-06,0.9999987590551018,0.2017712212732946,-0.5791229842881063,-0.44641991843560724
1729156702.417927,0.03477247778205298,0.5960585830723015,8.300579993827961,0.035835354271953,-0.0020878460244872963,7.486695193164534e-05,0.9993555236641869,0.2117347158553895,-0.3938740072722252,-0.4193976129418476
1729156702.445058,0.20521701450126303,0.9861130856343965,9.646168191609275,0.05091229927834551,-0.010566578806308067,0.0005386976360982779,0.9986470823065469,0.319452737294072,-0.27463650989491795,-0.32443156827511593
1729156702.463708,0.5457068017183359,2.254919744691185,11.58549965519994,0.09594025683941827,-0.022992370240759334,0.002216713596151198,0.9951190402203803,0.3862120004645916,-0.21969592386555287,-0.21211223348501285
1729156702.48003,0.6925398342048297,2.6781424657111947,11.079861135893402,0.1182474819932255,-0.03012241288127572,0.0035887408267381354,0.9925206769552715,0.2828100076541987,-0.176089320711383,-0.040426567552753256
1729156702.499788,1.4196520767924292,3.2143524740556235,11.352044103411043,0.1372706769481083,-0.05927104086578605,0.008228962181000997,0.9887244252805318,0.04453312652268193,-0.10395083218098167,0.19284599081398418
1729156702.519426,0.9367854050110044,3.161864759579858,11.269229953257563,0.13623177336320186,-0.039549986480689484,0.005443091049309513,0.9898722519878631,-0.16696910205161522,-0.07386413096806385,0.38942630400847683
1729156702.542194,0.9125823660534776,3.4677151448104144,10.107913632354927,0.16433725357570697,-0.042002853932321255,0.007004303677560561,0.9854846356380835,-0.3360137552809347,-0.07071126239148427,0.4997120708188558
1729156702.562343,0.49080684028638344,3.922727844210467,9.550226956268425,0.19358045442482588,-0.023299515315378223,0.004598638804397404,0.980796917191267,-0.44297451801753274,-0.052217628848517286,0.5531128290612223
1729156702.579256,0.6294329164276894,3.46837699949503,9.630769518487618,0.1718938716093762,-0.030244305699040457,0.0052799266367949665,0.9846369388006081,-0.5939917481977459,-0.03133057730911037,0.6541150739634913
1729156702.594609,0.7238613099152074,3.103829148915768,9.982200985994913,0.15006636063055853,-0.03416863336774324,0.0051894640009981195,0.9880716883729956,-0.7714428588441284,-0.035825948843947485,0.7794213102470815
1729156702.611549,0.5492384656366244,2.722773566009617,10.394891066450464,0.12769598241247215,-0.025322358953608147,0.0032613348011446435,0.9914846836477369,-0.9140971804562305,-0.046185592871166324,0.8695042041684068
1729156702.634469,0.42195926346400586,2.3409113100159264,10.726062752663246,0.10721077908034196,-0.019096083465432748,0.0020595587606737115,0.994050776702568,-1.0516239609218596,-0.027711355722699792,0.9001409871407902
1729156702.655804,0.17680052511941913,2.2104350648181494,10.895795924303025,0.09990678708175334,-0.007910737405259244,0.0007943358096941233,0.9949650361491742,-1.1400996900617053,0.016577011360418586,0.8725485302863207
1729156702.672818,-0.19511025377600477,2.221692459789327,10.66771483851736,0.10247956510628775,0.008904588230471683,-0.0009174053202232274,0.9946948302929649,-1.165940963612043,0.12147700291930343,0.734245698595498
1729156702.688483,-0.463028292158181,2.0529519150825806,10.026407897251042,0.10078314891185439,0.022488629314571757,-0.0022786620493548525,0.9946516104376585,-1.1303629203668017,0.2784945014377433,0.5533552854447372
1729156702.703079,-0.3891473524921742,1.8312792447526731,9.74888396686625,0.09268876285659869,0.019519749864098837,-0.0018174360768264102,0.9955021193003373,-1.0932655621455618,0.4139969365106243,0.42523929472702726
1729156702.728602,-0.5229473922081951,2.1356962858652757,9.804072682365844,0.10700023285983168,0.025882734948234756,-0.0027864051912102647,0.9939181405657368,-1.0641961062294252,0.5404215440693282,0.3351733083910783
1729156702.750734,-0.798354851340542,2.171821368931275,10.200865143843334,0.10461503828507726,0.03798023403438439,-0.003998175261292908,0.993779256264632,-1.040369081757813,0.6256414899567153,0.2351591899516095
1729156702.770146,-1.102223602942997,2.3491195266810303,9.993140271608734,0.11501302851378399,0.05309950535324782,-0.006156853584954739,0.9919246639524906,-1.0222416565216874,0.6946524400705529,0.009982975040659953
1729156702.784753,-1.6151841031720484,2.1911785580496335,10.165146933961333,0.10562822713877133,0.0765382506777789,-0.008154547398912413,0.9914222496854831,-1.0139193417487842,0.7990611392352363,-0.21622042705878453
1729156702.799143,-1.7896033708387757,2.0188418430817334,10.48526560178305,0.0946226977844864,0.08255806874573667,-0.007874447212008914,0.9920527725025848,-0.9987093914099534,0.8617063587340461,-0.361733339732078
1729156702.819387,-1.722590672405609,1.9398606710345867,10.266970637925299,0.09291093333201109,0.08125037267293338,-0.007607438280033071,0.9923245750714328,-0.975109959116946,0.8056416769116851,-0.48011646182278234
1729156702.839729,-1.5933187515878966,1.913301522249658,9.828817586612601,0.09567023386636858,0.07845297423718171,-0.007563948904839216,0.9922878230948213,-0.9498823581431287,0.7422045635159262,-0.5622142766752177
1729156702.86208,-1.6589288583746131,1.6469325393263572,9.916676299037874,0.081908739419713,0.08140873117611501,-0.006713153821800981,0.9932867211740694,-0.8960080019657934,0.6602962191478817,-0.598276573681356
1729156702.877343,-1.617849746665393,1.3288544198360486,10.198277205203974,0.06453566642379323,0.07777292900349465,-0.005045022077397688,0.9948673615239837,-0.8304795634653539,0.4617340009538819,-0.5705339047554434
1729156702.892305,-1.6327066070324385,1.3022497820285823,9.993263449587229,0.06452878163573865,0.08005311644474866,-0.005193326557525825,0.9946861636955435,-0.7920138804880141,0.28002023100256335,-0.5211101686673193
1729156702.910013,-1.9440083929304004,1.1938708152620714,9.99283832121718,0.05913818543311761,0.09509520437174777,-0.00565944692258725,0.9936938903856177,-0.7655289502099141,0.14161935479089202,-0.453569511544324
1729156702.931557,-2.3161006729652716,1.1889378968720865,9.93081284136312,0.05914134255145486,0.11333283225352357,-0.006758260791500462,0.9917723008058252,-0.7313333194001865,0.03516587568347752,-0.42922133960608405
1729156702.955833,-1.8591633493358033,1.2034558179572363,8.989307586409668,0.06613996948564727,0.10069939667732511,-0.006709277247781631,0.9926933673315607,-0.641428460896039,-0.11554698431922565,-0.48059439596975495
1729156702.971809,-1.303682260089763,0.935157438528248,7.938620916591894,0.05839633638381784,0.08060788188593157,-0.0047307521100818355,0.9950225410809972,-0.554707411060974,-0.29707237347372234,-0.5131209900338056
1729156702.991624,-1.0156440179190922,0.5689953285954643,7.7154626170938085,0.03671724203923487,0.06517674057755178,-0.0023998414624938416,0.9971951049747856,-0.502674781159935,-0.4758007770461935,-0.5224203849971474
1729156703.015304,-0.9589398531342679,0.32798966786040357,7.6215508051195675,0.021458616065181693,0.062468472645286904,-0.0013434219175925209,0.9978153200565141,-0.449745010084748,-0.7328807208243113,-0.536939513265855
1729156703.033659,-0.7683365656891545,0.2884917243002265,7.216368536050257,0.019947564190857508,0.05295849084343716,-0.0010580891163856734,0.9983969017268929,-0.4005338549196925,-0.9607730677241133,-0.5622529026240988
1729156703.054379,-0.6156673666595865,0.2075715384863859,7.058253333544217,0.014684951923307614,0.04346608257141832,-0.0006389703173937171,0.9989467671351854,-0.3182215941993673,-1.237134816023541,-0.6412944454583498
1729156703.070013,-0.3574294116949706,-0.04329061328512159,7.51620537537067,-0.0028789372747320117,0.02375662508031339,6.841342543574098e-05,0.9997136238966461,-0.20583210867079146,-1.530233193380345,-0.7338425176738759
1729156703.092044,0.369488137895127,-0.007299595021854201,6.898418221560292,-0.0005288802858029071,-0.02675186587648931,-1.4153601958451453e-05,0.9996419647841147,-0.1158368440961583,-1.7554722669240233,-0.7932025715563498
1729156703.114902,1.5100127960671543,0.09904975470563748,7.404263157057269,0.006653063161539937,-0.10040924236313085,0.0006714374150635875,0.9949237508324084,-0.046514843138745265,-1.7322590081863543,-0.8701105398476511
1729156703.133977,-0.058855591402676176,-0.3040099591883363,8.078631955513657,-0.018805570788483054,0.003639378122766102,6.845314176904236e-05,0.999816533544213,-0.00023905188821510617,-1.4982492911678826,-0.9307287829121409
1729156703.152513,0.2965229952560505,-0.8889348854251111,9.775643290739835,-0.04532121125794126,-0.015083415946021922,-0.000684380000736627,0.9988583533201927,-0.0001434311329290637,-1.0722054297157764,-0.9390041846943407
1729156703.1731,0.848529682163396,-0.7179538792531136,9.708319059160697,-0.03686438852174726,-0.0434289916102363,-0.0016035892712997618,0.9983748634897038,-0.04989179587081513,-0.7757128669441576,-0.8750076358068115
1729156703.189786,1.9985506620812405,-0.9443285836553837,8.88071101435384,-0.05260994591820236,-0.10970143572058898,-0.005814681148682674,0.9925542695865373,-0.10102531778664836,-0.5688704051017682,-0.8191564139543508
1729156703.211805,3.200204144807338,0.752847384718879,10.351461691620116,0.03587028530769894,-0.14889059861613227,0.005404586740053578,0.9881880907589624,0.009623669469246206,-0.5226662092438864,-0.7707465286917032
1729156703.239405,3.916407831122684,-0.4279212591100789,11.807562815753318,-0.017870468472280306,-0.1593273972963363,-0.002884582217329041,0.987059828993556,0.1858410976799871,-0.5243163059700374,-0.7119022932317725
1729156703.263745,3.3278760768474385,-1.0334317740207348,11.91005113549691,-0.042848321453382875,-0.13520581953103183,-0.00585261002997675,0.9898733023318724,0.3209441688473118,-0.2375398824573947,-0.6736159215255798
1729156703.282566,1.7412643289697909,-1.8978444904378315,12.640723491356741,-0.07426576035247616,-0.06745576690682259,-0.005035123039329497,0.9949416886864576,0.379870128351681,0.11544424777155432,-0.6698001512676556
1729156703.302014,0.8197036413271871,-1.8727689232666052,12.483449531825762,-0.07434538250764568,-0.03232727329496808,-0.0024113275648642582,0.9967055217066269,0.4135229438084544,0.34766784885910124,-0.679430010833838
1729156703.328264,1.129876927227953,-1.5957979213427755,11.123988998880614,-0.0710885376230733,-0.049954604345191625,-0.0035647030422006646,0.9962119504480706,0.43328894302105636,0.41080348850992576,-0.7409733246250736
1729156703.344492,1.2604354202527872,-0.7791107291240247,10.256597923254148,-0.03782582215279811,-0.06088314467707671,-0.0023088998546928596,0.9974252447447658,0.47154132635926355,0.46911799525059794,-0.7838589737602832
1729156703.362533,1.1745282821809693,-0.5855005793201179,9.598496682419286,-0.0303986544283395,-0.06070286702332484,-0.0018495557945945808,0.9976911660867093,0.5796307686545942,0.5351820737817297,-0.7167899298426863
1729156703.384979,0.9146884549042846,-0.3714116415373832,8.940752595633212,-0.02072928790726489,-0.05089880809174679,-0.0010566936592959005,0.9984881027614739,0.6512954750151851,0.5995105444652065,-0.6182289650718298
1729156703.401232,0.6266246268976488,-0.15413339727594555,8.866210905524458,-0.008685571533303075,-0.03526517105320076,-0.0003065003948878274,0.9993401996393602,0.6696042752667417,0.6500269485962294,-0.4956645670514731
1729156703.423335,0.3778901374667143,0.15244679146841708,8.555011246683815,0.00890647813630156,-0.02206538050415706,0.0001965804932724964,0.9997168374027338,0.6678188535738148,0.5896648079834306,-0.42382868848510724
1729156703.443737,0.24660595625932547,0.18196889763495652,8.286409754602085,0.010976712519761728,-0.014870726472269375,0.00016325958092221405,0.9998291587180055,0.6548282788371217,0.524500599436333,-0.38328130171405994
1729156703.461053,-0.015320979467060977,0.15131928779972392,8.318939773659688,0.009093733955962443,0.0009206577422492582,-8.372566317309085e-06,0.9999582272885003,0.6278778812293144,0.493064495414391,-0.3461821678075706
1729156703.483493,-0.21796697244586158,0.06469477458413121,8.193608584654797,0.00394742518373896,0.013296990373320496,-5.249392469150938e-05,0.9999037979354907,0.6176673035250986,0.4801624938616943,-0.3251997576480631
1729156703.504423,-0.35080731603587634,-0.15990187304249,8.337239902990143,-0.009586090921085585,0.02101979710596223,0.0002015514840080128,0.9997330815610116,0.6323997699142085,0.48008371403639283,-0.33900309536300455
1729156703.537674,-0.4302721020238696,-0.4203554487766659,9.039446781149554,-0.023225524500805395,0.023747463292896412,0.0005518519062353395,0.999448011883704,0.6723146242344029,0.4830162765714462,-0.3945366948142549
1729156703.559904,-0.46214924265963425,-0.5632200649202964,9.70713425887528,-0.02896558432599246,0.023734578786813693,0.0006879686568158066,0.9992983495401129,0.7128654492235387,0.47030235200276915,-0.452972568111265
1729156703.583365,-0.4896552328516399,-0.6305034818232716,10.37015124746384,-0.030349122539892817,0.023534906502976734,0.0007147912833400413,0.9992619916770455,0.7635887280276661,0.42776741222167625,-0.5672124435214089
1729156703.605782,-0.46066899542387457,-0.49896985276583794,11.33849969623221,-0.0219826820922688,0.020277301738458604,0.00044594899679543205,0.9995525968410717,0.8025364965393833,0.38479315583307727,-0.6932245270648696
1729156703.632573,-0.3563677327035435,-0.4727221118548153,12.36842157677253,-0.01909752641534767,0.014388745969445399,0.00027486805597185134,0.9997140455759305,0.8254794675849515,0.3177166660381008,-0.8790855031096121
1729156703.657652,-0.5904285607647042,-0.49695663503281096,12.535785952655315,-0.01980415348275044,0.023507108906362817,0.00046575851693656764,0.9995273855201268,0.7975276241890134,0.2991809652956785,-1.0557326681401484
1729156703.676911,-0.7634262001795257,-0.4025611734024991,12.728141921934986,-0.015800527008514424,0.02993066285918406,0.0004731913982189642,0.999426973248653,0.7509582138491082,0.31360094853794707,-1.173640288879407
1729156703.692454,-0.6598869200588872,-0.16851355340673382,12.497353943444196,-0.006739071201859275,0.026370520648016954,0.0001777786822398368,0.9996295058444549,0.640007005660069,0.346517271986644,-1.2345939899093357
1729156703.714476,-0.535274688656426,-0.2294373410284153,12.122094612160268,-0.009459935732719582,0.022057417766060256,0.0002087218816993427,0.9997119266931862,0.5223534733712016,0.37307810703925465,-1.2524358478229634
1729156703.736191,-0.49378675289112123,0.027298089767716454,11.396072026085223,0.001197402786442601,0.021649466480946008,-2.592922730948965e-05,0.9997649054429409,0.39003629508588666,0.3919944385010553,-1.2005645235362215
1729156703.762705,-0.18374457370732897,0.12220256723953611,10.767725240797617,0.005673995127829745,0.008530572772240215,-4.840496888184382e-05,0.9999475150048756,0.3132001284834699,0.4016414771322875,-1.1192103017116564
1729156703.781418,0.09302097672286826,0.4891943687128623,10.681133831002008,0.022881712858930186,-0.0043486301843952855,9.953110834992144e-05,0.9997287165655088,0.2551791068010829,0.42062609221634983,-1.0354911835770308
1729156703.802183,0.11375226620950221,0.5643008289913893,10.957424032732064,0.025723777444541667,-0.005181854274645777,0.00013334278274475633,0.9996556496513999,0.12884313057731395,0.469903276736908,-0.8286057700782279
1729156703.826222,-0.1347769410555487,0.7779165020335053,11.298932555625568,0.03436269903789378,0.005946229651936476,-0.00020445286499257354,0.9993917177297317,-0.006980753823093877,0.5199027103994205,-0.6065658078426789
1729156703.852469,-0.22930666756301668,0.849343326513072,11.082458177174168,0.03823306963624643,0.010306042360680227,-0.00039434094699698666,0.9992156235629361,-0.2319326351760433,0.3915456677330522,-0.21835348368559251
1729156703.875544,0.14541063569265875,0.9513362022066714,10.146445851128721,0.04672535572081295,-0.007125967583831406,0.000333335939563464,0.9988823006770663,-0.5005704432868908,0.17149958148198857,0.1367469584482624
1729156703.893531,0.8301671565620796,0.4369658485212684,9.267606735530746,0.02353088968253488,-0.04459293877944542,0.0010506484500885033,0.9987275219896543,-0.7145386957746913,0.06927023403369265,0.3578953348963539
1729156703.910208,0.6242747214274822,-0.20325329362161393,9.30150413531259,-0.010917498857635101,-0.03349124191130082,-0.0003658676846554992,0.9993793129111537,-0.9599844141694301,0.29016513631404206,0.6378731220310718
1729156703.931095,-0.41456403433101074,-0.1978481687999215,9.453523666490288,-0.010459925792620013,0.021904647545752547,0.0002291885254601041,0.9997053185018718,-1.1608887929504894,0.5431723650760066,0.919519040722265
1729156703.955013,-0.3112270839286846,-0.25948795889714044,9.457347024601203,-0.013713056588473996,0.016439842327194493,0.00022549217316792123,0.9997707901396891,-1.3708263331261517,0.6796518601205523,1.2277072420350652
1729156703.980218,-0.3581610892243982,-0.2191391193324249,9.47017552677244,-0.011565490649409642,0.018893499595891126,0.00021856623265996305,0.999754583549313,-1.5248844012880431,0.8177306452602678,1.4428441571865496
1729156703.994915,-0.44090929025338893,0.11392219856656069,9.385456443993151,0.006067007810476617,0.023467393851602757,-0.0001424187068099634,0.9997061831152958,-1.6147651018164058,0.9554919342726992,1.595764949719314
1729156704.013822,-0.7175285282535958,-0.0017967895026417048,9.457926379823625,-9.491775164072709e-05,0.03785108659604184,3.5953164897524407e-06,0.9992833863430298,-1.6797614637314364,1.1552134745822167,1.7530736947041254
1729156704.041031,-1.1020906826259855,-0.33961818844767877,9.478663425550424,-0.01787511044011083,0.05779717909559771,0.0010350273686066422,0.9981677690817768,-1.723441871556537,1.338048527864308,1.870446205013962
1729156704.061028,-1.5238852677298882,-0.3754351721018104,8.820010927644708,-0.02118791115779285,0.0853442072966891,0.001815300566497995,0.996124562183627,-1.705378349859546,1.5175627299133359,1.9766276763626747
1729156704.077726,-2.1277125620051205,-0.43714795018491437,8.744445350532137,-0.024787842810526855,0.11887925950335841,0.0029687444937647484,0.99259481716603,-1.6162132655323376,1.6005812275779547,2.0339512082499716
1729156704.092504,-2.5309497869589315,-0.7940409588316518,8.457052216422797,-0.04628096409590221,0.14412901360088545,0.006748352844065641,0.9884530133166076,-1.516739688298113,1.609951770337833,2.032161672158077
1729156704.109126,-3.1909197317944993,-0.9507159241759443,8.695461340840007,-0.053558200495017465,0.17374693428113758,0.009463737529752148,0.9832873230442919,-1.3893708221851153,1.5291590135169675,1.9591463301158571
1729156704.132465,-3.4556994477192777,-1.188851843323926,9.033155410461035,-0.06426463016626818,0.17988559595772396,0.011777992609884609,0.9815154143296012,-1.2848539584608227,1.4398171135240934,1.8961810721247336
1729156704.1542,-3.8123283344030505,-1.3132980420295117,9.32723035565162,-0.06854003760320783,0.19064303816862407,0.013344611597492275,0.9791728226337266,-1.1616958514986386,1.3049051717891207,1.849462426039357
1729156704.171933,-4.104356640534409,-1.0776772260966132,9.593936725353862,-0.05472596075943149,0.19932976574459085,0.011150026879806393,0.9783396090355042,-1.0388466302531945,1.2026735036750356,1.819728478142283
1729156704.186665,-4.181171935980802,-0.8472404347790617,10.001520998835362,-0.04138622720989013,0.19589755594243805,0.008275319855870454,0.9797156969521279,-0.9370415534494339,1.1524024444045973,1.7852861970070193
1729156704.203636,-4.361336406217387,-0.7173580657990776,9.924769700131296,-0.03526871773543728,0.20494074468630008,0.007389752815442047,0.9781108323038087,-0.8180646590083414,1.1503353528988285,1.7356739041464428
1729156704.231139,-4.628410078593714,-0.5079869732685091,9.91511078614323,-0.024958149161950802,0.21632260549991061,0.005531846975353203,0.9759872026871977,-0.7134746975496473,1.1776163321133233,1.680790814803837
1729156704.252209,-4.534629485876931,-0.5027926612560274,9.68449990186172,-0.02528708866524959,0.21688711429957877,0.00562015389398511,0.9758529380331061,-0.5779277201644235,1.2514530779393944,1.5622972588444055
1729156704.269179,-4.497514743528111,-0.5806000901618195,9.343105070511562,-0.03021654607493685,0.2219673921306627,0.006882159912569021,0.9745614773060506,-0.4238065332232818,1.2974578856808852,1.4201108850045872
1729156704.283813,-4.73190431608757,-0.5755697916459198,9.238106380929985,-0.03020284028838651,0.23398768795309388,0.00727259369410337,0.9717431037603715,-0.30238689687917863,1.3199524895882353,1.330967850147538
1729156704.298656,-5.065750133597853,-0.56872088988013,9.194979040960334,-0.029865655826709057,0.24861632820626073,0.00766966677658663,0.968111119739265,-0.20143957101622265,1.3074821581834615,1.272373748495764
1729156704.318414,-5.199019977619649,-0.6280578928147968,9.252181434585967,-0.032731334875699,0.25257026097005025,0.008549196522061112,0.966986987621655,-0.13618858482236673,1.2702016550382549,1.2180612347389084
1729156704.337879,-5.146821952392101,-0.6145789605423937,9.281235627109002,-0.031955701426747654,0.2498806570192893,0.008251520175894709,0.9677140087901589,-0.08384160120073018,1.192919335222529,1.1441817905229779
1729156704.357123,-5.075519969530964,-0.6412075252512175,9.248150487593525,-0.03347458400862323,0.24770258769086617,0.008563903840213959,0.9682197786802922,-0.03412873838488091,1.1380361421038527,1.0875091122110205
1729156704.377094,-4.9898825700974845,-0.49581547218198047,9.089196287429163,-0.026353183842164504,0.24801035996800433,0.006749307087414905,0.968375349698536,0.004212780533869288,1.1080860566628812,1.052654125100922
1729156704.39331,-4.900192903874897,-0.4397048619224695,9.050566346676247,-0.023493981490399277,0.24526836207530028,0.005945743069082864,0.9691522643723146,0.04807650489675895,1.086710484906602,1.0083281794544512
1729156704.414982,-4.861223154434313,-0.4172912435694973,9.100172112693247,-0.022193345177243085,0.24258395451090092,0.005551054656674982,0.9698606426883687,0.09057096185004995,1.0721823816069864,0.9753472611446381
1729156704.434957,-4.95132646346137,-0.38181641728427657,8.945821464637433,-0.020617855819951302,0.24982933700909007,0.005320918100443888,0.968055728882152,0.1582109521067657,1.064316899750141,0.964072511387991
1729156704.455517,-4.936674861231118,-0.2700306987592378,8.86805512609691,-0.014708999130999182,0.251132924500095,0.003816684027538177,0.9678333185521295,0.25541172443524535,1.0391644876858563,0.9390029888911353
1729156704.473715,-5.001864731191796,-0.035125731267261456,9.034479270726505,-0.00187929799329574,0.2501307971593959,0.00048550443790618917,0.9682101098609218,0.339273591520055,0.9887407653459369,0.9026767723199204
1729156704.491088,-4.717282588715078,-0.052439480508403746,8.664591391781606,-0.0029281709073984037,0.24670068111884536,0.0007454250707607648,0.9690870157483789,0.4317340278556819,0.7997041390166474,0.8476772175831528
1729156704.508633,-4.38875541382475,0.11625855412659837,8.568354251572869,0.00658599023975554,0.2344548954707463,-0.0015884294477919818,0.9721033914220507,0.5067920324843115,0.5521897938585337,0.8142517946796304
1729156704.528484,-3.9328259094276627,0.14301770327674027,8.799113267496455,0.007939343966690151,0.20858571711310436,-0.0016933373026735725,0.9779703973242595,0.5965242917150025,0.16486906228346587,0.8099470732116121
1729156704.548421,-3.769401483156597,0.0604320843683879,9.561018789355295,0.0031023340894841466,0.18666277703967432,-0.0005894534950928645,0.9824189715877901,0.7108116359810257,-0.10157858157853739,0.8282230533424406
1729156704.566962,-3.588507449952552,0.04296301526947024,9.75647586101552,0.0021661893652980646,0.17531246210159726,-0.0003857348754688233,0.9845103856557916,0.8070538965356717,-0.24569663562164412,0.8528107233877229
1729156704.590102,-3.2264250742195784,0.2857881094546509,9.708550189460874,0.014516810463744085,0.15965439872695436,-0.0023480483292631846,0.9870634335493023,0.9205646509199854,-0.3172683158963371,0.8590495241856515
1729156704.605768,-2.9383072796391687,0.08623928657122802,10.037488514555431,0.004250449840542568,0.1419015373971649,-0.0006093168544358783,0.9898714644303295,1.0108069867465992,-0.35042045264752614,0.8483193425746995
1729156704.629799,-2.6375862342385794,-0.10507663679749756,10.64833013632115,-0.004895954775728363,0.1211010308333379,0.0005973085691028081,0.992627932903568,1.09900759315953,-0.29326183357361185,0.8797676490782492
1729156704.650103,-2.834479788638851,0.3322367120132984,10.289392006353236,0.01598685319141176,0.13391650161219928,-0.0021606489663903734,0.990861303471394,1.1604417582365292,-0.17808555045147725,0.979943434719627
1729156704.664653,-2.843679745741904,0.9006036934677447,9.779063483841238,0.045427726358610546,0.1403151346794625,-0.00644481206690026,0.9890431987811219,1.187511385869102,-0.07535026572269601,1.0523939178868527
1729156704.685954,-3.0922111885095953,1.1944581096353342,9.527214748019587,0.061534177329404666,0.15484787935991326,-0.009663996044809392,0.9859727615195955,1.1960907413423292,0.016940589539839013,1.0286051780761871
1729156704.702714,-3.1752500883498977,1.5134651782812005,9.269563532649642,0.07971659763908623,0.16175211454437638,-0.013110400668951982,0.9835190058639287,1.2080493956096579,0.058693020730575016,1.0011355422844648
1729156704.719155,-3.3653736455392353,1.9617672576034861,9.203797685019472,0.10320135527386912,0.16993960123644675,-0.017898248276613078,0.9798722696912403,1.242468752103625,0.055223245327060494,1.0527641706433564
1729156704.736848,-3.778722987372369,2.379667848458576,8.40920697282809,0.13447043480951698,0.2007183178834492,-0.027826099796692053,0.9699770962235565,1.2452413834186,0.060803801191268346,1.079484447044071
1729156704.756877,-4.19576322967928,2.440308591155224,8.370112608989823,0.13766545750544745,0.22016157476756043,-0.03140175028211275,0.9651896357115028,1.2337085703022619,0.08926784833605292,1.0725293495655501
1729156704.778508,-4.006172530092724,2.4920159273982128,8.54920545113608,0.13805282594203358,0.20770418091479476,-0.029623654166754294,0.9679477411481165,1.208909899851054,0.08335901330397397,1.0377066066531713
1729156704.794767,-3.8950517321669627,2.4940704890561154,8.545091359060555,0.13838090727258637,0.20271742552612543,-0.02895031981255465,0.9689779403439619,1.1812599957364682,0.03426487570828921,1.0048936391848073
1729156704.815101,-3.9035571855404116,2.4455038315196065,8.673106894293754,0.13400298267655406,0.20106184158271626,-0.027776972022513047,0.9699720492459638,1.115715696199583,-0.004556788201286341,0.9592387649546048
