Time,Accel_x,Accel_y,Accel_z,Orientation_x,Orientation_y,Orientation_z,Orientation_w,Gyro_x,Gyro_y,Gyro_z
1730089728.8071814,-0.4842869838545699,0.03922830601634516,9.930649357926933,0.001974491615826454,0.024361500208036714,-4.811595189761442e-05,0.9997012635659355,-7.377375265045306e-06,0.004633706985680968,0.005397084367846405
1730089728.8148766,-0.484023684453367,0.047718420377385225,9.92701828663116,0.002402699460272173,0.024357054934616193,-5.854021941210131e-05,0.9997004338716966,-4.426425159027184e-06,0.006611434744566866,0.007069461173866127
1730089728.8229418,-0.48171092331850457,0.04706640500963426,9.922445442193538,0.002370968446589937,0.024252038770939843,-5.7517897893656865e-05,0.9997030628220409,-2.65585509541631e-06,0.009075141584284498,0.009349957441864055
1730089728.8308868,-0.4525505273797745,0.03039462449992118,9.919222895198937,0.0015316877447328458,0.022793877605307992,-3.492221726713576e-05,0.999739011871001,-1.5935130572497859e-06,0.009701985565191015,0.011569635325586875
1730089728.838934,-0.43122356716028654,0.015842573039796456,9.919444148496314,0.0007983648235224682,0.021720856503556537,-1.7345265493711882e-05,0.9997637554470067,-9.561078343498715e-07,0.010929472076658987,0.013327132117282599
1730089728.8469477,-0.41866681119460947,-0.016830674437840875,9.905690530845835,-0.0008493477715599088,0.021118463232381198,1.7940927339424517e-05,0.9997766194491591,-5.736647006099229e-07,0.012517344106463834,0.01353025006937597
1730089728.8548975,-0.41304811894332816,-0.0280549171138764,9.907972847560236,-0.001415451078071832,0.020830555748616867,2.9491061110819553e-05,0.9997820180297937,-3.4419882036595374e-07,0.013895757385808774,0.013226430779169962
1730089728.8629835,-0.40752212209841876,-0.044366269360122716,9.911257598917,-0.002237667418132075,0.020545271042853135,4.598330479362953e-05,0.9997864184753847,-2.0651929221957225e-07,0.015999875537801835,0.01134137895919823
1730089728.87101,-0.41833231378639496,-0.03954845058091738,9.910115987572857,-0.0019948840244812774,0.021092030746998138,4.208560140946931e-05,0.9997755472632339,-1.2391157533174334e-07,0.018539416613383763,0.006804827375518938
1730089728.8790348,-0.4298462522855089,-0.03450297781925355,9.919965508071057,-0.0017386355883402707,0.02165031307974624,3.7650886964227305e-05,0.9997640920098354,-7.4346945199046e-08,0.020063141258732924,0.0040828964253113624
1730089728.8870697,-0.4674003966349772,-0.021898887521630255,9.922762758211777,-0.001103147424401542,0.023532288778794416,2.5966790362092937e-05,0.9997224683762576,-4.46081671194276e-08,0.02182875616886648,0.002449737855186817
1730089728.8953767,-0.49280592523684563,-0.005477887200478154,9.91223067982941,-0.0002762309226563629,0.024835467692296026,6.862441122153312e-06,0.9996915140151432,-2.676490027165656e-08,0.023313815176408646,0.0014698427131120903
1730089728.9029357,-0.5125982255522636,0.0060506541543224835,9.922910264587099,0.00030477742058894713,0.025803217718764482,-7.866857841775498e-06,0.9996669950559509,-1.6058940162993934e-08,0.024630540642395976,0.0008819056278672542
1730089728.9110892,-0.527346647733702,0.01799560245353099,9.912079763488588,0.0009074266642678177,0.026572972218307553,-2.412155137465956e-05,0.9996464640774182,-9.63536409779636e-09,0.025420575921988375,0.0005291433767203524
1730089728.9192445,-0.548884969841393,0.027556773093212344,9.913242908141982,0.0013893401707788379,0.027652532956790137,-3.8433509139943235e-05,0.9996166293523877,-5.781218458677815e-09,0.025468907028281786,0.00031748602603221145
1730089728.92711,-0.542414929658742,0.027068551160614907,9.916334996594173,0.001364312924627133,0.027318812644156237,-3.728535987098673e-05,0.9996258398699781,-3.468731075206689e-09,0.025072215630595796,0.0027446319843915166
1730089728.9354405,-0.5363781240550108,0.020071853352618945,9.912444165681112,0.0010120711273667955,0.027026074479742757,-2.736231835892569e-05,0.9996342162318935,-2.081238645124013e-09,0.024408510730522172,0.005052299682331163
1730089728.9430792,-0.5483183514837878,0.006775868359227617,9.916334591449685,0.00034151628135718667,0.027615584613714977,-9.434770576564183e-06,0.9996185586332706,-1.2487431870744079e-09,0.024010287790477997,0.00643690030109495
1730089728.9510362,-0.5303433705094133,0.00215015968741157,9.915316964586607,0.00010838591947333911,0.026715002439586064,-2.896563930986227e-06,0.9996430847501299,-0.0017027609950940386,0.023771354026451495,0.00641628054942916
1730089728.9590278,-0.5312899700595541,-0.009962651990287433,9.909678564982434,-0.000502485147666374,0.026777761727311066,1.3460255950574952e-05,0.999641285063984,-0.0027244168429045494,0.02320230370657356,0.005978218636967654
1730089728.9670095,-0.5452654590865138,-0.021539901985188084,9.907732046216022,-0.0010865957863310698,0.027485894408983972,2.987736262982474e-05,0.999621600419618,-0.003337410351590856,0.022009493391722736,0.005289691428028719
1730089728.9750605,-0.5433556853640177,-0.0335140754684566,9.89818442914563,-0.0016922714079272941,0.027416087942297475,4.6412974521967066e-05,0.9996226749055155,-0.0020024462109545136,0.020868117141350208,0.0031738148568172314
1730089728.9831038,-0.5357454766480981,-0.04572640304474584,9.888864556413159,-0.002311115858568958,0.027058201342628464,6.255771036959707e-05,0.999631186273279,-0.0012014677265727081,0.020183291391126693,0.0019042889140903387
1730089728.991089,-0.5362071749048745,-0.034379026641300624,9.893328279746335,-0.0017368153200262254,0.027069433738920262,4.703191281140218e-05,0.9996320458136572,-0.0007208806359436248,0.019772395940992584,0.0011425733484542032
1730089728.9990294,-0.5235555048940965,-0.036189726775796,9.912765925367333,-0.0018247402790635048,0.026380349357636692,4.8154124995038876e-05,0.9996503114448888,-0.00043252838156617487,0.01910016860945009,0.0006855440090725219
1730089729.0070753,-0.5092607382391923,-0.032487743536180724,9.937596621870789,-0.0016340239416504456,0.025597571150641447,4.184081006278869e-05,0.9996709921600669,-0.0002595170289397049,0.017845452087600525,0.0004113264054435131
1730089729.0150807,-0.520316331859531,-0.012788881473270935,9.930947224831458,-0.0006436605561533042,0.02616976585319441,1.6850220518559294e-05,0.9996573056664706,-0.00015571021736382294,0.01751831223595282,0.0002467958432661079
1730089729.023218,-0.5264708476997029,0.025366654026193692,9.92097208245747,0.001277965642154377,0.02650515212569649,-3.388460590617896e-05,0.9996478592816795,-0.0017961863762664201,0.018173408447888263,0.00014807750595966472
1730089729.0311208,-0.5495565906510718,0.03509186619501309,9.914268736535028,0.0017690519684830357,0.02768335010593834,-4.899213834750074e-05,0.9996151760461699,-0.002780472071607978,0.018140776113587494,0.002217296810885957
1730089729.0394528,-0.5772944060507993,0.03039250619161723,9.914556291969845,0.0015320420335800887,0.02907637242839862,-4.4565119560284366e-05,0.9995760178333424,-0.0037967335502749455,0.01684412652862094,0.0034588283938417324
1730089729.0470824,-0.6025562212671983,0.04552940264075158,9.926220993199484,0.0022922765438898873,0.030309503759635502,-6.950988291816657e-05,0.9995379305551476,-0.005257870560399188,0.014363376531792881,0.0020752970363050395
1730089729.0550654,-0.6201075120571938,0.0517384985180447,9.93250155343922,0.002603162163267894,0.031170038985892677,-8.118038742697455e-05,0.9995107031073326,-0.006134552766473734,0.012874926533696044,0.0012451782217830236
1730089729.0630405,-0.62632872354291,0.037986283925279946,9.912806713313532,0.0019150183291372,0.03154443372476925,-6.043835687024225e-05,0.9995005141334284,-0.0053834919057323665,0.011981856534837944,0.0007471069330698141
1730089729.0709999,-0.6271884084421522,0.005314098236027339,9.911763716708823,0.0002679310703906083,0.031591199023157386,-8.468490921778917e-06,0.9995008375611826,-0.0032300951434394197,0.01102032447406105,0.00044826415984188845
1730089729.0790854,-0.626746538717635,-0.013570952679477347,9.913771540572169,-0.0006840943768647211,0.03156260301078778,2.1602567198592853e-05,0.9995015425898031,-0.0019380570860636518,0.009592025114670851,0.00026895849590513306
1730089729.0879524,-0.5879347701544091,-0.022268361402608284,9.88528813430424,-0.0011258196318132117,0.029698415407436028,3.344983488817115e-05,0.99955827020417,-0.0011628342516381911,0.005755215068802511,0.00016137509754307982
1730089729.095386,-0.5629717678543642,-0.03634535277906497,9.875620115689964,-0.0018393704217504444,0.02846820688457954,5.238489810784289e-05,0.9995930047619634,-0.0006977005509829147,0.0034531290412815065,9.682505852584789e-05
1730089729.1030824,-0.5228548490426966,-0.07304312719478273,9.890648858964761,-0.0036911202519640364,0.026403228950563348,9.749214622738072e-05,0.9996445546430747,-0.0021213805764378753,0.002071877424768904,0.00303792546534973
1730089729.1111064,-0.48274354663264923,-0.11660960678561963,9.908285230906198,-0.005882331156586891,0.024336844709169775,0.00014320227398627,0.9996864986899017,-0.0034012786531728836,-0.0004596337909867842,0.0073567260782162495
1730089729.1190362,-0.4483816980479489,-0.13101790640535615,9.91407865075075,-0.006605482370216798,0.02259359642973305,0.0001492829693615158,0.9997228989663196,-0.004169217499213888,-0.0002757802745920705,0.010799386568860224
1730089729.1271546,-0.4430874795221287,-0.13822636518110432,9.918033542989512,-0.006966123397565787,0.022318063454883557,0.0001555128951618949,0.9997266391290037,-0.002501530499528333,-0.0001654681647552423,0.013716362986170672
1730089729.135117,-0.43224950309413657,-0.13273521363991256,9.914660394348395,-0.006691784679878448,0.021780547632888864,0.00014578858612532522,0.9997403695501637,-0.0015009182997169997,-9.928089885314537e-05,0.015466548836556942
1730089729.1431,-0.44633685151468505,-0.11100516993199441,9.924128673132474,-0.0055909602065806075,0.022468668004510597,0.00012565511606196287,0.9997319062292968,-0.0009005509798301998,0.0024945718294603026,0.015239590162402606
1730089729.1511483,-0.45263447907287346,-0.0891085975646654,9.929570220236906,-0.00448568615570248,0.02277336784178849,0.00010218171016727059,0.9997305846555627,-0.0005403305878981198,0.004050883466448371,0.014677724896447975
1730089729.1591244,-0.4686234840745835,-0.047000814056377356,9.920864140198784,-0.0023680803027782676,0.023598014010726236,5.589771496966443e-05,0.9997187218442368,-0.0003241983527388719,0.004984670448641213,0.0130635355524891
1730089729.167065,-0.4921032567045157,-0.0016248500060920357,9.92282309715638,-8.184824559407449e-05,0.02477370075718606,2.028306468780824e-06,0.9996930814242659,-0.00019451901164332315,0.005544942637956917,0.009966571638803618
1730089729.1752295,-0.4930230111516157,0.03589579556275103,9.918252387346561,0.001808993480881627,0.02483113228594102,-4.4933284751026196e-05,0.9996900221533593,0.0015860488388621324,0.006306796013008371,0.00597994298328217
1730089729.1830707,-0.50482761162261,0.06630904838257248,9.921734885777076,0.003340426938829483,0.025415125376650236,-8.492527600274638e-05,0.9996713988794783,0.002654389549165406,0.00804097822242534,0.003587965789969302
1730089729.1910603,-0.5107132710751285,0.08743004206665286,9.911135116036558,0.004409049359384615,0.025737760267166534,-0.00011351776504322699,0.9996589994062443,0.00329539397534737,0.008655797486613489,0.002152779473981581
1730089729.1990192,-0.5243003137192959,0.0926806131306167,9.89926859037389,0.0046793273382147735,0.026452517082799956,-0.0001238246732716367,0.9996391113312325,0.001977236385208422,0.007747618860740283,0.0012916676843889485
1730089729.2072961,-0.521199791503062,0.0745225609936044,9.907950405933315,0.0037593154955399984,0.026273926863651806,-9.880678930563973e-05,0.9996477072205923,0.0011863418311250532,0.006351331562292296,0.0007750006106333691
1730089729.215037,-0.5284374444819153,0.054290343236787636,9.920102680083428,0.0027353418907437514,0.02660588858501098,-7.280224617869097e-05,0.9996422556580807,0.0007118050986750318,0.0038107989373753776,0.0030191407351522113
1730089729.2232578,-0.5299069942770398,0.03401072693816633,9.923084481585212,0.0017130758448120013,0.02667202311332101,-4.570752665369551e-05,0.9996427694256655,0.00042708305920501906,0.0022864793624252267,0.0081968353630218
1730089729.2310662,-0.531746404818177,0.0029287640437591703,9.907874730699174,0.00014774456971408401,0.02680560144096571,-3.96180570835534e-06,0.9996406543789795,0.0002562498355230114,0.0013718876174551359,0.01300621238559168
1730089729.2390897,-0.5378778746291875,-0.014762733028822623,9.910959308634348,-0.0007444828899372219,0.027105558278550063,2.018704714947765e-05,0.9996322994222014,0.00015374990131380683,0.0008231325704730815,0.01589183859913361
1730089729.2470384,-0.5501758824923562,-0.025377631272371696,9.909697593237249,-0.001279929108771579,0.027727332421013526,3.5502698938027565e-05,0.9996147035522485,-0.002036200366521874,0.0004938795422838489,0.01592045408141064
1730089729.2550564,-0.5491749813997105,-0.030310049222407393,9.911574185825161,-0.0015284086318933408,0.027671729384929924,4.2309961518411675e-05,0.999615895016565,-0.002924480465761251,0.0002963277253703093,0.014234863124928731
1730089729.2630184,-0.5464196592499826,-0.03925500414281943,9.90216565407322,-0.0019813476506251103,0.027559202775151292,5.462521714651805e-05,0.9996182079273922,-0.0017546882794567504,-0.003227723856474067,0.008540917874957239
1730089729.2710776,-0.5500337096124895,-0.03648169145053541,9.90561850133065,-0.001840718639034073,0.027731451352215154,5.1065525326393835e-05,0.9996137132678321,-0.0010528129676740502,-0.005342154805580692,0.005124550724974343
1730089729.2790017,-0.5249082409042125,-0.034817703835165,9.92516788180425,-0.0017533661544977205,0.02641540435423928,4.633211472975402e-05,0.9996495135662626,-0.0006316877806044301,-0.006185123313582636,0.0009462801276744473
1730089729.287027,-0.49211586739408997,-0.029988588609692748,9.917504476641142,-0.001511413613048593,0.02478745507544498,3.747565450349965e-05,0.9996916005925769,-0.00037901266836265805,-0.0062652143569217715,-0.00156068223070549
1730089729.2951493,-0.48082014909856335,-0.03211894296073752,9.911469912547187,-0.0016197902981032626,0.024234211434180586,3.9265924193374686e-05,0.9997049953529995,-0.00022740760101759482,-0.006738959044387284,-0.000936409338423294
1730089729.303056,-0.4577621468321849,-0.03531251689948938,9.921974963885733,-0.0017790103242856944,0.023049526192994448,4.101630705767328e-05,0.9997327406773308,-0.0001364445606105569,-0.006171825733942529,0.001992294765718213
1730089729.3110642,-0.43267459766962335,-0.035552720100631124,9.926362633360737,-0.0017903727850380141,0.021778533387372876,3.900100630064196e-05,0.9997612157548957,-8.186673636633412e-05,-0.005405855686213643,0.005877967535513276
1730089729.3192456,-0.4092423623615396,-0.03330264036115992,9.933783638366052,-0.0016758549352719734,0.020585273997233273,3.450529315105174e-05,0.9997866956576684,-4.9120041819800475e-05,-0.004946273657576312,0.011614891689086566
1730089729.3270226,-0.38129665154778314,-0.026685348865133456,9.92506813223838,-0.00134407951591701,0.019198059537115432,2.5808498393503653e-05,0.9998147964969241,-0.0017322322709400065,-0.0029677641945457874,0.0171854964885407
1730089729.3351111,-0.3726695107040605,-0.005476722014392573,9.930373315866465,-0.0002757056272442336,0.01875421929355232,5.171553541769447e-06,0.999824086136332,-0.00274209960841213,0.000347791790582686,0.020953549429675207
1730089729.3430307,-0.3864074193130613,0.0019812104437082066,9.914402812762066,9.989606117666785e-05,0.019476085717087515,-1.945953362482331e-06,0.9998103180614465,-0.001645259765047278,0.004039885627507896,0.021937311009969818
1730089729.3510518,-0.395129004810493,0.0066953900845842995,9.907214712559584,0.00033783490593183895,0.019929589369191883,-6.734248850361899e-06,0.9998013289097998,-0.0009871558590283666,0.007106522052587085,0.020824807712298457
1730089729.3590715,-0.3929399309624677,0.012396939861297454,9.919182423727158,0.0006247695455387399,0.019795408930330466,-1.2369994936352797e-05,0.999803856411486,-0.00059229351541702,0.010223574092020692,0.015900405119075325
1730089729.3670087,-0.38396504134115245,0.017972651221465973,9.9187016051152,0.0009058207422581359,0.01934470385594197,-1.7526120797775796e-05,0.9998124632221503,-0.000355376109250212,0.013370875500066952,0.009540243071445196
1730089729.3753266,-0.3697215614257852,0.019402716709442082,9.923919777766386,0.0009773956061605148,0.01861806739035919,-1.8200380655013934e-05,0.9998261908618034,-0.00021322566555012718,0.016536326529280804,0.005724145842867117
1730089729.383089,-0.35926011214843984,0.0102051090295715,9.925853580527017,0.0005139793996138804,0.01808829489439668,-9.298533480034584e-06,0.9998362612580759,-0.0001279353993300763,0.020989737515581305,0.0008803471369480806
1730089729.391048,-0.3515467215859389,0.010432628406024151,9.914803433716601,0.000526027597607295,0.017720012362177733,-9.322680593223843e-06,0.9998428498368824,-7.676123959804578e-05,0.02451316423028567,-0.002451622148065373
1730089729.3990142,-0.3488340485765633,-0.0009230279368542591,9.920623194263163,-4.651319163394207e-05,0.017573111672327717,8.175077504742069e-07,0.9998455798682148,-4.605674375882747e-05,0.02832998050495641,-0.00317373353468735
1730089729.407287,-0.32757399115765673,-0.015637287221096932,9.932015916069616,-0.0007871042052403979,0.01648406308911981,1.2976442525594413e-05,0.9998638187086559,-0.0017303942921034227,0.032748520577069014,-0.00190424012081241
1730089729.4150448,-0.3310985279953753,-0.025902363787736287,9.940766910481612,-0.0013026442169781355,0.016646576924475576,2.1687590687764375e-05,0.9998605873442507,-0.0031666868825722116,0.03625102474326064,-0.0011425440724874458
1730089729.4230957,-0.3581129473636314,-0.03661039288201677,9.932131137499905,-0.0018427074705931108,0.0180190669494732,3.3209317441487335e-05,0.9998359448192435,-0.004454152498315517,0.04005528748882374,0.0027199940482037855
1730089729.4310467,-0.38341956529317883,-0.04973897498702256,9.929343875371037,-0.0025041370260671346,0.019296308890958198,4.832975174566452e-05,0.9998106717900017,-0.004375251744837437,0.04318922525908567,0.005463206982080556
1730089729.4394252,-0.40099773771106356,-0.05665844358596354,9.92360137527145,-0.0028540917538323737,0.020191475188809333,5.764030879257195e-05,0.9997920559634164,-0.002625151046902462,0.04719803822855298,0.008811894988254744
1730089729.4470649,-0.4496124475582787,-0.059373603749234366,9.914170371061306,-0.00299354111185344,0.022657270811615438,6.784319182490681e-05,0.999738806983245,-0.0032778508739896035,0.050029016071695395,0.011246797853421288
1730089729.455409,-0.4804572146287172,-0.07608617030618124,9.918327995341862,-0.0038343821184344605,0.02419850606108559,9.281418030744696e-05,0.9996998155465016,-0.001966710524393762,0.051727602777580844,0.012282049511059184
1730089729.463154,-0.5035130580252772,-0.07917052542589624,9.91890720858207,-0.003989459648521598,0.0253559842226155,0.00010119001601750447,0.999670519739577,-0.0011800263146362572,0.051895374678188055,0.011626130321255826
1730089729.4709697,-0.5187830850593069,-0.08772490314616274,9.906086627395338,-0.004426122517583632,0.026156903736164788,0.0001158144221663709,0.9996480442702901,-0.0007080157887817543,0.05157034775709035,0.009955508622987717
1730089729.4789987,-0.5566755212015997,-0.07873173998340076,9.9015067408415,-0.003974021055753353,0.028076287580064155,0.00011162064317870073,0.9995978775353627,-0.0004248094732690526,0.050523951481507665,0.007676065419640757
1730089729.487288,-0.5724677980725222,-0.06136483378496233,9.929404590159196,-0.003088679569525003,0.028790353324616304,8.896147802189231e-05,0.9995806959419614,0.0014478745618866948,0.04861904353177196,0.004605639251784454
1730089729.4953737,-0.5819431641950759,-0.04711396740964928,9.932256930120907,-0.002370689397346339,0.029257574797755356,6.939052330880368e-05,0.9995690918259179,0.002571484982980143,0.047050408700468505,0.0027633835510706725
1730089729.5031285,-0.5876283838686079,-0.03616924592430519,9.921757905631138,-0.0018218853614284881,0.02957400807945031,5.390411999732057e-05,0.9995609315465428,0.0036713412970982443,0.04568353774022439,0.004637860560876624
1730089729.5110772,-0.5931942971668679,-0.010209379585833114,9.914500810273212,-0.0005146318467321556,0.029875404012517495,1.5381702301299266e-05,0.999553497894212,0.003905565024107073,0.04486341516407793,0.006188236828222227
1730089729.5192506,-0.5977309459759019,-0.00014012360110924306,9.914216695880723,-7.06347013333797e-06,0.03010414780997573,2.1273616791026486e-07,0.9995467674074572,0.0023433390144642434,0.04309427143400396,0.008821222834477716
1730089729.5270777,-0.6126633637281194,-0.0003234943266811708,9.905905941600698,-1.632025736533499e-05,0.03087989600679893,5.042083060967027e-07,0.9995231021622283,0.001406003408678546,0.03947864482718739,0.012103774684079135
1730089729.5350919,-0.6225804950435123,0.007706768882506923,9.905707892352998,0.00038880713866654745,0.03137889624000056,-1.2206350666405044e-05,0.9995074854901154,0.0008436020452071276,0.03603219867871135,0.014073305793839986
1730089729.5430164,-0.6184751268600919,0.011327825977941654,9.90918036529461,0.0005712933967995515,0.031161679321842727,-1.7811114384533223e-05,0.9995141935202629,0.0005061612271242765,0.03183588068231557,0.015680714521158528
1730089729.5509841,-0.6081110404715238,0.015415821563327492,9.907433126403328,0.0007776119290516894,0.030646337594930666,-2.3842163800659586e-05,0.9995299879159487,0.0003036967362745659,0.028892399823016068,0.016645159757549655
1730089729.5590868,-0.62559518507393,0.026248324725105868,9.907103043566606,0.0013240341513904143,0.03152583583004884,-4.1762078321944834e-05,0.9995020594599651,0.00018221804176473953,0.025423551061588237,0.015946756714998234
1730089729.567009,-0.6274665458588112,0.040169851768657276,9.904750212370432,0.0020267397991098396,0.031627160431224856,-6.413223973003422e-05,0.9994976793049096,0.00010933082505884371,0.021213791497421385,0.014250644705081288
1730089729.5750453,-0.6338566059820836,0.04995928899088186,9.91147879929726,0.002518913919188061,0.03192646711674141,-8.046129558876987e-05,0.9994870430856476,6.559849503530622e-05,0.018262245697459243,0.012381597376207058
1730089729.5830805,-0.6182976086087815,0.05248106899999787,9.91407943045726,0.002645432255848036,0.031136893019018303,-8.241078849670499e-05,0.9995116251398799,3.935909702118373e-05,0.014362867910171797,0.009557408733034393
1730089729.5910516,-0.6197361176555032,0.04106544804062372,9.918991691477482,0.002068980388599851,0.031193924510329086,-6.457117995392042e-05,0.9995112076532,2.3615458212710237e-05,0.010746171053413236,0.007862895547130794
1730089729.5990713,-0.6076705341186925,0.027512310816561726,9.912122821282972,0.0013871308513240328,0.03060965102741476,-4.247953749465253e-05,0.9995304514258033,1.4169274927626142e-05,0.008150462877896067,0.006846187635588634
1730089729.6070244,-0.5805593102173092,0.030393756118843287,9.914944683980721,0.001532037449659492,0.029239251786460554,-4.48148423567152e-05,0.9995712665977602,8.501564956575685e-06,0.00489027772673764,0.007087543011587401
1730089729.6149924,-0.5669261977026512,0.009138287362712222,9.922144465417729,0.00046030444968144256,0.028533816228120595,-1.3139594047703116e-05,0.999592721701506,5.10093897394541e-06,0.002934166636042584,0.008083736360110725
1730089729.623063,-0.550606044549325,-0.009839918207372667,9.930773897268216,-0.0004952277833090062,0.02769030098381594,1.3718268328152622e-05,0.999616427332343,3.060563384367246e-06,0.0017604999816255502,0.010809902676534876
1730089729.6310773,-0.5338707678428762,-0.0087769929166111,9.920389245587494,-0.0004422050385826044,0.0268785715400932,1.1890136764636501e-05,0.9996386080505758,1.8363380306203477e-06,0.0010562999889753301,0.0128712925278514
1730089729.6391973,-0.5144922153443976,-0.018913145212857283,9.922777580555621,-0.0009526829150280956,0.02589865905816894,2.4681500048476628e-05,0.9996641192145869,1.1018028183722085e-06,0.0006337799933851981,0.013682436377179282
1730089729.6471035,-0.5150755123121072,-0.028825559246854995,9.918943337884153,-0.0014525428920077496,0.02593788661787654,3.7688612731645406e-05,0.9996625004152719,-0.002127789225619135,0.00038026799603111885,0.014594812748238043
1730089729.655027,-0.498905499037655,-0.035730688331316124,9.909220767134789,-0.0018022991170043897,0.025149706106196334,4.5341708577902196e-05,0.9996820704327922,-0.0029794337812196073,0.0002281607976186713,0.015142238570873299
1730089729.663277,-0.48848523057493676,-0.0484928917585553,9.907936207839464,-0.002446380199896737,0.024628406787381575,6.026890831157922e-05,0.9996936796692732,-0.0017876602687317642,0.00013689647857120278,0.012916553695682264
1730089729.6709692,-0.48055712833519637,-0.045136886178180055,9.912911556246648,-0.0022759593378623376,0.02421730711194986,5.51339189672385e-05,0.9997041257320032,-0.0010725961612390584,8.213788714272166e-05,0.01072976264764358
1730089729.6790304,-0.46430809902260217,-0.03067343419714241,9.914460244294864,-0.0015464579414402118,0.02339633167778496,3.619139296478216e-05,0.9997250716182131,-0.0006435576967434351,4.9282732285633e-05,0.008566307895896305
1730089729.6870694,-0.45838940409129564,-0.020319421846410442,9.924008583100354,-0.0010234655703210266,0.023076459686935703,2.3624265427263935e-05,0.9997331788874658,-0.00038613461804606105,2.9569639371379796e-05,0.00684254498338591
1730089729.6951153,-0.4526834056383711,-0.02057135891839314,9.935962510700058,-0.0010349164697821787,0.022762278922171975,2.356317505767638e-05,0.9997403698215586,-0.00023168077082763662,1.7741783622827877e-05,0.005808287235879672
1730089729.7030296,-0.4404012604240383,-0.030059907636192134,9.932121539623159,-0.0015128757321295208,0.022154101016292407,3.352466822205067e-05,0.9997534225454173,-0.00013900846249658197,0.002990475500407918,0.00518773258737593
1730089729.7109988,-0.4380597967817667,-0.018275364747730904,9.929098696478972,-0.0009200594981111672,0.02204326570048688,2.0286053721576235e-05,0.9997565941349192,-8.340507749794918e-05,0.005625495853403035,0.0031126395524255575
1730089729.7193987,-0.4424010025807788,-0.010246958350591667,9.916511083121758,-0.0005165277592491036,0.02228964096486293,1.1516080951134838e-05,0.9997514215904427,-5.004304649876951e-05,0.008483578249586201,0.004421724100227524
1730089729.7270577,-0.4380625412457329,-0.0051904943462925,9.919253582246101,-0.000261571067137234,0.02206529320910359,5.77304804277417e-06,0.9997564975446996,-3.0025827899261704e-05,0.01062411774875813,0.006058554951832768
1730089729.7351053,-0.4402478677650179,-0.0069450192640255,9.913955896906254,-0.0003501750459371021,0.022187035782594268,7.77125974451673e-06,0.9997537760670007,-0.0017207757425876833,0.01233413150972332,0.007040653462795914
1730089729.743128,-0.4516147106492451,0.012592400062678448,9.923227134335159,0.0006343201824625269,0.022737761799105798,-1.4426753957809458e-05,0.9997412623364818,-0.002735225691400736,0.015488590073612592,0.007629912569373801
1730089729.7510436,-0.45939249704384394,0.025990792820810193,9.919691910483907,0.0013096923749567801,0.02313688614874727,-3.0310343270041867e-05,0.9997314480831869,-0.003343895660688568,0.01823264533487022,0.0075577779718585016
1730089729.7591543,-0.46118612688841576,0.02972026548740799,9.924035120655578,0.0014969633471181884,0.02321689554169729,-3.476425129288577e-05,0.9997293301957235,-0.0020063373964131406,0.019879078491624798,0.004534666783115101
1730089729.7670124,-0.47327563243187754,0.023099402944788544,9.914430618291782,0.0011645915123424692,0.023847572167753874,-2.7780599621662176e-05,0.9997149274951092,-0.0012038024378478844,0.02086693838567754,0.0027208000698690604
1730089729.7750444,-0.47478325177357966,0.022957608075466873,9.908667916873506,0.0011581132984643467,0.02393729884078954,-2.7730068452606597e-05,0.999712790619805,-0.0007222814627087306,0.021885344383571217,0.0016324800419214361
1730089729.783085,-0.47329362171844463,0.010422682521061375,9.914787102663166,0.0005254573397874373,0.02384768541540677,-1.2534507840407582e-05,0.9997154653389123,-0.002136129123473365,0.022070697920845393,-0.0007232722206952646
1730089729.7910047,-0.4798218688318481,0.0088872313388087,9.90936064782837,0.0004482894703957044,0.024189269694556915,-1.0846969849518216e-05,0.9997072962375227,-0.0029844377199321455,0.02175621998174787,-0.002136723578265285
1730089729.799054,-0.4942733044045775,-0.00017432501507415508,9.911372018579833,-8.791353410400543e-06,0.024911439118543734,2.190732520280594e-07,0.9996896619069876,-0.003919112939269446,0.021993223279751388,-0.0034104844542693293
1730089729.8071406,-0.4988740229259496,-0.0029776370012319937,9.914015362026804,-0.00015012375310653994,0.02513618591173095,3.7747312890131976e-06,0.9996840248830733,-0.004054228009409794,0.0221354252585535,-0.003749050918409724
1730089729.815082,-0.5205486471540073,-0.0020260023667548212,9.913446586600848,-0.00010214799907080547,0.026227576755922563,2.6800164312628895e-06,0.9996559927175528,-0.004560987112956034,0.022646436507296794,-0.002249430551045834
1730089729.8230758,-0.5412148670033418,0.0004603397420564826,9.898740111384337,2.324342267811106e-05,0.027306976428046782,-6.349443692863262e-07,0.999627094719675,-0.004865042575083779,0.022953043256542772,-0.0013496583306275005
1730089729.8311124,-0.5466714140984894,-0.005230459973125485,9.899732453061072,-0.0002640672475003411,0.027578898206814875,7.285455162569934e-06,0.9996195949405499,-0.005047475852360426,0.02313700730609036,-0.0008097949983765003
1730089729.839139,-0.5542549053438593,-0.005771897810047165,9.896018295078829,-0.00029150856741101043,0.02797105371654689,8.156993702987043e-06,0.9996086909937331,-0.005156935818726414,0.02282169567435688,-0.00048587699902590014
1730089729.8470736,-0.5607203614192062,-0.011364004164543924,9.906479069088313,-0.0005733255804750417,0.0282667354601845,1.621252344856523e-05,0.9996002514512272,-0.005222611798546007,0.020929748449468665,-0.0002915261994155401
1730089729.8550522,-0.5547834082577737,-0.02142303262567948,9.923050600632674,-0.0010790183855492624,0.02792149474965736,3.013957459852113e-05,0.9996095362399633,-0.004836327324975731,0.018943199991611672,-0.00017491571964932403
1730089729.8630278,-0.5514606565269299,-0.03464105468282956,9.929162796903041,-0.0017437036147196613,0.027737476839355735,4.838462863451978e-05,0.9996137201615521,-0.0029017963949854383,0.017751270916897478,-0.00010494943178959442
1730089729.8710063,-0.5487487449903766,-0.05119099389368211,9.922295627360574,-0.0025785449511694456,0.027620195131475966,7.124733343241944e-05,0.9996151613749421,-0.001741077836991263,0.01661042341060693,-6.296965907375666e-05
1730089729.8791323,-0.5425726149141479,-0.060163276756131145,9.916259964306969,-0.003032346834335607,0.027326442500609595,8.289458885474328e-05,0.99962196031371,-0.0010446467021947576,0.0159259149068326,-3.778179544425399e-05
1730089729.8872833,-0.5314449117219262,-0.07871475560445992,9.920778852119335,-0.003965595468010319,0.0267546144271402,0.00010613680683363959,0.9996341597776746,-0.0006267880213168545,0.01466382968164394,0.0025314712915056373
1730089729.8951857,-0.5269230713007338,-0.08577550009119157,9.914152798332148,-0.0043242049050133905,0.026544948025343205,0.0001148273319244132,0.9996382614730966,-0.0003760728127901127,0.01348088848506871,0.004498713205137604
1730089729.9029498,-0.534026193854659,-0.07564673682229307,9.901558040083273,-0.003818415888146812,0.02693643450806606,0.00010289259515893756,0.9996298502992054,-0.0002256436876740676,0.012345433705661542,0.006530438476240847
1730089729.9110737,-0.5366121262249048,-0.06382339487657897,9.89495886579801,-0.003223765132804464,0.027084878728715227,8.734778669901267e-05,0.9996279353104252,-0.00013538621260444054,0.011664160838017242,0.008175163700364824
1730089729.9192827,-0.5285868790064272,-0.055532288879072376,9.901294428365524,-0.0028032243251567,0.02666381780133863,7.477154123906625e-05,0.9996405239699201,-8.123172756266433e-05,0.010404016994506597,0.010013378957763275
1730089729.9270928,-0.5390946213003407,-0.0474451631223653,9.90246214407986,-0.0023946827803642775,0.027189646856810263,6.513484689296104e-05,0.9996274227709218,-4.873903653759859e-05,0.008796550565476149,0.010690618050740312
1730089729.9350953,-0.540132023024345,-0.0392410053441223,9.909866538156901,-0.0019791210098741804,0.02722166709156011,5.3895051266989296e-05,0.9996274611154438,-2.9243421922559154e-05,0.00783207070805788,0.011096961506526535
1730089729.9430294,-0.5472188085411694,-0.034318510677176506,9.919576418255469,-0.0017291467778500597,0.027551149106319395,4.7658143299720346e-05,0.9996188983622926,-1.7546053153535492e-05,0.006402002670682853,0.011766457641460299
1730089729.9511285,-0.5414152328786078,-0.031125593710993403,9.915346699341953,-0.001568953627817528,0.02727124613435415,4.280329311071187e-05,0.9996268382184781,-1.0527631892121294e-05,0.0038412016024097118,0.012168155322420559
1730089729.959171,-0.5183006338677897,-0.016041734400424165,9.912569447827826,-0.0008088734034759211,0.02611680797076156,2.113240657777769e-05,0.9996585705222844,0.0016964436667128535,0.002304720961445827,0.012409173930996715
1730089729.9670892,-0.50491071479333,-0.010822141470332622,9.91210019774943,-0.0005457215021521564,0.025444651220024365,1.3890192549491213e-05,0.9996760833987156,0.0010178662000277121,0.003936972945639686,0.013830855280528503
1730089729.975077,-0.4741318475771699,-0.002662562225949573,9.910621546872315,-0.00013428881016125068,0.023899888002149778,3.210404581746851e-06,0.9997143478562731,0.0006107197200166273,0.004916324136156001,0.015109554151709607
1730089729.98309,-0.44943960293106755,0.011091731463258382,9.920029423484717,0.000558908147114995,0.022635706831167585,-1.2654525289657211e-05,0.9997436232543819,0.00036643183200997634,0.00550393485046579,0.0163024635358803
1730089729.9910574,-0.42385034867270305,0.019344307676783155,9.916576183143563,0.0009751193984252692,0.021356126901656006,-2.082953407874275e-05,0.9997714561598814,0.0002198590992059858,0.006707881401975727,0.01701820916638272
1730089729.9990566,-0.4211860649165124,0.025253534068960515,9.92120800358731,0.0012724036771661576,0.021212136394874022,-2.6996496501987002e-05,0.9997741872691237,0.0001319154595235915,0.007430249332881688,0.016170586360298073
1730089730.0070436,-0.42006633499482937,0.026883708576141932,9.93212738149809,0.0013530530616358233,0.021132580674433698,-2.8599916052772844e-05,0.999775766091325,7.914927571415489e-05,0.008715050214349328,0.015662012676647286
1730089730.0150962,-0.4215492785359601,0.031453115770685165,9.93748190741448,0.00158217388273527,0.021195636695962784,-3.354276029306561e-05,0.9997740947762853,4.748956542849293e-05,0.012040071112002101,0.014931178404994784
1730089730.0231025,-0.4344100529614198,0.02820925593702047,9.927526513833454,0.001420402032596275,0.021863267021308946,-3.1062085036952836e-05,0.9997599607147546,2.8493739257095758e-05,0.015737843896441894,0.012789917596155154
1730089730.031054,-0.43518333280224253,0.02985424252705603,9.922032118016869,0.0015040610825507417,0.02191422680517078,-3.296829019581344e-05,0.9997587225810451,1.7096243554257454e-05,0.01795650756710577,0.011079471049389344
1730089730.039102,-0.46150467863642364,0.024376889998655494,9.912989396542544,0.0012291940987653373,0.02325879414685532,-2.8597330348206534e-05,0.9997287215834576,1.0257746132554472e-05,0.018010635585118,0.008776132936943765
1730089730.0469806,-0.4892684944377135,0.009837730678880796,9.913309847642322,0.0004960309411530719,0.02465483159924976,-1.2233279458724055e-05,0.9996959003029197,6.154647679532683e-06,0.018043112395925338,0.006968440008014385
1730089730.0550473,-0.49682881760989367,0.012366982889750352,9.924754866104923,0.00062283420229005,0.02500627019413522,-1.5579635213515594e-05,0.999687100189759,3.69278860771961e-06,0.018913978605333802,0.005883824250656757
1730089730.063423,-0.5128571794819519,0.01556047537838146,9.920129709213734,0.0007840151540199546,0.025823414938024678,-2.025270874364142e-05,0.9996662123684108,2.2156731646317657e-06,0.01943649833097888,0.005658744857704212
1730089730.0709236,-0.5279808604235461,0.030884100168435128,9.917115194913006,0.0015565327610939956,0.026591276142963267,-4.1404883888699095e-05,0.9996451768124968,1.3294038987790595e-06,0.019750010166365926,0.005098007160470653
1730089730.079028,-0.5260417413517839,0.017572779436998573,9.920334309818896,0.0008853707317469607,0.026485349455092934,-2.345759131674422e-05,0.9996488092488534,7.976423392674357e-07,0.019938117267598157,0.003058804296282392
1730089730.0870028,-0.5203292867544297,0.015571491148527267,9.915562014113993,0.000784923365041468,0.026210925903106093,-2.0580645303512373e-05,0.9996561262929617,4.785854035604614e-07,0.019625291466875465,0.0035380428236175612
1730089730.09515,-0.506127906525314,0.018680281163725734,9.915332258517223,0.0009416698954185998,0.025497535955718423,-2.4018081315154093e-05,0.9996744411762895,2.8715124213627683e-07,0.019011905924979818,0.003825585940018663
1730089730.1030986,-0.5016772212101103,0.011687009030266692,9.913279043831038,0.0005892661007109194,0.025279010929587148,-1.4900828576954815e-05,0.9996802609583975,-0.0017025879551028447,0.01906956466130446,0.0022953515640111977
1730089730.1110547,-0.4925424655385661,-0.013817349025199361,9.918032619169717,-0.0006963536402847791,0.024807695669998932,1.7280251520212383e-05,0.9996919990819899,-0.0031500030803718647,0.018678469841637214,0.0013772109384067187
1730089730.1189883,-0.4841885701434522,-0.020979678213947743,9.915856940886595,-0.0010575561202295443,0.02439299801755634,2.5804657052000236e-05,0.9997018868427165,-0.004444142216995309,0.018443812949836866,0.0008263265630440312
1730089730.1270328,-0.48348579589466506,-0.03533272269985302,9.901383424785863,-0.0017836709250307595,0.024393071924457783,4.3522232727107674e-05,0.9997008525883804,-0.004794935637507344,0.017877328753294626,0.0004957959378264187
1730089730.1353712,-0.4976687614723459,-0.03221296125663056,9.894375256287535,-0.0016273011643233317,0.0251250879687131,4.0899050319753677e-05,0.9996829898386551,-0.002876961382504406,0.01711174817390725,0.0024259278700060095
1730089730.1431108,-0.5150370869615325,-0.03896023036725958,9.892325136682677,-0.0019685108932177187,0.02600548781818527,5.120950442234121e-05,0.999659860625497,-0.0017261768295026437,0.017078089887736854,0.004009697090775795
1730089730.150973,-0.5278522839152008,-0.052106558142230745,9.900432451394371,-0.0026305314882166635,0.026629216761387124,7.007408560679873e-05,0.9996419159921152,-0.0010357060977015861,0.016632204854572584,0.005385648684699698
1730089730.159063,-0.5297953181030267,-0.05209348932869782,9.889255689098341,-0.0026328345791622543,0.026757170891297952,7.047268111891376e-05,0.9996384931671919,-0.0006214236586209517,0.016364673834674024,0.00621121964105404
1730089730.1669924,-0.5218631723071285,-0.05759231185893744,9.896675421515646,-0.0029085930025321114,0.026337580804267482,7.663221099339784e-05,0.9996488713801605,-0.000372854195172571,0.01662984528419692,0.0062808721534046135
1730089730.1750271,-0.5135125823393552,-0.048681176910284334,9.915253050760949,-0.002453986441789072,0.025868691834445817,6.350286170065066e-05,0.9996623353416415,-0.0002237125171035426,0.016363258092448624,0.0058969735993529265
1730089730.18306,-0.5003619427141599,-0.030405806976248728,9.923526586315944,-0.001531495253656397,0.025186749618223363,3.858567357332393e-05,0.9996815896459745,-0.00013422751026212555,0.01705468590032371,0.005240944405459882
1730089730.1910796,-0.508273289896074,-0.024947248834186735,9.918195640510271,-0.0012572189703096601,0.025597981178022824,3.219284202078751e-05,0.9996715269145616,-8.053650615727533e-05,0.018320922707972826,0.0052730169505860874
1730089730.1991029,-0.48692330010951945,-0.031009500423558913,9.909011568876474,-0.0015642159625667367,0.024547357594328505,3.840898946870088e-05,0.9996974437240039,-4.8321903694365196e-05,0.019080664792562298,0.006995020723509937
1730089730.2070673,-0.4760286675657117,-0.04135061602561972,9.912359672038775,-0.002085172918316449,0.023990877741460827,5.0039639967759816e-05,0.9997100016180339,-2.8993142216619115e-05,0.019110819981853946,0.009305293171650342
1730089730.215035,-0.46709768637927074,-0.037499638414199954,9.914368533936155,-0.001890621302909995,0.023536813037963955,4.451161076463423e-05,0.9997211821312088,-1.739588532997147e-05,0.018703223033966904,0.012819906947844743
1730089730.2234228,-0.46485155982560933,-0.02896412753094185,9.9234747165531,-0.0014589539252455334,0.02340244375894491,3.415247705900743e-05,0.9997250601606232,-1.0437531197982882e-05,0.01888435492669671,0.014928675213561383
1730089730.2310543,-0.4503357747625531,-0.01666021602051823,9.931093207617407,-0.0008385658398405461,0.022655521496231356,1.9003030590983886e-05,0.9997429788660438,-6.262518718789729e-06,0.019418724123796628,0.01704531629591543
1730089730.2393942,-0.44449934571690686,0.0077209626728453095,9.935424882089976,0.0003884561894700596,0.02235264113298765,-8.685192463220885e-06,0.9997500729986151,-3.757511231273837e-06,0.021867795949366733,0.017038230760941762
1730089730.2469645,-0.45608095874850346,0.007505619595894685,9.924855777642657,0.00037801861226092147,0.02295852607533566,-8.681038950279153e-06,0.9997363467970025,-2.2545067387643022e-06,0.024614309229094893,0.01575690925557147
1730089730.2550607,-0.472846153374102,0.01360133806613056,9.927372861116844,0.0006848399542994957,0.023795012067232012,-1.6300394118570827e-05,0.999716623913624,-1.3527040432585813e-06,0.027539287381317883,0.013285356106501165
1730089730.263067,-0.4951156986162581,0.015582827986162711,9.91547558190448,0.0007855281792545314,0.024943470268263684,-1.9599903087166887e-05,0.9996885544269773,-8.116224259551488e-07,0.028442894149727616,0.011376734155596951
1730089730.270988,-0.5039284426072549,0.024912007582713253,9.915759239523549,0.0012557585349524157,0.02538581190401077,-3.188875197344474e-05,0.9996769391196255,0.0017022732723925532,0.028559368149311423,0.010231560985054424
1730089730.2790527,-0.5108920301639623,0.03218545650275295,9.917605375257098,0.0016220773428083167,0.025731067473673694,-4.175166045882222e-05,0.9996675843942116,0.0010213639634355318,0.028203562487599677,0.009118767021266875
1730089730.2874086,-0.5268017708327524,0.03343706369657364,9.914642913874962,0.001685621594920255,0.0265385920789635,-4.4749848913581596e-05,0.9996463673758617,0.0006128183780613191,0.027990079090572627,0.008451090642994347
1730089730.2951906,-0.5528676066891045,0.026287162534350435,9.90903471438943,0.0013258848042851637,0.027864524054035913,-3.6959532609233216e-05,0.9996108287542311,0.0003676910268367915,0.02828767911381843,0.00805048481603083
1730089730.3032355,-0.563958125048619,0.0038012892198290107,9.900402551045765,0.0001918956816300043,0.028446988924102145,-5.461064509625083e-06,0.9995952840862027,0.00022061461610207487,0.027189168943379815,0.008661501442776783
1730089730.3110156,-0.5605567890916714,-0.01040849526693072,9.900490496691912,-0.0005254367208785129,0.028275564941325746,1.4862964892473671e-05,0.9996000280725253,0.00013236876966124492,0.025678682718192583,0.008602421357362323
1730089730.3192563,-0.5707264159842997,-0.010554660148439681,9.905092247233897,-0.0005325599220523891,0.028773935773120308,1.5330194719225018e-05,0.9995858026027775,-0.0016233389840513794,0.023069630737232116,0.008141283244651614
1730089730.3270438,-0.5828136962702672,-0.0008261322707044333,9.912402280713385,-4.165296281457799e-05,0.029360179837772088,1.223465919909286e-06,0.9995688961264388,-0.0009740033904308276,0.02107850948719381,0.00786460037702519
1730089730.3353882,-0.5891083837777853,0.014108950764530465,9.904338452168265,0.0007119337837833522,0.029700512384598275,-2.115413583662857e-05,0.9995585887114784,-0.0005844020342584966,0.019032456614246757,0.006847210533525272
1730089730.3430364,-0.5921669357842494,0.007268269628640154,9.89638769288299,0.00036704772367524306,0.029878250007583103,-1.0971642732812962e-05,0.9995534779750787,-0.00035064122055509795,0.016527754706092433,0.006662466688887353
1730089730.3512602,-0.5872983023396903,-0.012637870009925284,9.900954623786435,-0.0006379230887999609,0.029619595844020366,1.890332187622194e-05,0.9995610397763781,-0.00021038473233305876,0.014599243499737808,0.006551620382104602
1730089730.3590724,-0.5803069794506892,-0.01763836897861142,9.90656782432069,-0.0008898388510981136,0.029251339798338643,2.6040131806676177e-05,0.9995716915903196,-0.00012623083939983525,0.011739376530076905,0.005633732475110887
1730089730.3670185,-0.5739574042231479,-0.016089685205526227,9.902513719494758,-0.0008120492742438283,0.028943911264453646,2.3513741280645756e-05,0.9995807071086334,-7.573850363990114e-05,0.010023456348280365,0.005082999730914658
1730089730.3750517,-0.5531488272995136,-0.008456710293237609,9.896250533942949,-0.00042709511009542356,0.027914704526127092,1.1926882694283979e-05,0.9996102173941278,-4.544310218394068e-05,0.008142524116278377,0.005178250145858953
1730089730.3833756,-0.5222283283621301,-0.0007644631876613154,9.905900151908737,-3.857233964818067e-05,0.026332034973476574,1.016040507547723e-06,0.9996532511052509,-0.0017300261071584908,0.007013964777077185,0.003106950087515372
1730089730.3910868,-0.502957768501653,-0.00620476189697179,9.912887023518289,-0.0003128598171794452,0.025344428398459646,7.931801489922339e-06,0.9996787293950876,-0.0027407759101432208,0.007188209296480532,0.0018641700525092232
1730089730.399032,-0.48110036544669493,0.002023226846191927,9.891700608886365,0.00010223750653092544,0.024296844913927616,-2.4847823909252613e-06,0.9997047828576928,-0.0016444655460859325,0.006867065946660509,0.0011185020315055338
1730089730.4073005,-0.4734925874320794,0.00863596125419953,9.905085558202913,0.00043580629315776223,0.02388102615908855,-1.0410471463713862e-05,0.9997147125825877,-0.0009866793276515594,0.006248689875306463,0.0006711012189033203
1730089730.4151394,-0.4576751728205758,0.005660417084550969,9.9262846369237,0.0002850439246335223,0.023035341712503144,-6.567827238383229e-06,0.9997346106537539,-0.0005920075965909356,0.006303354293956067,0.00040266073134199217
1730089730.4231267,-0.45776153069429854,0.0043539309147930805,9.940919445484298,0.0002189300560823777,0.023005818555993533,-5.037998668924468e-06,0.9997353071472557,-0.002057964803802688,0.007613223129531924,0.0002415964388051953
1730089730.4310577,-0.4683478327232198,0.011470904691453974,9.947784969292533,0.0005763895417873568,0.02352074871409615,-1.3560867456913015e-05,0.9997231826716471,-0.0012347788822816127,0.0092505245538015,0.00014495786328311717
1730089730.4393883,-0.4727842526124475,0.0013758789965130087,9.937060233284505,6.920933741370174e-05,0.02376877512076333,-1.645486059373027e-06,0.9997174803596357,-0.0007408673293689676,0.011935665654211374,8.69747179698703e-05
1730089730.4470625,-0.4732913230518435,-0.013539682563029693,9.927273509355468,-0.0006817419880328922,0.023817614435274657,1.6242079139721867e-05,0.999716087800266,-0.002572970704931539,0.01397244037591933,5.218483078192217e-05
1730089730.455095,-0.48484831311821547,-0.03613596896164594,9.92618987831836,-0.0018196609050004327,0.02440066054372276,4.441422555596726e-05,0.9997006024938654,-0.0036722327302690814,0.015194505208944102,3.13108984691533e-05
1730089730.4634085,-0.4939372886521793,-0.05352446345706569,9.926257960194139,-0.0026952090004408644,0.02485682039825159,6.701527596951901e-05,0.9996873860548036,-0.002203339638161449,0.015927744108758968,1.878653908149198e-05
1730089730.4709828,-0.48406778334755757,-0.04600104770314566,9.925580548821562,-0.0023165635599668236,0.02436281707363649,5.645492267560741e-05,0.9997004968941202,-0.0013220037828968693,0.016367687448647885,1.1271923448895188e-05
1730089730.4790668,-0.48341332381712837,-0.027361208455871772,9.906738749214812,-0.0013805085076017422,0.024376338941674885,3.36617778977894e-05,0.9997018991494143,-0.0007932022697381215,0.017483033575505298,6.763154069337112e-06
1730089730.4874928,-0.4945128160676207,-0.0051639772707886885,9.91027771974373,-0.0002604522365782916,0.024926230777276556,6.494110539922123e-06,0.9996892592909543,-0.00047592136184287286,0.018577931313081778,4.057892441602267e-06
1730089730.4952965,-0.5023696122479943,0.0014505967918236622,9.922696169199755,7.307057536252666e-05,0.02528987644958798,-1.848537064190172e-06,0.999680157253528,-0.0002855528171057237,0.019660560017089698,2.4347354649613604e-06
1730089730.503303,-0.5219277402491872,0.007095282391500447,9.906205222271804,0.00035799406164306445,0.026316092972684085,-9.424269506075046e-06,0.9996536075071645,-0.0001713316902634342,0.019884447178032418,1.4608412789768163e-06
1730089730.5110776,-0.5216916087491217,-0.00029181371939660704,9.888649208802535,-1.4749655050696749e-05,0.026350822691603774,3.888005534005717e-07,0.9996527566739224,-0.00010279901415806052,0.019167399351673987,8.765047673860897e-07
1730089730.5192373,-0.5392670221342386,0.0022191134285182855,9.903733558484646,0.0001119910855404303,0.027195227467247347,-3.046749931355894e-06,0.9996301351258469,-6.167940849483631e-05,0.017885790532934865,5.259028604316538e-07
1730089730.5270689,-0.5534035726555432,0.004204510049298471,9.893630555012662,0.00021239944016071042,0.027934918111826558,-5.935677535556646e-06,0.9996097214419891,-3.7007645096901786e-05,0.01626544511876733,3.155417162589923e-07
1730089730.5351005,-0.5690681079487946,0.0030015463616103323,9.908398307372831,0.00015139994846364197,0.028681005934049042,-4.344089962162211e-06,0.9995886038555039,-2.2204587058141072e-05,0.013590477624418682,1.8932502975539537e-07
1730089730.5430326,-0.5597920561755267,-0.0049028368314713005,9.909118673144402,-0.0002472877128891872,0.028212569568066646,6.9794001933876664e-06,0.9996019156236357,-0.001716082998083011,0.01155980706634746,1.1359501785323721e-07
1730089730.5510135,-0.5501562822893004,-0.0029417020988827805,9.903325968290938,-0.00014846144826466767,0.027744256366016618,4.120538711368387e-06,0.9996150429945101,-0.002732410044697933,0.009915714670042697,6.815701071194233e-08
1730089730.559343,-0.5443748179575646,0.009966566875435958,9.914933815837843,0.0005024070435545515,0.027421276698834353,-1.3781826732245858e-05,0.9996238397424453,-0.0016394460268187598,0.008503569170797809,4.0894206427165394e-08
1730089730.56707,-0.5342021747100856,-0.0007238245231759263,9.908730415235128,-3.651081032357777e-05,0.026926810374857,9.834762677886522e-07,0.9996374070376868,-0.0009836676160912558,0.007656281871250875,2.4536523856299236e-08
1730089730.5750415,-0.5043959923260513,-0.018151386999061807,9.918415904170374,-0.0009147263202745851,0.025402573736152907,2.324391328435291e-05,0.9996768837894866,-0.0022929608155028798,0.007573599552984747,1.472191431377954e-08
1730089730.5832846,-0.5109331398292245,-0.03363574797092146,9.907946626242458,-0.0016968195633599314,0.02575815391644928,4.3721509120178725e-05,0.9996667626757507,-0.0013757764893017278,0.00752399016202507,8.833148588267723e-09
1730089730.591243,-0.5110247056748785,-0.06375591899739662,9.910523605628287,-0.00321541702479114,0.02575559540495961,8.284289013136436e-05,0.9996630950153897,-0.0008254658935810367,0.007494224527449264,0.0021284556071993112
1730089730.599045,-0.5086854435221145,-0.0892500467597661,9.921886020066426,-0.004495964673920588,0.025607995651176156,0.00011517157818493997,0.9996619446572366,-0.000495279536148622,0.00790205520816581,0.005108283917477871
1730089730.6070087,-0.5024934829101437,-0.08826595212812527,9.921999704080871,-0.004446379670972154,0.025296623582412855,0.00011251551232485072,0.9996700945228935,-0.0002971677216891732,0.008572443678057772,0.00774756102656907
1730089730.61505,-0.5208049618163987,-0.08935143651125016,9.908420965026647,-0.004507109835330359,0.02625241488123086,0.00011836451560123133,0.9996451783826487,-0.00017830063301350392,0.00940036682145498,0.010608197476409884
1730089730.6233053,-0.5121593955468704,-0.09263634896729697,9.911047629064814,-0.004671615966257958,0.025810567019117228,0.00012061855835072465,0.9996559288503114,-0.00010698037980810235,0.009471430646031273,0.013175959469238436
1730089730.6310577,-0.5076903162832003,-0.09269193511280006,9.914538988815842,-0.004672802216307421,0.02557679633927596,0.00011955572859673685,0.9996619319124312,-6.41882278848614e-05,0.008662688817852985,0.0151423067263976
1730089730.639395,-0.5021358267328109,-0.08147253899736753,9.898198451883255,-0.00411404465668455,0.025339501230400158,0.00010428220767561432,0.9996704324121918,-3.851293673091684e-05,0.0077517536594839806,0.01674780514215513
1730089730.6472757,-0.5160413849557021,-0.07043133833982676,9.894858474206124,-0.0035576629879708393,0.02604886531946077,9.270512887120439e-05,0.9996543357858214,-2.3107762038550104e-05,0.007205192564462578,0.01856248431453371
1730089730.6549437,-0.506428207438265,-0.0618912566171773,9.913205201711177,-0.003120554358733241,0.025517534243168247,7.965517866305405e-05,0.9996695010060552,-1.3864657223130063e-05,0.006451565845987705,0.02050267194088492
1730089730.6630445,-0.49754783876959957,-0.03665591363827513,9.917030633233738,-0.0018475162913376357,0.025061670831996747,4.631647195084963e-05,0.9996841987315025,-8.318794333878037e-06,0.005573699753440749,0.021241094455233617
1730089730.6710055,-0.4938955587305098,-0.013853262538433829,9.910467346004697,-0.000698694951674273,0.02489467379687512,1.739917951729759e-05,0.9996898352685099,-4.991276600326822e-06,0.005898360220836639,0.020407077779456738
1730089730.6789918,-0.48978882937893087,0.008686874264049078,9.908923575327426,0.00043819679566857466,0.02469191266084375,-1.0823217956895694e-05,0.9996950121489931,-2.9947659601960935e-06,0.006518846562736205,0.017778217466680454
1730089730.6870446,-0.4830152287797022,0.01263414970491382,9.914222237237471,0.0006369763257425766,0.024338039701679644,-1.550735174778228e-05,0.9997035829905593,-1.796859576117656e-06,0.007316828429337976,0.015349521156090621
1730089730.6950433,-0.48182411041235257,0.03631090974482329,9.91668317388545,0.0018302289518350799,0.024271935427434402,-4.443636468348076e-05,0.9997037168271407,-1.0781157456705936e-06,0.009072687733685133,0.01346661330827469
1730089730.7031646,-0.4794334982298334,0.047165083444550226,9.916244374546114,0.0023774309919366602,0.02415264723457025,-5.743817027340605e-05,0.9997054536983869,-6.468694474023561e-07,0.010551893377755459,0.012336868599585129
1730089730.7109792,-0.477280870422275,0.052959327166339505,9.927233842745247,0.0026665470948480418,0.024017733113520897,-6.406312453621328e-05,0.9997079743197984,-3.8812166844141367e-07,0.011865106825659687,0.012510401897295458
1730089730.719332,-0.4656942265990681,0.0384793609482412,9.92760259934832,0.001937434175566929,0.023434969636749802,-4.5416269356793936e-05,0.9997234850118819,-2.3287300106484818e-07,0.012653034894402223,0.014317282121769779
1730089730.7271252,-0.464488324289519,0.04487485167636659,9.944104424599226,0.002255698339409459,0.023335581778128715,-5.265250502491107e-05,0.9997251420644534,-1.397238006389089e-07,0.013977171858571807,0.015827100317916405
1730089730.7351446,-0.4630465224057426,0.028840272333944955,9.924077998997817,0.0014526301903522644,0.023310305775678067,-3.3870493042203926e-05,0.9997272219775574,-8.383428038334535e-08,0.016900104344383715,0.017584371358528444
1730089730.7429469,-0.45571709679305494,0.024965608712866974,9.920920689779548,0.001257882798533662,0.02294924090325939,-2.887508302136526e-05,0.9997358397292051,-0.0021285006078783884,0.01822817377440883,0.01736166379850957
1730089730.7509866,-0.43863017262661413,0.012824583733579559,9.917350363086479,0.000646408474090476,0.022098057565771434,-1.4287863639101203e-05,0.9997555990359651,-0.003831240733499223,0.019025015432423898,0.015950969078112155
1730089730.759008,-0.44896815240409355,-0.012416543705164765,9.927897435869466,-0.0006251696235235045,0.022594101646327438,1.4128755562029396e-05,0.999744525133354,-0.00400150468594766,0.021205880673081066,0.012976101938563547
1730089730.7669349,-0.4477489151240967,-0.02109687568598948,9.91818452841621,-0.0010632620328990777,0.022554828829003545,2.398780904113714e-05,0.9997450417956214,-0.004103663057416723,0.023365779940399428,0.010339801531910317
1730089730.7749884,-0.45827012055883304,-0.02654449504049994,9.89966751514543,-0.0013402995281730085,0.02312705520904616,3.10055019772863e-05,0.9997316349667001,-0.0024621978344500335,0.024661719500790446,0.00620388091914619
1730089730.7829797,-0.46003386066537794,-0.03412262964148747,9.901007155815773,-0.0017226992429923034,0.023212716462835417,3.999936636474219e-05,0.9997290635476118,-0.00147731870067002,0.024162213052638964,0.0037223285514877136
1730089730.7909148,-0.4744996340261799,-0.027656182765361227,9.921203973665246,-0.001393373774532044,0.023892811872805814,3.330115643162647e-05,0.9997135544451561,-0.000886391220402012,0.021308368814975883,0.002233397130892628
1730089730.7989912,-0.49299532484930164,-0.015636028995154237,9.917759753583914,-0.0007880307892906243,0.024831135959733165,1.9573741123653987e-05,0.9996913490229337,-0.0005318347322412071,0.020021752333840067,0.0013400382785355768
1730089730.8070252,-0.5012196973509873,-0.0026778527486550404,9.912820179542924,-0.00013502535786617792,0.02525718849949073,3.411449245910557e-06,0.9996809772050361,-0.00031910083934472426,0.02052685262954467,-0.0008987372787267803
1730089730.8149636,-0.5277021357934049,0.010843136983619476,9.917278460264816,0.0005464779777341461,0.026576972561345193,-1.4528864423896118e-05,0.9996466204015324,-0.00019146050360683455,0.022958363114277593,-0.0005392423672360682
1730089730.8236504,-0.5483800021791679,0.023265293811265433,9.919714008531937,0.001172212301685906,0.0276092082575526,-3.237621786457598e-05,0.9996181053229735,-0.00011487630216410072,0.024417269405117348,-0.0003235454203416409
1730089730.8309808,-0.5619838228407039,0.04268959620863426,9.908964909025412,0.0021531758025422395,0.0283228805719705,-6.100875778148912e-05,0.999596505870244,-6.892578129846043e-05,0.02316416287231104,-0.00019412725220498454
1730089730.839307,-0.5363878718294223,0.047640412998618056,9.906585592143763,0.0024035465599267095,0.02704219154168045,-6.502113315323091e-05,0.9996314013739312,-4.135546877907625e-05,0.019432468522393036,0.003289044140373262
1730089730.8469806,-0.5274946457050752,0.03696395360971771,9.902284960022588,0.0018657385940117517,0.026606473552203035,-4.965839088810297e-05,0.9996442427777289,-0.0017275735271155722,0.01634207178951817,0.00537894697592021
1730089730.8549824,-0.5178491470421858,0.021938951999815,9.917421673035037,0.0011056880706406182,0.026081326490652798,-2.88476424846896e-05,0.9996592124470178,-0.0027393043621174694,0.014913523811255281,0.005781508554324315
1730089730.8630254,-0.5209203939870302,0.007656707381529624,9.92410949918235,0.0003856249373398152,0.0262181172775436,-1.0113837256298676e-05,0.9996561716498022,-0.00377203292458064,0.014482085085759579,0.005597355439904747
1730089730.8709638,-0.5220448816558899,-0.010968286362097849,9.915672346237926,-0.000552879114125816,0.026296896285009554,1.4544036612402251e-05,0.9996540238297106,-0.004391670062058543,0.015074601973386219,0.0033584132639428482
1730089730.878942,-0.5150581289447058,-0.03411429090905558,9.904863970486897,-0.0017214859743902228,0.0259737515149511,4.472860558351225e-05,0.9996611419464254,-0.0026350020372351256,0.015430112105962204,0.0020150479583657087
1730089730.8869867,-0.5309773712633079,-0.0391433474946521,9.910589373503074,-0.0019740773449312106,0.026759342362243914,5.284403780199306e-05,0.9996399540947151,-0.0015810012223410753,0.014792038062583734,0.0012090287750194252
1730089730.8950698,-0.5333463116740004,-0.06322975605538501,9.937008951250283,-0.0031802911484406556,0.026806746352393784,8.528433814306638e-05,0.9996355720085152,-0.0009486007334046451,0.013983503575094619,0.0007254172650116551
1730089730.9029713,-0.524472608781744,-0.07744218102580913,9.930355202293137,-0.003897765243792073,0.026378970635740247,0.00010285560932113019,0.9996444101554446,-0.000569160440042787,0.01349838288260115,0.002138010604855119
1730089730.9110842,-0.5299222945170933,-0.07663224953345422,9.908167020301663,-0.003865603514386289,0.026712062380104245,0.00010329587396175853,0.9996356897204268,-0.0003414962640256722,0.012355930344181008,0.005114016916071356
1730089730.9189916,-0.5418112319348652,-0.07686455113608814,9.913050043723969,-0.0038753476042454583,0.027296600839549306,0.0001058240445373927,0.9996198607794986,-0.00020489775841540331,0.01167045882112892,0.008176690887187192
1730089730.926979,-0.5470292330574035,-0.08011639425587164,9.918852899769538,-0.004036899404656429,0.027542715239691668,0.00011123027583761983,0.9996124698643208,-0.000122938655049242,0.010833485845835636,0.010865675392780758
1730089730.9350455,-0.5503994538969421,-0.06985707166094486,9.902223319451567,-0.003525863232917419,0.02775871447174139,9.791177010263102e-05,0.9996084295726124,-7.37631930295452e-05,0.009479921937735603,0.012904756157598927
1730089730.9429445,-0.5485908637444152,-0.055082352127426286,9.91211744504008,-0.002777399785037329,0.027640481661818685,7.67983067890874e-05,0.9996140674910277,-4.4257915817727115e-05,0.008667783592875584,0.01412820461648983
1730089730.951038,-0.5324222391939147,-0.053878965719815146,9.906801172590455,-0.0027182425618577106,0.026842005370025807,7.298965040234701e-05,0.9996359900371742,-2.6554749490636268e-05,0.007329120463035509,0.015287963753286404
1730089730.9590397,-0.5107500561628332,-0.044298387732670336,9.916300677919507,-0.0022328289373414936,0.02572715765816595,5.746350579134936e-05,0.999666506656952,-1.593284969438176e-05,0.006951612646593495,0.01683519935828841
1730089730.9669673,-0.4948737043519968,-0.0399865619364772,9.925831103773188,-0.0020136056276971064,0.024905125524124466,5.0164762851393175e-05,0.9996877900617274,-9.559709816629054e-06,0.007150798018190319,0.017337850659827583
1730089730.9749591,-0.47840470845104177,-0.019203533841573816,9.923409073640867,-0.0009672942793802074,0.024083822964488823,2.3302914271548136e-05,0.9997094744325306,0.0016970244199581489,0.006844619179686381,0.017639441440751087
1730089730.9829912,-0.46852331091046884,-0.017507624455334915,9.913097309418895,-0.0008827981256860631,0.023611716926704825,2.085020051961447e-05,0.9997208145559997,0.0027209748978230157,0.006660911876584018,0.01782039590930519
1730089730.9909985,-0.4661857748763594,0.012000920932267801,9.90810735171579,0.0006054368012223654,0.02350594669643514,-1.4235301044241847e-05,0.9997235136344149,0.0016325849386938094,0.006550687494722601,0.017077588467513588
1730089730.9989798,-0.47340237923245626,0.021805182686313807,9.922351629047053,0.0010984644175974162,0.023834946596945426,-2.618929673373812e-05,0.9997153034793279,0.0009795509632162856,0.006910242927067782,0.015780523879514563
1730089731.007206,-0.47892944267619253,0.02960310106686641,9.911265741832528,0.001492949078673329,0.024139603435600024,-3.604974391162687e-05,0.9997074818912962,0.0005877305779297714,0.007551666247936922,0.014576595065253117
1730089731.014946,-0.48871002522485607,0.05056242338426047,9.904135369171781,0.002551759914700455,0.02464912598702639,-6.291797339459409e-05,0.999692905421831,0.00035263834675786283,0.007936520240458406,0.013002857653772185
1730089731.022991,-0.4909870722638199,0.04278730266336878,9.914461775702287,0.002157120878003062,0.024738132460020833,-5.33796023147734e-05,0.9996916368473462,0.0002115830080547177,0.008167432635971295,0.012058615206883627
1730089731.03097,-0.4897196786610263,0.04051643189099002,9.912277913810044,0.002043089542785571,0.024679848052323174,-5.043860812966226e-05,0.9996933171434033,0.00012694980483283062,0.008731670134741062,0.010214999554364397
1730089731.0392857,-0.4872833013372408,0.03508376660529714,9.912404117670793,0.0017691267134410083,0.024557039278060466,-4.3457687774423196e-05,0.9996968641163164,7.616988289969837e-05,0.00907021263400292,0.008257450039928796
1730089731.0470297,-0.48103307162265696,0.024880982619428282,9.933548814596614,0.0012519871550368544,0.02419119448521686,-3.0295954629456363e-05,0.9997065658080361,4.570192973981902e-05,0.009273338133560037,0.006657230269805404
1730089731.055011,-0.4736916313036723,0.01253438791150072,9.943362590759921,0.0006301031406077876,0.023799223411153776,-1.5000217081636767e-05,0.99971655968582,2.7421157843891414e-05,0.009395213433294306,0.005697098407731369
1730089731.0629995,-0.47311748976853146,0.008717733576978557,9.93799810865517,0.00043847695960142115,0.02378324785444513,-1.043135784124029e-05,0.9997170423428005,1.645269470633485e-05,0.0098940286745969,0.005121019290486948
1730089731.0709376,-0.46080199654666576,0.01121614429657776,9.9359765202224,0.0005642629726395716,0.023169865513502273,-1.3077410000939023e-05,0.9997313833067186,9.871616823800908e-06,0.010619007880840487,0.0052010618816023275
1730089731.079008,-0.4620318265901088,0.007208526909977906,9.930454004174454,0.0003628484563197903,0.02324451284748202,-8.436515624196947e-06,0.9997297439269806,5.922970094280545e-06,0.011905375527510705,0.005249087436271555
1730089731.087729,-0.4618120439521122,-0.0018998081704195066,9.909662822426547,-9.582932241287975e-05,0.02328214708963597,2.231717332695318e-06,0.999728929479715,-0.001699206463791558,0.013102886176974865,0.005277902769073091
1730089731.0953946,-0.48370682964275163,-0.013110893203032953,9.897666953709836,-0.0006621166564728928,0.024413518153276487,1.6169419925870085e-05,0.9997017262521171,-0.0010195238782749348,0.01424708262811539,0.005295191968754012
1730089731.103023,-0.49349181873291664,-0.019119283724554147,9.892863634139964,-0.0009660035274943243,0.024918513440989738,2.4078859961060125e-05,0.9996890186179324,-0.0006117143269649608,0.014933600498799708,0.005305565488562565
1730089731.1110945,-0.512530921317875,-0.024160839033560613,9.89165758356015,-0.0012208453120188592,0.02588109725100672,3.1607427421056926e-05,0.9996642823182084,-0.0003670285961789765,0.014494131098286237,0.0053117896004476976
1730089731.1192088,-0.5191659795485375,-0.026706931886933242,9.89859539852476,-0.0013485411223525272,0.02619710166125412,3.534002984672761e-05,0.9996558868192963,-0.0002202171577073859,0.014230449457978155,0.0031870737602686184
1730089731.1274192,-0.5430188882662319,-0.03134704975715994,9.908983011819934,-0.0015811268741741527,0.027369365467887055,4.3290710631049774e-05,0.9996241373624425,-0.00013213029462443154,0.012795170289407208,0.0019122442561611708
1730089731.135403,-0.5558941125007547,-0.033891700313280336,9.909230075646649,-0.0017094019880925986,0.028016069399323315,4.790960062666095e-05,0.9996060101384573,-7.927817677465893e-05,0.011508312726802609,0.0011473465536967025
1730089731.1430109,-0.563858667207484,-0.0423616754614057,9.90195628879619,-0.0021381414510715964,0.028437210161185066,6.082751682650216e-05,0.9995932921590646,-4.7566906064795354e-05,0.01073619818923985,0.0006884079322180215
1730089731.1510694,-0.5535539295725372,-0.031641929593249664,9.9095630249867,-0.0015958826690590526,0.027897495166633316,4.453852070516066e-05,0.9996095142295588,-2.8540143638877212e-05,0.010698619528164227,0.002967185128103003
1730089731.1590157,-0.5370760198528974,-0.022337040080168548,9.916281848195144,-0.0011258502171061803,0.02705069531404274,3.046619923190807e-05,0.9996334285207383,-1.7124086183326325e-05,0.009824692208594788,0.005185831568558054
1730089731.1670163,-0.5298228958472854,-0.01340222404810113,9.930608209258885,-0.0006745440257878752,0.026647802921157728,1.7981505872094024e-05,0.999644656498747,-1.0274451709995795e-05,0.008448955693929063,0.006942709494293117
1730089731.1750555,-0.5240345004478243,-0.020491183061673177,9.909994765643221,-0.0010334876976275341,0.026411951326747375,2.7305967226946956e-05,0.9996506089552872,-6.164671025997477e-06,0.007623513785129627,0.008422526311196186
1730089731.1833942,-0.5188855220460383,-0.017322533323332032,9.919413934581245,-0.0008728521060980046,0.02612820848823273,2.28138591566447e-05,0.9996582187577533,-3.698802615598486e-06,0.007128248639849966,0.00973610646280006
1730089731.1912541,-0.5088529501905136,-0.01949148630259297,9.91357326797531,-0.0009827331330284047,0.025639081841867306,2.520467307490234e-05,0.9996707813488497,-2.2192815693590916e-06,0.0072567796141442,0.010949944615224416
1730089731.1990635,-0.49205949960649564,-0.009779530453430782,9.91270248983792,-0.0004931248252512043,0.02479673176180017,1.2231646568261396e-05,0.9996923920747957,-1.331568941615455e-06,0.007333898198720741,0.011252557445216997
1730089731.2070746,-0.5016158828693661,-0.007543659434167844,9.91912320776994,-0.0003801320913849294,0.025261075262989457,9.605611329694463e-06,0.9996808158026655,-7.989413649692729e-07,0.0065287892265426025,0.011008435081750515
1730089731.2150786,-0.4891537802099009,-0.015300103131203831,9.928961142679542,-0.0007702351539327162,0.024610255830520757,1.896143282251099e-05,0.999696824885539,-4.793648189815638e-07,0.006471413904697751,0.011287651725132656
1730089731.2230926,-0.4845495606064093,-0.005349339222472298,9.928638979308898,-0.0002693060433271473,0.02437984496983138,6.567591926511335e-06,0.9997027311107881,-2.8761889138893824e-07,0.006862678773052872,0.01145518171116194
1730089731.231067,-0.48322354984040805,-0.012546990008092755,9.917911193981821,-0.0006323466868764486,0.024339477912121384,1.539555221537244e-05,0.9997035509167755,-1.7257133483336293e-07,0.006246057571141881,0.010704319579855449
1730089731.239268,-0.48075200221869796,-0.006331093174777528,9.916981186603936,-0.0003191072411167847,0.024217492965634763,7.730244937372794e-06,0.9997066625492057,-1.0354280090001776e-07,0.005876084849995287,0.009828112239609521
1730089731.2471251,-0.4732835694952813,-0.005235176900960266,9.910916518358846,-0.00026403343746815366,0.023856489406257248,6.300704345354366e-06,0.9997153585695551,-6.212568054001065e-08,0.006079791278769362,0.008876697773999935
1730089731.2550428,-0.4532401990702156,-0.0009863246464355349,9.907756557743824,-4.9761854783226575e-05,0.022855072605161703,1.1376079614881183e-06,0.9997387874733462,-3.727540832400639e-08,0.0070533952589578695,0.00788015903317215
1730089731.2631683,-0.44336895830931683,0.005393709362529304,9.929084337478324,0.0002715412782083439,0.02231010275908438,-6.059622291708268e-06,0.9997510617866301,-2.2365244994403833e-08,0.008063247708533006,0.007707925850137512
1730089731.2711022,-0.43122128953637134,-0.0029886986988886676,9.9323041986784,-0.0001504166150118814,0.02169269160833135,3.263709276048304e-06,0.9997646745584563,-1.3419146996642298e-08,0.009520539301202151,0.007604585940316728
1730089731.27907,-0.4251297891026821,-0.00801814353573945,9.92250452726368,-0.00040394188968217646,0.02140776595392801,8.649476361414402e-06,0.9997707458777728,-8.051488197985379e-09,0.011246294379727701,0.007968272055886289
1730089731.2870364,-0.43296705681121866,-0.011035810437849918,9.920216026905083,-0.000556090507930742,0.021806874975319385,1.2129482426935929e-05,0.9997620470992252,-4.8308929187912276e-09,0.012707437488305063,0.008186483725228025
1730089731.2951891,-0.4338386947800906,-0.013085830745131826,9.922673649346175,-0.0006592262764054417,0.021845302184051445,1.4404437781001566e-05,0.9997611454671141,-2.8985357512747363e-09,0.014861193537837575,0.0087431007882951
1730089731.3029993,-0.44465674470008554,-0.013837002597469719,9.912895475008094,-0.0006977465865688846,0.02241126879573155,1.5641318649827785e-05,0.9997485923651083,-1.7391214507648417e-09,0.016579137229019113,0.008651380964673312
1730089731.3110573,-0.4679069862731763,0.0012746050821431688,9.920196679536108,6.422438107896502e-05,0.023563906690459276,-1.5137976583800548e-06,0.999722330537045,-1.043472870458905e-09,0.018035593505190066,0.00859634907050024
1730089731.3190248,-0.4890397361974995,0.0022012840453796514,9.925295662750962,0.00011085767433956069,0.02461363431368499,-2.729437187930391e-06,0.999697032459834,-6.26083722275343e-10,0.01890946727089264,0.006860569688148271
1730089731.3271577,-0.5010011256540466,0.0068274342455871655,9.926679111517764,0.0003437794223711356,0.025211009378277187,-8.6697824273593e-06,0.9996820928408551,-3.756502333652058e-10,0.019433791530314184,0.0058191020587370895
1730089731.335379,-0.5072202786639123,-0.028225261864757073,9.91960831529933,-0.0014222133761903856,0.02554139362341654,3.633720289640577e-05,0.9996727530549655,-2.2539014001912347e-10,0.019748386085967108,0.005619911542552412
1730089731.3430164,-0.5107123503038161,-0.03704645106416674,9.924463803876865,-0.0018657696494365334,0.025704240974413234,4.797412731965809e-05,0.9996678491369159,-1.3523408401147407e-10,0.019937142819358863,0.005500397232841605
1730089731.3510354,-0.5080191899674459,-0.049042929232250045,9.92474347519721,-0.00246987769159955,0.025568073816138112,6.317085961045907e-05,0.999670030217453,-8.114045040688444e-11,0.019624706797931886,0.007131448892863247
1730089731.3590584,-0.5128676382480456,-0.052888933808881274,9.920122874669108,-0.0026647868514448995,0.02582353988192932,6.883743031794288e-05,0.999662962683129,-4.868427024413066e-11,0.018160175000689605,0.007684389827414201
1730089731.3670042,-0.5141007660542961,-0.060942620539235014,9.918308195016307,-0.0030711140478616723,0.025890080676176885,7.953842756066162e-05,0.9996600750528775,-2.921056214647839e-11,0.017281455922344237,0.0075904643266827415
1730089731.3750145,-0.5124464410778902,-0.055000925106744133,9.925838513201189,-0.002769603211717903,0.025787509479614095,7.144520269340716e-05,0.9996636076943441,-1.7526337287887034e-11,0.016328534413874985,0.007959799087705898
1730089731.3832552,-0.5133692074201716,-0.04928112635310898,9.917428015147276,-0.002483685007177949,0.025855813960880394,6.42393721611757e-05,0.9996625951122251,-1.051580237273222e-11,0.015756781508793432,0.00775570988285776
1730089731.3910584,-0.5129651865614779,-0.04321562527475601,9.909269254156724,-0.002179791884414791,0.02585682668501809,5.638148583840925e-05,0.9996632782303497,-6.309481423639332e-12,0.014562349642820438,0.007207566298486846
1730089731.399018,-0.5249332025130586,-0.022338072674619232,9.916823846195207,-0.001125859900314254,0.02643895765556501,2.9776990275021477e-05,0.9996497952137553,-3.785688854183599e-12,0.012568620338850547,0.006878680147864297
1730089731.407108,-0.5081719954824445,-0.014121104102818412,9.922074861916343,-0.0007113575853372188,0.025582972031921142,1.8204604147659624e-05,0.9996724489456494,-2.2714133125101594e-12,0.010946692695006581,0.006681348457490768
1730089731.4150784,-0.5069738174066541,-0.015655267442159795,9.923310110020898,-0.0007885448427484983,0.025519591722182242,2.0129904569424163e-05,0.9996740109806551,-1.3628479875060957e-12,0.010399226170162233,0.00656294944326665
1730089731.4232848,-0.5052972298971175,-0.009393160465295878,9.927881981539882,-0.000472910511781081,0.025423695967836703,1.2027021964920519e-05,0.9996766536707425,-8.177087925036574e-13,0.010070746255255624,0.006917600096194212
1730089731.431211,-0.4872924456042861,-0.0006080727928494009,9.926315541462992,-3.061974967316265e-05,0.024523336482606455,7.511243194102169e-07,0.9996992572917255,-4.906252755021945e-13,0.01029934836777369,0.00755608054941278
1730089731.4393888,-0.4963614488078841,0.02333775275983723,9.925136257250843,0.0011753052287495351,0.024981770544204876,-2.9370392145958733e-05,0.9996872155506822,-2.9437516530131665e-13,0.010010819573822497,0.00793916882134392
1730089731.4470756,-0.49270488442144916,0.030522643110980463,9.920597964067301,0.0015378490155925808,0.024809339312491636,-3.8164810301982084e-05,0.9996910173882378,-1.7662509918078999e-13,0.010263392358913815,0.008594711845964637
1730089731.4550354,-0.48189181981302576,0.02669329167713515,9.914283685666945,0.0013457872830728206,0.024281298403239563,-3.2687129517670556e-05,0.9997042594367561,-1.0597505950847398e-13,0.010840626091430636,0.008562347599275034
1730089731.4630697,-0.48138948519836233,0.013861193512140465,9.909298017796653,0.0006991886525081664,0.024268294281120272,-1.697311902580583e-05,0.9997052369272788,-6.358503570508438e-14,0.010761276269478698,0.008117238989799241
1730089731.470987,-0.49042547090417365,0.0028100522889249035,9.904391255746349,0.0001418137632779721,0.024735252842309968,-3.508872912407312e-06,0.9996940267618745,-3.815102142305063e-14,0.009862286253383472,0.007424483762651734
1730089731.4790647,-0.5054238689682855,-0.011482077757504433,9.911742265654839,-0.0005790201714738093,0.025471376627724553,1.4753229996318029e-05,0.9996753840575808,-2.2890612853830377e-14,0.009322892243726335,0.00700883062636323
1730089731.487464,-0.5065220423282369,-0.021972717113487035,9.921180695086264,-0.0011069874024470343,0.025502318385709044,2.823994718200048e-05,0.9996741496799596,-1.3734367712298226e-14,0.008999255837932055,0.00718512880605216
1730089731.4953728,-0.5038290640199891,-0.042392890521998475,9.919182307432616,-0.0021361844740318144,0.025371884137551558,5.421660209793543e-05,0.9996757980824401,-8.240620627378936e-15,0.008805073994455485,0.007716597775327548
1730089731.5030177,-0.5022132770350403,-0.042673986266324085,9.910800669859961,-0.002152170676180719,0.025312015561145304,5.4493363664683946e-05,0.9996772814564139,-4.944372376427361e-15,0.008262874826907513,0.008461169218354814
1730089731.5111125,-0.49262467886750855,-0.043082063878935074,9.913672552794882,-0.0021721492320665842,0.024822458514725365,5.3934830210175376e-05,0.9996895140052398,-2.9666234258564164e-15,0.007937555326378729,0.009333602145633205
1730089731.519002,-0.4741822511681613,-0.04141154911837667,9.91252264056365,-0.0020882160523948024,0.023897588808797905,4.9917693396179616e-05,0.9997122296496468,-1.77997405551385e-15,0.007742363626061458,0.009857061902000239
1730089731.5272174,-0.46024375255636557,-0.04376112258626037,9.91063559239483,-0.00220715166424498,0.02320065428377972,5.1221274880252515e-05,0.9997283908635968,-1.06798443330831e-15,0.007625248605871096,0.010596827817282491
1730089731.535238,-0.45140181305725685,-0.04469202633495935,9.901841918181038,-0.0022561270844321125,0.022775800600973922,5.139856441989772e-05,0.9997380507691758,-6.407906599849859e-16,0.007554979593756879,0.011040687366451842
1730089731.5430877,-0.44370244769763534,-0.03687086277363186,9.90446657913128,-0.0018608303884409976,0.022382079800897205,4.1659762624107374e-05,0.9997477572260495,-3.8447439599099153e-16,0.00793850824795038,0.011307003095953453
1730089731.5511894,-0.4429135511381124,-0.02762918148253849,9.91346340084791,-0.0013931529185357394,0.022322183120881033,3.1105995483112854e-05,0.999749857863496,-2.306846375945949e-16,0.009020005563390544,0.01146679253365442
1730089731.559052,-0.45608716266528937,-0.01059200473913247,9.909045267071246,-0.0005343142005408601,0.02299540392449002,1.2290022461342493e-05,0.9997354278786162,-1.3841078255675694e-16,0.009668903952654642,0.011136976134812968
1730089731.567063,-0.46303364891753296,0.016868553260036143,9.910464529627514,0.0008508054747630499,0.02334170653680019,-1.986467113138613e-05,0.9997271830211425,-8.304646953405416e-17,0.010058242986213103,0.010087706172584032
1730089731.5750058,-0.481327330463801,0.022810400754849813,9.908443045169088,0.001150703939569761,0.024267205851963354,-2.7932613817002292e-05,0.9997048453520424,-4.98278817204325e-17,0.009866156344886145,0.009458144195246671
1730089731.5832095,-0.48296615291695255,0.02493898825564426,9.909384935988172,0.0012579610210821121,0.02434735808681228,-3.063713380056661e-05,0.9997027672011456,-2.98967290322595e-17,0.009750904360089971,0.009080407008844256
1730089731.591079,-0.47987930356657776,0.01568165345143343,9.91378079313587,0.0007906604908683106,0.02418136708239519,-1.912484988615838e-05,0.9997072751442068,-1.79380374193557e-17,0.008830373046288203,0.009279454758464839
1730089731.5990224,-0.4816184964465873,0.010127252568906932,9.923361492238945,0.0005101170770885386,0.02424548400116862,-1.2371673880923267e-05,0.9997059048205419,-1.076282245161342e-17,0.00785236419654511,0.009398883408237187
1730089731.6070175,-0.473085205533968,0.007752292703453534,9.91043513875157,0.00039100189830303323,0.02384765902752358,-9.327133261526553e-06,0.9997155276324495,-6.457693470968051e-18,0.007691248948161287,0.009896230659562629
1730089731.6152554,-0.4607826260059276,0.002496594127931496,9.909383091307584,0.00012593585756063528,0.023230987624087103,-2.9264041373302663e-06,0.9997301162541846,-3.874616082580831e-18,0.007594579799130993,0.010620329071819925
1730089731.6234682,-0.45076745646293154,-0.006881749333787977,9.905878820849004,-0.00034726339036010963,0.022734871291538283,7.897030110659237e-06,0.9997414690674443,-2.3247696495484983e-18,0.00796226837117485,0.011480478180636335
1730089731.6310482,-0.44380067407307144,-0.002453108438163411,9.90353683840784,-0.00012381782746761875,0.022389318629975157,2.772891899463039e-06,0.9997493201161689,-1.394861789729099e-18,0.009034261637325226,0.011570877584464147
1730089731.6393588,-0.44393016762743664,-0.0036266465570386716,9.918651640398219,-0.00018277197995017578,0.02236176333924584,4.088126087412689e-06,0.9997499277909703,-8.369170738374593e-19,0.009677457597015451,0.011625117226760837
1730089731.6470191,-0.43658583861357136,-0.0194142398873482,9.909524588975259,-0.0009793264668240488,0.022012529525702505,2.1562687862856238e-05,0.9997572150270294,-5.021502443024755e-19,0.010063375172829587,0.011657661012138849
1730089731.654985,-0.4448685100040803,-0.02146477073904955,9.915301105924216,-0.0010821216183088656,0.022416455871203746,2.4263442646484724e-05,0.9997481337468267,-3.0129014658148533e-19,0.0107206157797801,0.00997442703751753
1730089731.6631172,-0.4586966589809638,-0.018385526261789104,9.917569915263515,-0.0009266583047761557,0.02310688151940612,2.141791143499509e-05,0.9997325706768323,-1.807740879488912e-19,0.01154065020541244,0.00939017671420677
1730089731.6710515,-0.4562196408963908,-0.02036870223168284,9.919410041199125,-0.001026425796880967,0.022978031893950628,2.3591485990813654e-05,0.9997354429766936,-1.084644527693347e-19,0.012884050983715907,0.008613936458758284
1730089731.679055,-0.4532969090495532,-0.026347011133931578,9.916683394104242,-0.0013280546403459516,0.022837283160293056,3.0337098707855648e-05,0.999738312684069,-6.507867166160082e-20,0.013690091450697987,0.007296812182565128
1730089731.6874347,-0.46088065641606,-0.013174584854187073,9.91720218734145,-0.0006640422497285867,0.023217606855218786,1.5421632424136043e-05,0.9997302143788495,-3.904720299696049e-20,0.013748025669425203,0.0069322276783112665
1730089731.6951609,-0.4587271401875266,-0.009820112240637243,9.91416158095956,-0.0004951189939322568,0.023116381569775288,1.144842022884037e-05,0.9997326580787667,-2.3428321798176294e-20,0.012931406077737469,0.006287786914296918
1730089731.7031426,-0.4576744506164222,-0.007568008506491721,9.902520990323783,-0.00038201929889450674,0.023090492548018385,8.823366913287183e-06,0.9997333060058035,-1.4056993078905777e-20,0.012441434322724827,0.005901122455888309
1730089731.7109976,-0.464464862020244,0.013415707347276842,9.906549963579034,0.0006769193153499929,0.023422988362521626,-1.585982811871222e-05,0.999725414873942,-8.434195847343466e-21,0.012573141331179274,0.0065205039037672064
1730089731.7190619,-0.462793024878162,0.019062752045084855,9.914713431516558,0.0009610632844907003,0.02331960327510791,-2.2417721128988798e-05,0.9997275988777645,-5.060517508406079e-21,0.012652165536251944,0.007317822833956576
1730089731.7272892,-0.46657832591322534,0.01742315537744154,9.92104803327517,0.0008778373486494709,0.0234950479818581,-2.0630533573855327e-05,0.9997235676407257,-3.0363105050436477e-21,0.012699580059295546,0.00822190425353223
1730089731.735091,-0.4638216830479352,0.02098838053115242,9.905216340717056,0.0010591576469747652,0.02339371139323362,-2.4784424987827724e-05,0.9997257683175228,-1.8217863030261885e-21,0.013153718834583739,0.009615733228201685
1730089731.742976,-0.47006856280727677,0.02887359960775395,9.896435585680234,0.001458355962801552,0.023729197263520043,-3.4615400064967665e-05,0.9997173586553796,-1.0930717818157132e-21,0.013426202099756656,0.01087772067446539
1730089731.7509773,-0.47070422850467863,0.02498560507715237,9.889730611662046,0.0012628351261377855,0.023777345338694106,-3.003538250446377e-05,0.9997164809054437,-6.558430690894279e-22,0.013589692058860403,0.011209223080761582
1730089731.7590296,-0.4643818632746821,0.011878900888088297,9.892890232231602,0.0006002036047524664,0.02345109787531905,-1.4079308036516513e-05,0.9997248049167572,-3.9350584145365673e-22,0.013262095972860622,0.011408124524539296
1730089731.7669857,-0.4656162676230124,0.004493718706681102,9.892152382747163,0.0002270701979298549,0.023515100650283394,-5.341055595944691e-06,0.9997234559877073,-2.36103504872194e-22,0.01263984825979872,0.011527465390805925
1730089731.7749636,-0.4658780698999793,-0.015739121559194463,9.901765320029156,-0.0007945342772834135,0.023505462382337448,1.8681062887398684e-05,0.9997233925464046,-1.416621029233164e-22,0.012266499631961579,0.011599069910565902
1730089731.783191,-0.47130239491850323,-0.01854143924411043,9.91040612439054,-0.0009351772046098996,0.02375796869221111,2.222419348433974e-05,0.9997173019775646,-8.499726175398984e-23,0.011616800393797262,0.012493412745345952
1730089731.791008,-0.46593786395305503,-0.030517896993731877,9.908647422192919,-0.001539515314812801,0.023492071294285856,3.6176430295829574e-05,0.9997228371754672,-5.0998357052393903e-23,0.011652670912360705,0.013030018446213983
1730089731.7990901,-0.46032494371362986,-0.02908464566694225,9.90783162104036,-0.001467344366430178,0.02321145457189206,3.406841259219885e-05,0.9997295004732583,-3.059901423143634e-23,0.011674193223498771,0.012500601743810739
1730089731.8071349,-0.4425919816090373,-0.030618896531024724,9.896089392546092,-0.0015466127208076982,0.02234507830592434,3.4567854715803724e-05,0.9997491206646082,-1.8359408538861804e-23,0.01168710661018161,0.010905881537982696
1730089731.815022,-0.43626176733456296,-0.02435684206900546,9.908676509062811,-0.0012287542546616937,0.021998063311831125,2.7036776853818545e-05,0.9997572578593881,-1.1015645123317081e-23,0.011694854642191313,0.009523359353023838
1730089731.8231754,-0.4372520420901909,-0.01533236573945015,9.922453703289248,-0.000772414106608235,0.022017405734373698,1.7010683459943308e-05,0.9997572890115943,-6.609387073990248e-24,0.011699503461397136,0.008268155980586493
1730089731.8309748,-0.43425490445333326,-0.0010591337991388385,9.925692196338785,-5.333988601597437e-05,0.02185961303733474,1.1662679490226902e-06,0.9997610486868121,-3.965632244394149e-24,0.012127982814382661,0.006663653834200022
1730089731.8393035,-0.43413256303332803,0.003674082708797947,9.927635292168505,0.00018499724288878247,0.021849190533135436,-4.043005231742936e-06,0.9997612608181621,-2.379379346636489e-24,0.012385070426173976,0.003998192300520013
1730089731.8471794,-0.43884756150163745,0.007711113443638143,9.935983754646806,0.0003879413903113832,0.02206760687405972,-8.563023997901914e-06,0.9997564054083395,-1.4276276079818935e-24,0.012965013054710796,0.004101675626160134
1730089731.8550107,-0.42635366995762314,-0.001119415918192115,9.919684437358395,-5.641043419277816e-05,0.021475414127535654,1.2117168874799515e-06,0.9997693751083024,-8.56576564789136e-25,0.01416435875475695,0.0045894556830062385
1730089731.8629494,-0.4363350071503551,0.0017225521092409809,9.90655296466113,8.691813567930976e-05,0.022006542982907162,-1.913231029507965e-06,0.9997578229288925,-5.139459388734816e-25,0.01445827611332261,0.005307813778575933
1730089731.8709085,-0.4547736580988068,0.003188312759685213,9.905138425525195,0.00016089831362728422,0.02293832757164812,-3.6917096269757e-06,0.9997368689941967,-3.0836756332408894e-25,0.014634626528462008,0.0070158988203038435
1730089731.878925,-0.47086467215420597,0.001673567489795503,9.896867676897148,8.452551826577633e-05,0.023768406919753873,-2.00960465080296e-06,0.9997174879354143,-1.8502053799445336e-25,0.015166126839007678,0.008466439906802622
1730089731.8869824,-0.47166073444486734,-0.005939044320575824,9.898848412534774,-0.00029989818246416866,0.0238037616153025,7.1407284887384985e-06,0.9997166053152523,-1.11012322796672e-25,0.015910717086797112,0.010188144681625953
1730089731.8951287,-0.4726172121512954,-0.004042266924376744,9.890220627110708,-0.00020429617608885966,0.023872725536460436,4.878496984781767e-06,0.999714984990589,-6.66073936780032e-26,0.015506091112546711,0.011646857607981984
1730089731.9030561,-0.4679238551228085,-0.02517027592611042,9.895339022994941,-0.00127145259781094,0.023623756696691776,3.0044896053657077e-05,0.9997201111436798,-0.0017027602458481264,0.015263315527996469,0.011670705240871538
1730089731.9110858,-0.4615165384154819,-0.03641056033105688,9.90224078318173,-0.001837973320876061,0.02328448867791077,4.280794745528198e-05,0.9997271890913839,-0.0010216561475088757,0.015117650177266323,0.009982253574757145
1730089731.919084,-0.4677277953637422,-0.033338504167384125,9.912367343444195,-0.0016811688957982056,0.023573305383550482,3.964177986265182e-05,0.9997206966813116,-0.0006129936885053254,0.015030250966828237,0.008969182575088507
1730089731.9273555,-0.46810266720847976,-0.037241354453555475,9.925865304748157,-0.0018754237219554125,0.023560097581106422,4.419751192641111e-05,0.9997206623024313,-0.00036779621310319523,0.015403501502027416,0.008361339975287325
1730089731.9352713,-0.4745525146317285,-0.025217854664320784,9.92438727488991,-0.001270119185306578,0.023887838153662973,3.034908630221001e-05,0.9997138375878032,-0.00022067772786191713,0.015201761761684893,0.006719564231020521
1730089731.9430695,-0.4619024316305995,-0.02327099844312372,9.920387994816759,-0.0011725550192845558,0.02326148225367205,2.7282768848029456e-05,0.9997287271123799,-0.00013240663671715028,0.014655027856017348,0.005734498784460439
1730089731.9510698,-0.4679593312928128,-0.025694187200639852,9.923973930923259,-0.001294174424079184,0.023557485147392858,3.0495983458535785e-05,0.9997216457975117,-7.944398203029017e-05,0.01432698751261682,0.00514345951652439
1730089731.959185,-0.4634531854456096,-0.019965495474680788,9.921337089266844,-0.0010059032162784416,0.023337243219821346,2.3481415079601594e-05,0.9997271431176817,-4.7666389218174096e-05,0.014555853368038534,0.004788835955762761
1730089731.9670901,-0.4712839852419751,-0.010782196454730348,9.916403101948777,-0.0005434949723254964,0.02374273374277648,1.290769698605148e-05,0.9997179537454681,-2.8599833530904456e-05,0.014267482819829532,0.005001751880767815
1730089731.9750602,-0.4790949272779975,-0.009581780031041334,9.916794591882157,-0.000482962201249471,0.02413461060438958,1.1659502229515369e-05,0.9997086011346219,-1.7159900118542672e-05,0.01409446049090413,0.006406571620156941
1730089731.9830668,-0.4732470051949236,-0.0134105133311248,9.919663107668358,-0.0006757559212960236,0.023833628628294388,1.6110295664110602e-05,0.9997157102100586,-1.0295940071125602e-05,0.014416337155010919,0.00767515352525245
1730089731.9912899,-0.4649498486247667,-0.0018213836822686298,9.919468855811951,-9.178234409570166e-05,0.023416945150125504,2.1498516464731103e-06,0.9997257815277225,-6.177564042675361e-06,0.015035153214937026,0.00971337285269585
1730089731.9990327,-0.47098488231939123,0.0159060015777482,9.912409119883657,0.0008020918396108867,0.023737214491878336,-1.904479837325384e-05,0.9997179106798793,-3.7065384256052164e-06,0.014980752789430656,0.011361994510623922
1730089732.0071838,-0.46287431440140037,0.009064760614617667,9.917510664801288,0.00045687848666188015,0.02331716660236368,-1.0656010081878096e-05,0.9997280134567279,-2.2239230553631297e-06,0.014522422472664803,0.011925477443918732
1730089732.015071,-0.45321957033029325,0.014776242843379977,9.92464173457413,0.000744219825295573,0.022815180880390706,-1.698393555637359e-05,0.9997394227346407,-1.3343538332178779e-06,0.014247424282605291,0.011837877142433586
1730089732.0233533,-0.4582006313583322,-0.00286584242873764,9.938976023410495,-0.00014413213377755524,0.023032348614750352,3.3205824694853425e-06,0.9997347098766703,-0.0017035608581480572,0.014082425368569587,0.010933936838618437
1730089732.031062,-0.45951332681304624,-0.011296312097867583,9.936563269075593,-0.0005682634052039331,0.023103810583667072,1.313255765354482e-05,0.9997329097517759,-0.0031505868221989924,0.013983426020148165,0.009114502471943252
1730089732.039132,-0.4571884819276714,-0.02712850137004867,9.9281724316602,-0.0013658585006017876,0.02300641387577478,3.143185476709191e-05,0.9997343839056309,-0.0018903520933193953,0.014349716472557342,0.00802284185193814
1730089732.0470366,-0.45603299516246226,-0.039500856925544836,9.91020924024612,-0.0019923778852423287,0.022989769347391772,4.581650833094502e-05,0.9997337139641554,-0.0011342112559916372,0.01499518080546488,0.006942155418473043
1730089732.0550568,-0.46802897190216486,-0.03351674096196753,9.924091602497281,-0.0016881606103565413,0.023560637022729296,3.978524011385906e-05,0.9997209835318911,-0.0006805267535949823,0.015382459405209402,0.006719433619856015
1730089732.0630884,-0.4680439529655176,-0.02944743105178989,9.928829717357745,-0.0014824929319236682,0.023550203306139876,3.4922733983143275e-05,0.9997215556940587,-0.0004083160521569894,0.015614826565056115,0.00701149060214783
1730089732.0709875,-0.46733468110548243,-0.019823240125214556,9.9328696871041,-0.0009975724528220543,0.023505097094213126,2.3454529128925567e-05,0.9997232190509922,-0.0002449896312941936,0.015754246860964143,0.007186724791522919
1730089732.079152,-0.4705004204796957,-0.009260322248956858,9.936251349615976,-0.0004658509369976342,0.023656060619793768,1.1023283999752276e-05,0.9997200476420107,-0.00014699377877651617,0.01626358909997099,0.007291865305147973
1730089732.0873096,-0.4831737715749268,0.0009081511330477599,9.933013103470758,4.569973943773955e-05,0.024300063461489194,-1.110834588172926e-06,0.9997047088145916,-8.81962672659097e-05,0.016994884504837132,0.007780639674785036
1730089732.095273,-0.47760967310120606,-0.006398294134624469,9.912155962668391,-0.0003226525583669801,0.024071167999362025,7.768875394014685e-06,0.9997101953596941,-5.291776035954582e-05,0.017007971686294785,0.008925284419491338
1730089732.1030843,-0.48528454165369234,-0.007669699137024683,9.91185210665377,-0.0003867748986169842,0.02445803286325515,9.462584549994428e-06,0.9997007827065543,-3.1750656215727495e-05,0.017015823995169377,0.01003776132777715
1730089732.1110957,-0.4800732359785435,-0.0002922564939335592,9.918852398025464,-1.4727894859757287e-05,0.024178812571989013,3.5620714667146987e-07,0.9997076496684273,-1.9050393729436497e-05,0.016169155257570067,0.009853867349824574
1730089732.1191988,-0.48484731805196984,-0.012385782363157011,9.918264169528168,-0.0006241986144258007,0.02442025250223094,1.5247637881683045e-05,0.9997015861802594,-1.1430236237661898e-05,0.01523546395354845,0.009317840901590997
1730089732.1270788,-0.4896271286241506,-0.01485349456437858,9.91144688794737,-0.0007490721399007849,0.02467748026498019,1.8490849259818425e-05,0.9996951838019373,-6.858141742597138e-06,0.015526629294059544,0.00857053497118882
1730089732.135276,-0.47956632600261534,-0.004363113584330273,9.895864351030141,-0.00022038414805009753,0.02420933346068239,5.3369176504426806e-06,0.9997068868302018,-4.114885045558283e-06,0.0157013284983662,0.00727077129002345
1730089732.1430492,-0.47376926459570984,-0.0004630866564575383,9.899922358176676,-2.3381445701107154e-05,0.023907408852569808,5.59149599879618e-07,0.9997141767800192,-2.4689310273349695e-06,0.015380457959488163,0.00691660314278626
1730089732.1513097,-0.46981218741953523,0.006904752986594226,9.912652229603273,0.0003481781797468258,0.02367766236614636,-8.246357792421989e-06,0.9997195841878999,-1.4813586164009817e-06,0.015187935636161339,0.007129792315905976
1730089732.1589913,-0.4674379411138305,-0.005433954848668464,9.913346967644777,-0.00027399353482702294,0.02355655889462423,6.456136623133232e-06,0.9997224681975019,-8.88815169840589e-07,0.015072422242165245,0.007257705819777806
1730089732.1669965,-0.47870266212923585,-0.024089927352560457,9.92118583561616,-0.0012136953635765496,0.024104154948532658,2.9263625145045502e-05,0.9997087154773744,-5.332891019043534e-07,0.014577424144305559,0.006908763860638874
1730089732.1750453,-0.4744481671017602,-0.017805838735755024,9.921579593410712,-0.0008970613949688317,0.02388938968884391,2.1436375646031316e-05,0.9997142051014529,-3.19973461142612e-07,0.014280425285589746,0.0066993986851555136
1730089732.1830902,-0.4718954700852749,-0.009007562079343638,9.929237873233925,-0.00045345466001863024,0.023742814579201837,1.0769326898121075e-05,0.9997179967464578,-1.919840766855672e-07,0.01452791603182229,0.006999469641327529
1730089732.1910923,-0.46270240656288364,-0.012826562394090557,9.932396320131762,-0.0006455109381144927,0.02327363318367426,1.5027458375993815e-05,0.9997289238029656,-1.1519044601134032e-07,0.014676410479561815,0.006753822153568707
1730089732.199047,-0.4523981651291364,-0.02038520623528246,9.933094287440385,-0.001025847736742559,0.02275451787350023,2.334872835222203e-05,0.9997405558481672,-6.91142676068042e-08,0.014339817086743499,0.007032123722375445
1730089732.207238,-0.45339822524935675,-0.0201319892196851,9.914359454544307,-0.001015017278075946,0.022847767294994766,2.3196945959376057e-05,0.9997384401589551,-4.1468560564082515e-08,0.013712170989590478,0.00762479472512152
1730089732.2150671,-0.454716521819536,-0.021416580006420435,9.914371302609398,-0.0010797807304616042,0.022914059696037634,2.47486726048408e-05,0.9997368550420275,-2.4881136338449507e-08,0.013761273392760696,0.007980397326769164
1730089732.2231066,-0.4588593820858622,-0.03008819995697726,9.922518697092983,-0.0015157312544298947,0.02310347252999671,3.502804538474473e-05,0.9997319295135352,-1.4928681803069702e-08,0.01464211495758689,0.007768068826295719
1730089732.230978,-0.4678094427280798,-0.038164213919498854,9.923097570794852,-0.0019224335867778577,0.02355190963666146,4.528962852741788e-05,0.999720765889366,-8.957209081841821e-09,0.014744929835020577,0.008492051848935716
1730089732.2393994,-0.4743765799434885,-0.04013678030482431,9.914586348873396,-0.0020235139299626995,0.02390241383000303,4.838078904107539e-05,0.9997122474311164,-5.3743254491050925e-09,0.014380928700018756,0.008926441662519713
1730089732.2472687,-0.4854994672532025,-0.024560908514925834,9.918098741697083,-0.001237798397574882,0.024453377712354365,3.0277428778797856e-05,0.9997002046898166,-3.2245952694630556e-09,0.014162528019017663,0.009612765612132144
1730089732.2549827,-0.48403291399449955,-0.017609587101143,9.92116385805536,-0.0008872006446422093,0.024372169753014962,2.1629438162464217e-05,0.9997025606392702,-1.934757161677833e-09,0.013605797548954976,0.009598869920437571
1730089732.2630472,-0.4879413853595903,-0.016790676577092052,9.913665541395716,-0.0008465778446174857,0.024587168868640513,2.0821254370227755e-05,0.9996973311955241,-1.1608542970066998e-09,0.013271759266917364,0.009164842443958796
1730089732.2709973,-0.4680203927391917,-0.03138280072164586,9.910363652230009,-0.0015828681268611634,0.0235928075939676,3.735474765597328e-05,0.99972039719261,-6.965125782040199e-10,0.013497026359156828,0.0084787358966095
1730089732.279083,-0.47498199028218696,-0.01859026026697189,9.91341034221691,-0.0009373513049188304,0.023935892796868308,2.2442780173504762e-05,0.9997130557839432,-4.179075469224119e-10,0.013206496553038476,0.008067071968199922
1730089732.2872996,-0.473412864823609,-0.0025350301836206328,9.917871978035224,-0.0001277633138676603,0.02384629205692775,3.0475479321893456e-06,0.999715628577639,-2.5074452815344716e-10,0.013457868730829495,0.0073943835496921425
1730089732.2952633,-0.49258268349377476,-0.01540738773907863,9.91959127886215,-0.0007763647933994454,0.024805819129301406,1.9264298303982018e-05,0.9996919866758555,-1.5044671689206828e-10,0.012757311914580044,0.0069907704985874754
1730089732.303105,-0.4894799445689211,-0.008765592311415927,9.930678506330961,-0.00044119975137384853,0.024622409392377663,1.086669649841024e-05,0.9996967251023724,-9.026803013524097e-11,0.011911287763368344,0.006748602667924675
1730089732.3110778,-0.5029411918390089,-0.015793842691537056,9.913628246376703,-0.00079630544290914,0.02534166951213883,2.0186198602663916e-05,0.9996785309670787,-5.416081808114458e-11,0.01097798321117929,0.007454682092451058
1730089732.3193111,-0.4980892512362178,-0.0006177594723441081,9.9103412752186,-3.1157198998622614e-05,0.025106007216391134,7.824795051073143e-07,0.9996847940377342,-3.249649084868675e-11,0.01084369054132789,0.00830401980862892
1730089732.3274407,-0.48416475923782437,-0.007553260663875214,9.926086184808895,-0.00038035769542671356,0.024366767871128906,9.270840983994518e-06,0.9997030138324029,-1.949789450921205e-11,0.01076311493941705,0.009665002561259699
1730089732.3350723,-0.47748600520089773,-0.028713393165903253,9.92140734076815,-0.001446602768155568,0.02404242579100451,3.478993254489896e-05,0.9997098918647228,-1.1698736705527229e-11,0.009863389455346483,0.01133297233576223
1730089732.3434389,-0.4691691897904605,-0.02417122071399508,9.910938589031204,-0.001219063943050865,0.02364931172639613,2.8838110210461682e-05,0.9997195722333008,-7.019242023316337e-12,0.009323554164904142,0.012759444261925781
1730089732.3511558,-0.4852480751535732,-0.021206497076834547,9.902981396826926,-0.0010703772495564482,0.024478004940772555,2.6208567536231078e-05,0.9996997953784796,-4.211545213989802e-12,0.008573962929176707,0.013615327417623911
1730089732.3590622,-0.4941771458733939,-0.026610267875006977,9.90299548482467,-0.001343108548146487,0.02492751763552096,3.3490799148551715e-05,0.9996883583409008,-2.5269271283938812e-12,0.007272828064816182,0.013703167249580758
1730089732.3669517,-0.48971836149864567,-0.02482470686758231,9.90563755944949,-0.0012526590714405789,0.024696456616379425,3.094570327771769e-05,0.9996942107055584,-1.5161562770363288e-12,0.006492147146199867,0.013330181087292834
1730089732.375059,-0.47483266240699995,-0.02471105092719001,9.90339208156813,-0.0012472302129789804,0.02395250439361249,2.988288388971077e-05,0.9997123191484053,-9.096937662217973e-13,0.005598048533568046,0.01310638938992008
1730089732.3833253,-0.4742809487625594,-0.02416401703092338,9.906354357827597,-0.0012192564935964124,0.023917583735659668,2.917003554616012e-05,0.9997131897454187,-5.458162597330784e-13,0.0050615893659889544,0.012972114371496427
1730089732.3910296,-0.46844325675753556,-0.0219204353650384,9.906695202587184,-0.0011060213613839566,0.023622893779515448,2.6134734282016088e-05,0.9997203283534878,-3.27489755839847e-13,0.004739713865441499,0.01161447917605614
1730089732.3990047,-0.46039165840022445,-0.018898345203398042,9.921264919403871,-0.0009521485845008675,0.023183503416808644,2.2080084521288923e-05,0.9997307728057918,-1.964938535039082e-13,0.0028438283192648993,0.010374207997329937
1730089732.4070115,-0.4656163463584941,-0.009902486125945072,9.916359800030996,-0.0004991573828775743,0.02345778376043662,1.1712350317273368e-05,0.9997247036488478,-1.178963121023449e-13,0.0017062969915589395,0.009204355228632183
1730089732.4151106,-0.4663569574732996,-0.013363516822051417,9.913416728407269,-0.0006738175707402446,0.023501985650385714,1.5840429759617993e-05,0.9997235629860143,-7.073778726140694e-14,0.0010237781949353636,0.009353823690337593
1730089732.4233348,-0.46536480314608913,-0.0113699924174496,9.92386131389983,-0.00057269750537311,0.023427434125541994,1.3420518679194513e-05,0.99972537587467,-4.2442672356844164e-14,0.0006142669169612181,0.010294884890284904
1730089732.4310482,-0.4614176282255441,-0.01591996175906351,9.940662552500052,-0.0008005247995506825,0.02318983263859775,1.8569035670483685e-05,0.9997307589933552,-2.5465603414106496e-14,0.0003685601501767309,0.011710901733177353
1730089732.4390872,-0.4604858442693109,-0.019368203862078732,9.92871664038675,-0.00097508916288031,0.023170860785027607,2.2599733584968258e-05,0.9997310437817051,-1.5279362048463897e-14,0.00022113609010603852,0.013411891961836885
1730089732.44715,-0.45034996725494586,-0.022394829787950363,9.927534597269158,-0.0011276114903759934,0.02266431102924289,2.5563120162439524e-05,0.9997424952678682,-9.167617229078338e-15,0.0018354418999117494,0.015283866221956668
1730089732.455154,-0.44857800403460807,-0.023492544845426466,9.914854363097822,-0.0011843972535124819,0.022604091957466484,2.677908542343663e-05,0.9997437929353725,-5.5005703374470025e-15,0.003229715447257208,0.016407050778028537
1730089732.4631522,-0.43027657414928044,-0.026784795706084007,9.926639256042286,-0.0013488043609477546,0.021657472254821068,2.9218572854016167e-05,0.9997645391633985,-3.3003422024682013e-15,0.004066279575664483,0.016655271450209626
1730089732.471,-0.4312667245188651,-0.027563045392400405,9.90761339371326,-0.001390657045195961,0.021748859677737133,3.0252389941158936e-05,0.9997624979266294,-1.9802053214809206e-15,0.0041425279912468155,0.01595282373059422
1730089732.4790301,-0.4186927056097566,-0.022762751551846493,9.902183380466237,-0.0011491113322044857,0.021127206210409036,2.4282948176447885e-05,0.9997761349978441,-1.1881231928885523e-15,0.004613967102058247,0.015105665037362943
1730089732.4872186,-0.43532973103186956,-0.016530692923295395,9.920473187459429,-0.0008329513403257154,0.021925114021327935,1.8266950538687682e-05,0.9997592686409739,-7.128739157331314e-16,0.004896830568545106,0.013320299637038083
1730089732.4953582,-0.44626962694919986,-0.006327113263742862,9.925222147338937,-0.0003186554191912885,0.022464566359897742,7.160263139706374e-06,0.999747588977196,-4.277243494398788e-16,0.005066548648437222,0.011823390335381134
1730089732.5029087,-0.4449326990210824,-0.006669309950433217,9.923283119946332,-0.00033595575439943163,0.02240173800961194,7.527882343262747e-06,0.9997489931033743,-2.5663460966392726e-16,0.005168379496372492,0.010499554692924934
1730089732.5111754,-0.43718735744975884,-0.00687462796244743,9.931457089985376,-0.0003460165553764742,0.021994251522554166,7.612217022621238e-06,0.9997580372843022,-1.5398076579835635e-16,0.004803787943671621,0.008853873184527149
1730089732.518951,-0.4402015978194646,0.009043332353390917,9.934446110680677,0.00045503413997525594,0.022139013137201062,-1.0076477571129942e-05,0.999754798407943,-9.23884594790138e-17,0.005010723073513131,0.007866464279488478
1730089732.5270522,-0.4338698563967569,0.004947159080003299,9.926423296291219,0.00024912958931983925,0.021838648641784857,-5.441951596859209e-06,0.9997614772186081,-5.543307568740828e-17,0.0059862642743421,0.007274018936465276
1730089732.5350177,-0.431507332539226,0.010390320594486354,9.922327868155591,0.0005234540263953317,0.021728841410321914,-1.1376737122797695e-05,0.9997637637549268,-3.3259845412444967e-17,0.006571588994839481,0.006918551730651356
1730089732.5429688,-0.4241043140743168,0.005037091526613688,9.922983073432416,0.0002537491151002867,0.021355174774732144,-5.4200929164978454e-06,0.99977192003594,-1.995590724746698e-17,0.007348473888599941,0.0075566515300870656
1730089732.5509665,-0.42133844415748073,0.010204859896436963,9.925530978092652,0.0005139507474676393,0.021210642470031627,-1.0903680004400921e-05,0.9997748968551609,-1.1973544348480188e-17,0.007388914763394186,0.008365201471210525
1730089732.5589218,-0.4256644263577697,0.019530445234737178,9.921792477236451,0.0009839829594900462,0.02143614403586989,-2.1097658500389794e-05,0.9997697350196683,-7.184126609088113e-18,0.007838869349732765,0.009276021497346632
1730089732.5669305,-0.4208379905314587,0.005014502492404805,9.916676334730543,0.0002527726653230078,0.02120438473578543,-5.361094396625527e-06,0.9997751297893017,-4.310475965452868e-18,0.00768315204007388,0.010673893635952357
1730089732.5749595,-0.40644996106692205,-0.010877668133463369,9.91121244756684,-0.0005486355876940352,0.020491620276939126,1.1244794956000287e-05,0.9997898741090411,-2.5862855792717206e-18,0.007589721654278549,0.011512616919115794
1730089732.583024,-0.39805656355421576,-0.01418804619257802,9.901709190952214,-0.0007162933889652194,0.020088201925721232,1.4391954057677582e-05,0.9997979550189349,-1.5517713475630323e-18,0.008810733607187446,0.012015850889013855
1730089732.5910182,-0.39613298720479506,-0.02024441585031244,9.90678114445414,-0.0010215316384358766,0.019980994844475235,2.0415304770958182e-05,0.9997998379182466,-9.310628085378193e-19,0.009117650717470751,0.012743481332414725
1730089732.5989285,-0.40096434554553323,-0.008315926853937462,9.902881131740843,-0.0004197846140933104,0.02023239093950141,8.494986059400323e-06,0.9997952160645619,-5.586376851226915e-19,0.009301800983640734,0.013180059598455246
1730089732.6071143,-0.4163130091827887,-0.008341438436581229,9.895513300626538,-0.00042137880579258406,0.021021487516242363,8.85996793193283e-06,0.9997789352771979,-3.3518261107361493e-19,0.008986601081880694,0.013016316496617527
1730089732.6151729,-0.4192972830487357,-0.008117325220151862,9.898514627104438,-0.0004099318060507958,0.021165564438967166,8.678382879802303e-06,0.9997759002709458,-2.0110956664416895e-19,0.008371791079362638,0.012066690512590832
1730089732.6233864,-0.4400020404835383,-0.008940537954356741,9.9067797674736,-0.00045111760442934627,0.022190699541114307,1.0013081897466789e-05,0.9997536542801537,-1.2066573998650137e-19,0.007577215016389772,0.011071224860712783
1730089732.6309826,-0.44691823112606044,-0.008955625262848418,9.903119725718534,-0.00045204212766820554,0.022547295002634776,1.0194920027349856e-05,0.9997456751804644,-7.239944399190082e-20,0.007526159440068084,0.010048255408123923
1730089732.6391876,-0.4357450548865738,0.0065976331430721985,9.909782246808073,0.0003328012511395509,0.02196967504038611,-7.313300902001652e-06,0.9997585821429406,-4.343966639514049e-20,0.007921216155737102,0.008583093613646543
1730089732.647015,-0.4393362162815536,0.0006066975616245685,9.91904700311414,3.0574662777338046e-05,0.02212981830834805,-6.767774714415721e-07,0.9997551051164337,-2.606379983708429e-20,0.008583940246600546,0.0077039965369601155
1730089732.6549242,-0.43598424930018215,-0.01304351075990026,9.917662672083326,-0.00065742453986051,0.021964258727067674,1.4443330169043737e-05,0.9997585403100766,-1.5638279902250574e-20,0.008555884639656581,0.007176538290948259
1730089732.663008,-0.42942408595706244,-0.007347266123908906,9.910607149148435,-0.00037058645790320695,0.02164963065718492,8.024941383143472e-06,0.9997655505635734,-9.382967941350344e-21,0.008964741336952232,0.006860063343341145
1730089732.6711242,-0.4233332064570499,0.000619463811982782,9.930794692321092,3.1181676268113474e-05,0.021299658297263963,-6.643097575768909e-07,0.9997731360582167,-5.629780764810206e-21,0.008784365293867592,0.00752155849770094
1730089732.6789317,-0.41584795610079245,0.0022870396153146693,9.917768100793046,0.00011527379199025153,0.020950988522432674,-2.4156301302552682e-06,0.9997804973023081,-3.3778684588861235e-21,0.008250449606554777,0.00876983571324088
1730089732.6872172,-0.4214124528596942,-0.0041344400491705735,9.904206061891843,-0.000208672349635866,0.021259989997690833,4.437375094386429e-06,0.9997739590834812,-2.026721075331674e-21,0.007504410132705056,0.010370182165488906
1730089732.695243,-0.4297789744013634,-0.006790227017783593,9.911870569508151,-0.0003424463747324822,0.021664740472877878,7.420753980453902e-06,0.9997652332901238,-1.2160326451990043e-21,0.006631096386933192,0.011330390036837723
1730089732.7029052,-0.44102381164277116,0.0009536872756579686,9.917426954742,4.806904172979669e-05,0.022218322064126512,-1.068277163810877e-06,0.9997531414568702,-7.296195871194026e-22,0.006107108139470073,0.011480824698184981
1730089732.7109947,-0.44920723498370957,-0.0046950312869489695,9.9037619540952,-0.0002369693942138179,0.022661140265684124,5.371376183085168e-06,0.9997431752897908,-4.377717522716415e-22,0.006218405252454233,0.011571085494993336
1730089732.719107,-0.4454981630117101,0.0043655862082993685,9.90609744101181,0.00022029056567809025,0.022469023311812837,-4.950963898003995e-06,0.9997475153452334,-2.626630513629849e-22,0.005859493458782698,0.010348171788692254
1730089732.727177,-0.43106229136171353,0.008126015543338996,9.909414094489899,0.0004099140963327674,0.02173471593053222,-8.91147231788387e-06,0.999763689085795,-1.5759783081779092e-22,0.005218456321117745,0.009188733503449573
1730089732.7352958,-0.427907432190075,0.004875609326003398,9.900630179106049,0.0002461674802960534,0.021594988079645643,-5.317223934827155e-06,0.9997667707336241,-9.455869849067455e-23,0.005259524099980805,0.008918760593765996
1730089732.742944,-0.43463364266365434,0.008432029413961414,9.901584754192145,0.0004256852790561328,0.021931832229839687,-9.338305126771771e-06,0.999759377770412,-5.673521909440473e-23,0.0052841647672986405,0.00833108678649382
1730089732.7509997,-0.43340212529545824,3.139416204872375e-05,9.899763297583645,1.5852070879392628e-06,0.02187380645652715,-3.4682811255911394e-08,0.9997607396715418,-3.4041131456642836e-23,0.003170498860379184,0.007978482502130513
1730089732.7592294,-0.4290719123843062,-0.016979995289880142,9.913993314243546,-0.0008561558669038712,0.021624490294215815,1.8518271276085404e-05,0.9997657966112466,-2.0424678873985702e-23,0.0019022993162275104,0.008618300054436593
1730089732.766993,-0.4209671208192556,-0.01952538364853746,9.914630458760971,-0.0009844433860779962,0.021215205288072032,2.0889880298768175e-05,0.9997744473127014,-1.225480732439142e-23,0.0028441398355846326,0.010279260770206335
1730089732.774978,-0.42328685086069395,-0.018897835169591225,9.918843468127678,-0.0009523963593623147,0.021322907058163365,2.0312486499016638e-05,0.9997721871322319,-7.352884394634851e-24,0.003409244147198906,0.011701527261130211
1730089732.7829723,-0.41989028556524444,-0.021873188406442232,9.927596198064107,-0.0011013777910975602,0.02113339694780123,2.3281067659842172e-05,0.9997760579041688,-4.4117306367809104e-24,0.004173996795629502,0.013406267278608601
1730089732.7911775,-0.40707843891727163,-0.01647579536808409,9.933326676357995,-0.0008291373981217787,0.020477613181991428,1.6982321748813062e-05,0.9997899677437979,-2.6470383820685463e-24,0.004632848384687859,0.014429111289095634
1730089732.7989445,-0.40082785192458176,-0.02161706535561608,9.925512215531594,-0.00108873216994993,0.020179401486320952,2.1974451144428757e-05,0.9997957821150475,-1.5882230292411278e-24,0.005333849399584905,0.014617127633925822
1730089732.8074777,-0.39707749972896783,-0.018476903031729025,9.923936001193955,-0.0009307313954916351,0.019994007230971875,1.861277901533178e-05,0.9997996664669786,-9.529338175446765e-25,0.005328759947061101,0.014304247379361906
1730089732.8149967,-0.39626380940769323,-0.012043822483099915,9.904794339974185,-0.0006078527246296529,0.01999162380428714,1.2154394331857233e-05,0.9997999626650341,-5.717602905268059e-25,0.005325706275546819,0.014116519226623554
1730089732.823119,-0.3945784943848503,-0.010338755648063075,9.913420637187636,-0.0005213449919986002,0.019889403772973567,1.037129404581022e-05,0.9998020502626463,-3.430561743160835e-25,0.004898184011176218,0.013578192273518511
1730089732.8310595,-0.40146817084966013,-0.0009360097364940947,9.913808012195394,-4.7197323321459425e-05,0.020235490702330817,9.552565952232402e-07,0.9997952403805171,-2.058337045896501e-25,0.005067360714015889,0.013255196101655486
1730089732.8393989,-0.39674343058596795,0.0011143353202129184,9.91236449603794,5.619766554954635e-05,0.020000542199426475,-1.124208659523334e-06,0.9997999675696572,-1.2350022275379005e-25,0.005594556797181723,0.012210018275613608
1730089732.847074,-0.41234393921095575,0.006175265010487126,9.90814650401925,0.00031155551301640115,0.020794824198761004,-6.480143674673276e-06,0.9997837156994069,-7.410013365227403e-26,0.005910874447081224,0.011582911579988482
1730089732.855244,-0.4236196057140735,-0.005392807302301474,9.911122372626393,-0.00027199379176569104,0.02135629258568036,5.810104333437196e-06,0.9997718913595314,-4.446008019136442e-26,0.0061006650370209236,0.011632337624075437
1730089732.8630474,-0.4385252912604753,-0.016643213678255882,9.913147313956694,-0.0008392373847914432,0.02210211893030732,1.8553463298944453e-05,0.999755365914668,-2.667604811481865e-26,0.0062145393909847435,0.01208768331198964
1730089732.8709822,-0.44794754292034766,-0.008309987044844154,9.911010396430658,-0.0004191187742857572,0.02258118174760252,9.466611914771275e-06,0.999744924708657,-1.6005628868891188e-26,0.0062828640033630355,0.012360890724738165
1730089732.8791015,-0.4521643729201774,0.0009995119234841325,9.914756069401363,5.039166067636868e-05,0.022784836048279262,-1.1484638786676813e-06,0.9997403906543011,-9.603377321334712e-27,0.005898168709327979,0.012524815172387278
1730089732.8870506,-0.44200520212124705,0.0068246314704967295,9.91628521268574,0.0003440234795000405,0.022270243646928842,-7.6633877795239e-06,0.9997519281486905,-5.762026392800827e-27,0.005667351532906945,0.012623169840976747
1730089732.8953924,-0.43782506097001384,0.007925501538548037,9.914569076830194,0.000399588372604511,0.02206374841720533,-8.818564767752172e-06,0.9997564859790347,-3.457215835680496e-27,0.005528861227054325,0.012682182642130427
1730089732.9029775,-0.4166422033300552,0.014571527729769449,9.906596210502412,0.0007352762201999684,0.02101456389744578,-1.5454926208610118e-05,0.9997788991743252,-2.0743295014082975e-27,0.003317316736232595,0.012717590322822636
1730089732.9110699,-0.4142275558847518,0.013052479626142918,9.90037596970965,0.0006590408410614787,0.020906049054841447,-1.3780955048246664e-05,0.9997812273633526,-1.2445977008449785e-27,0.001990390041739557,0.013164524992699992
1730089732.9190338,-0.4204402127300698,0.008070907941701375,9.89137658158165,0.00040788117198610344,0.0212384751086587,-8.664729272145865e-06,0.9997743549086118,-7.467586205069871e-28,0.0011942340250437342,0.014284065917550468
1730089732.927036,-0.40214115156382313,-0.0009035392193541755,9.893159553685317,-4.565504814193776e-05,0.020311622503073994,9.275194535683081e-07,0.999793696672493,-4.480551723041922e-28,-0.0014119098922839178,0.014955790472460755
1730089732.9351084,-0.40025968117266886,-0.00173922436169063,9.895905278109625,-8.785729077488936e-05,0.02021110590972735,1.776055802157683e-06,0.9997957308749862,-2.688331033825153e-28,-0.003826976365604572,0.015358825205406927
1730089732.9432247,-0.3955394964477419,-0.006310778269358128,9.897552712764213,-0.00031873881578848396,0.019969721933063074,6.366395397497219e-06,0.9998005343922118,-1.6129986202950919e-28,-0.007404466556907123,0.01602633610663666
1730089732.9511178,-0.3869613016284107,0.010339322833306998,9.89614697189681,0.0005222873912008394,0.019539897013503095,-1.0207392044359845e-05,0.9998089415165239,-9.677991721770551e-29,-0.01125372091753678,0.017278222770298564
1730089732.9590795,-0.3877998888872026,0.004048812205843573,9.918287863313866,0.0002040678878415639,0.019538540922798647,-3.987950142486825e-06,0.9998090836549753,-5.80679503306233e-29,-0.014414653656838637,0.018455044829957738
1730089732.9669964,-0.3923731840647434,-0.005950418487040731,9.944261666962928,-0.00029912802018082827,0.019717112300055004,5.899087819553914e-06,0.9998055540804799,-3.484077019837398e-29,-0.015034143116033655,0.01873544800429121
1730089732.9753141,-0.39200469901306484,-0.008119234246521313,9.941171176203147,-0.00040828150700932377,0.019704730081584552,8.046639875773075e-06,0.9998057595622635,-0.0017027602458481264,-0.014128766607164571,0.019329379970353326
1730089732.983021,-0.39848737263049516,-0.014448347188537788,9.9227968902922,-0.0007278849883911219,0.020067230350571216,1.4609581492967352e-05,0.9997983677902565,-0.0010216561475088757,-0.012308470517457027,0.020111429211452626
1730089732.9910758,-0.40860190111735956,-0.01633045362562267,9.91081463808157,-0.0008236877196381154,0.020600781355748714,1.6972218199479155e-05,0.9997874419385437,-0.0006129936885053254,-0.012067672986556564,0.020154968694650176
1730089732.9989932,-0.4137129375454157,-0.006446389851154853,9.912244412731756,-0.0003250994620000832,0.02085515918866125,6.781476310887011e-06,0.9997824546367909,-0.00036779621310319523,-0.014051644775326444,0.019329712261644642
