Time,Accel_x,Accel_y,Accel_z,Orientation_x,Orientation_y,Orientation_z,Orientation_w,Gyro_x,Gyro_y,Gyro_z
1729156181.786646,-1.0588787964331856,0.11964499264891675,9.662155561278173,0.006181479367307542,0.054545086695866316,-0.0003376785074947213,0.9984921175469527,0.02294439638366742,0.06754626778982878,0.00952789617133589
1729156181.794369,-1.1225473157017083,0.1354727597495063,9.605031657079403,0.007039244564673821,0.05813151460869144,-0.0004099053327870161,0.9982840317378999,0.02057767881359296,0.0664948544230812,0.014656228993504198
1729156181.804406,-1.1624243684249311,0.15191260482431315,9.622950910751548,0.007877682564277039,0.06006184774029475,-0.0004740187253114634,0.9981634594943286,0.018731958210086247,0.06543831634157062,0.016456158502419087
1729156181.81044,-1.20358885201199,0.16369187319732226,9.667221286197023,0.008448545269636112,0.06188176667264836,-0.0005238336444282669,0.9980475913675718,0.016347455663596126,0.06480439349266426,0.0145562857775338
1729156181.818452,-1.237385508472819,0.19494087098870588,9.674869318349073,0.010051884894087756,0.06354429633628812,-0.0006400660477082867,0.9979281899659196,0.012788303828391896,0.06399834972185842,0.012990672081140596
1729156181.826444,-1.2610153846735352,0.22733721912642663,9.658628583196945,0.011740396835910995,0.06484425854019028,-0.000762955964683329,0.997826038503057,0.007672982297035137,0.059683512906216624,0.010348543617456546
1729156181.834397,-1.2857277976986525,0.2391135826965591,9.648884142105667,0.012359641117927254,0.06616199439161015,-0.0008195973472755076,0.9977320071190203,0.004603789378221082,0.05070925989490108,0.007911886416322053
1729156181.843551,-1.3051042286680195,0.23851795552613858,9.655726746249728,0.012319330426403248,0.0670989525380232,-0.0008285447394093368,0.997669924463878,0.002762273626932649,0.04277056771933957,0.004747131849793231
1729156181.850405,-1.3023648772887024,0.23432985656763627,9.670366796040852,0.012085000314572611,0.06686094245613595,-0.00080988633225305,0.9976887847547465,0.0016573641761595894,0.03375045179938234,0.0028482791098759386
1729156181.858739,-1.316044157086112,0.23205641735855054,9.667419237780761,0.01197085100877796,0.06757444726698691,-0.0008108355191971392,0.9976420877992506,0.0009944185056957537,0.026209931940097846,0.0017089674659255631
1729156181.877641,-1.3175479603161202,0.19118802644052094,9.644342308049316,0.009886725021056586,0.06781793146392662,-0.0006720776305638012,0.9976484997993885,0.0005966511034174521,0.017854409471368862,0.001025380479555338
1729156181.912094,-1.3052821331232658,0.18869364716314066,9.650846864321776,0.009751657189276028,0.06715090748273556,-0.0006563455334790475,0.9976949584000355,0.005891961461056883,0.010712645682821317,0.002743678595043361
1729156181.943992,-1.2969649561434906,0.16828282648147813,9.656664959413378,0.008692124925394664,0.06669231437585466,-0.0005810135994557616,0.9977355584475631,0.011197597982950698,0.004299137102382632,0.004626037587260238
1729156181.964115,-1.2742575576704693,0.16848618270529314,9.657761614808184,0.008702335966897621,0.06553242092744939,-0.0005715354750475275,0.9978123293001082,0.016935120264859178,-0.004231558721962927,0.006606833105514427
1729156181.978265,-1.2568023959304067,0.1623832721231759,9.652673524060692,0.008392094562014285,0.06468054257053182,-0.0005439635537640939,0.9978705849283743,0.02122901375692833,-0.01147842652388042,0.0077953104164669405
1729156181.996234,-1.2290910469332441,0.17643861805906177,9.647465888118056,0.009124071991166913,0.06330339595009318,-0.0005787698008984679,0.9979524519720383,0.026359490220942007,-0.01625223726649295,0.00850839680303845
1729156182.021249,-1.20623931321854,0.1793651618022339,9.66588912149388,0.00925847383268993,0.06202270796942972,-0.000575368156523201,0.9980316294135736,0.031140536345198342,-0.019967903834984528,0.009787628757905417
1729156182.048363,-1.176487121866671,0.17226254190555912,9.697533195796717,0.008863898385977493,0.06031565438366347,-0.0005356281786640906,0.9981398530487237,0.033583473958290117,-0.022622993837541506,0.010129477869363567
1729156182.07001,-1.1373274122801589,0.18667574291677297,9.705745732907717,0.009598428035516584,0.058278006593099396,-0.0005603555822110079,0.9982540909650224,0.032495096157372984,-0.02634449814638585,0.009483207213314393
1729156182.087642,-1.1107191243700485,0.18335265522272004,9.688886020066896,0.009444721114547945,0.05702646565642672,-0.0005395011932713078,0.9983278461488827,0.030139309230974583,-0.02985447091607855,0.008244064696760825
1729156182.109585,-1.0722486560185134,0.17321851696175702,9.661531940409278,0.008949029058200228,0.05522531952952362,-0.0004949882941791333,0.9984336903111624,0.027023076829287413,-0.03153476451643214,0.004946438818056495
1729156182.133372,-1.0477298540114985,0.16354673151494484,9.668343248718223,0.008444132333641333,0.053937129373837094,-0.0004561325684177598,0.9985085250748348,0.023450577142426984,-0.03169156055372023,0.0029678632908338967
1729156182.153716,-1.0248782871627584,0.16612336605740438,9.682964521008277,0.008564783132941501,0.052691360478408354,-0.00045193452793633335,0.9985740136694938,0.020455697207386662,-0.03135994811463105,0.0017807179745003379
1729156182.168768,-0.9893801119460924,0.15569833848209888,9.681442217243637,0.008029453892676832,0.050889785561420965,-0.0004091605875554523,0.9986719131843608,0.016530318939052314,-0.029458220405329423,0.0010684307847002026
1729156182.185969,-0.9649687446578898,0.15399230509121248,9.689866221459464,0.007935122905454403,0.049600893568628915,-0.00039408671406712095,0.9987375180082757,0.01332371185512764,-0.027040113595362347,0.0006410584708201215
1729156182.209879,-0.9282952690115307,0.13692753393363374,9.688935119838568,0.007057272728223054,0.04773505822519125,-0.0003372722318619239,0.99883504412156,0.011399747604772838,-0.023460799202071943,0.0020873953283401993
1729156182.232805,-0.9292755195612152,0.14416634335822712,9.709206013309391,0.007414809881106695,0.04768541982665828,-0.00035399078538643535,0.99883481918729,0.01152243923894605,-0.018333380135863483,0.004657957688700372
1729156182.264433,-0.9310607707211042,0.1489884693450144,9.69479291096415,0.007674108453979532,0.04784647852561135,-0.00036761095175897224,0.9988251535751005,0.011170364157987946,-0.01397985851175231,0.007903055350764602
1729156182.281626,-0.9244704761045374,0.15810666925349298,9.66507607494763,0.008168790518724716,0.0476542610392939,-0.0003897335036884735,0.9988304112180687,0.009256358863564958,-0.010090675352899512,0.011978564255313299
1729156182.299851,-0.9178826775084256,0.16621121102475206,9.668314947947094,0.008584706014224888,0.04730039521871153,-0.0004065300431144445,0.9988437366115518,0.0055538153181389745,-0.006054405211739707,0.014849559659504548
1729156182.317998,-0.9349989729601336,0.16437017143906996,9.695876229510445,0.008465199431303852,0.048040602866694246,-0.00040715803468897177,0.9988094288186949,0.0033322891908833846,0.00019856742611446074,0.016997846963481326
1729156182.336499,-0.9644223635124081,0.17212409383023883,9.705230393467986,0.008855244428539697,0.04949320832525941,-0.0004388295295740702,0.998735107225348,0.0019993735145300306,0.004376041070288993,0.017435439222943334
1729156182.362042,-0.9780062550215074,0.17845238842704952,9.721616799313212,0.009164974284335445,0.05010044665870709,-0.00045976606958008693,0.9987020261850512,-0.0013545162600541714,0.007733905379717776,0.01556954427131038
1729156182.399323,-0.984241228598842,0.1729119787105266,9.69912692040824,0.008900882232230583,0.05053403496672428,-0.00045039085076860796,0.9986825735705772,-0.0033668501248046924,0.01145138421122317,0.009341726562786227
1729156182.426209,-1.0016291622081333,0.17629149752905032,9.70287124501838,0.009070886256753456,0.0513996994309323,-0.0004668772476709451,0.9986368568937172,-0.0020201100748828155,0.014958941694512503,0.002199515445975483
1729156182.452578,-1.0194839475201924,0.15964443587094582,9.7010476969622,0.008215647590040507,0.05232017219627869,-0.00043044824201222146,0.9985964737722335,-0.0012120660449296892,0.018766236430334225,-0.007194091961655344
1729156182.486946,-1.0285208775453185,0.19155472792881748,9.702108349622634,0.009856058984022186,0.05277047844479938,-0.000520860084731121,0.9985578918674584,0.0014012106803523447,0.02062492321036523,-0.016661466959392125
1729156182.509066,-1.0356189767225037,0.17023889510689985,9.709927346199361,0.008752357983467135,0.05309188544216171,-0.0004653534071856813,0.9985511661282721,0.002969176715521565,0.022591515401307896,-0.022767582019496222
1729156182.53216,-1.0609468108381896,0.17612416836296804,9.72443497095204,0.00904074302487227,0.05429787180202886,-0.0004916385612560216,0.9984837326540947,0.006038406643933255,0.024197160777335528,-0.024728490809710554
1729156182.560058,-1.066806124832992,0.18899271879121832,9.717816655178645,0.009707547637223427,0.05463022342859439,-0.0005311438173198516,0.9984593232041344,0.009582704846828397,0.024734857941490076,-0.023350895715066967
1729156182.588619,-1.090911847507217,0.17923617692902785,9.718634069034922,0.009205115982468927,0.055849918266030946,-0.0005149306107560239,0.998396608225355,0.010857903645641417,0.026334546424368898,-0.01656467779781237
1729156182.617818,-1.0864610879965177,0.15542573936054171,9.708350609877984,0.007991055273531654,0.055685441139140195,-0.00044569128652135364,0.9984162839417393,0.010345952740543136,0.026442979391172128,-0.006958976248453201
1729156182.647622,-1.0955222204248638,0.16627859425109065,9.717024584676789,0.00854109135842773,0.05609457833435395,-0.00047988209906803323,0.9983888109113949,0.010464472258946197,0.026082349109792034,0.0022099651728585534
1729156182.682315,-1.1270556979775743,0.16153755938268563,9.698765793286542,0.008312387999238464,0.057801416506741,-0.000481289179549694,0.9982933781290397,0.01181265415437413,0.024588900756577884,0.011968230640265922
1729156182.713012,-1.1217943477416228,0.15007381248508012,9.669375165669193,0.007746109780086321,0.057708710689145175,-0.0004477777475670395,0.9983033116187486,0.011770183168706826,0.021990071498801268,0.018248879982172374
1729156182.736065,-1.1430583945336454,0.1917978580476887,9.680950049352687,0.009886705502180772,0.058716304344180056,-0.0005815427096887413,0.9982255809517965,0.010041940331458317,0.020430773944135297,0.021165889464392185
1729156182.808846,-1.1491130579604216,0.18929896629345697,9.663713542795207,0.009775082557847281,0.05912858235208749,-0.0005790276655128053,0.9982023458382485,0.008153614506185148,0.017792435165487588,0.019510574662027817
1729156182.845579,-1.14604209136805,0.17271616078193355,9.663427285833373,0.008919337290959933,0.05897628712712118,-0.000526967717158842,0.9982193973691428,0.007020619011021247,0.01578374183683693,0.015537555350374975
1729156182.881178,-1.161916603697783,0.1974824015472851,9.664213212320336,0.010196594683462406,0.05977607972721709,-0.0006106363055093866,0.9981595447986303,0.006340821713922907,0.01287576559379841,0.009322533210224984
1729156182.910694,-1.140795529845623,0.1898366504010273,9.642179272607045,0.009824904257670233,0.058834636749621624,-0.0005790758768613865,0.9982192251434534,0.00550725327420187,0.007725459356279046,0.003039379557362801
1729156182.944318,-1.1374602720089362,0.20081151050428825,9.687138009120867,0.01034478457386096,0.05839339744884476,-0.0006051322308642849,0.9982398661551666,0.006709872456217375,0.004635275613767427,-0.004561723187512793
1729156182.987511,-1.1287553526584866,0.18776397295296357,9.700705721732286,0.009659618522772579,0.057872762160938986,-0.0005599936314900602,0.9982770765558981,0.007431443965426677,0.002781165368260456,-0.007845314650052055
1729156183.012515,-1.1194622582259512,0.21345427366435626,9.695678240168276,0.010986805354914734,0.05742656593210877,-0.0006320158328601954,0.9982890764649913,0.00786438687095226,0.0016686992209562735,-0.00896408940465155
1729156183.044881,-1.0940145277871332,0.20732063914978563,9.679254221932997,0.010690068773943129,0.05622884728955049,-0.0006020773538323528,0.9983604943430788,0.00854984267572964,0.001001219532573764,-0.00537845364279093
1729156183.08486,-1.0696479232152487,0.18400800482776203,9.719438625689095,0.009449929174770727,0.0547660580974759,-0.0005183365318684076,0.9984543600216764,0.008961116158596068,0.0006007317195442583,-0.003227072185674558
1729156183.113667,-1.0588586831283677,0.18965287784782908,9.716973629515019,0.009742512462838533,0.05423141051436453,-0.0005291541236132094,0.998480724681477,0.008782190186853894,0.00036043903172655497,0.002320657303215582
1729156183.14964,-1.0631590465469425,0.1619151800778381,9.680539287572293,0.0083490407250855,0.054656241840519586,-0.00045702633884005825,0.9984702198231888,0.006972074357960463,0.00021626341903593297,0.007352055242397792
1729156183.173526,-1.0607114411117593,0.15197632606428096,9.649341295932047,0.00786195832471912,0.054707341934178255,-0.00043076531577554953,0.9984713870667702,0.005886004860624404,0.00012975805142155977,0.01122227412883118
1729156183.189517,-1.017823189129946,0.1584628622889592,9.672521030000635,0.008178868799852112,0.052388508794763616,-0.00042908237592018724,0.9985931935176259,0.0056600532236848,7.785483085293587e-05,0.011415955153381055
1729156183.217875,-0.9930479186049208,0.1657066663479849,9.68235872761952,0.008544588014674764,0.05107108803114536,-0.00043696765493030256,0.998658371537656,0.00339603193421088,0.0021751632058219198,0.010255093583724884
1729156183.245167,-1.0198418651766243,0.16981352861738466,9.682754682372494,0.008755305209006001,0.05243525979302378,-0.00045973684535969623,0.998585838475175,0.002037619160526528,0.004284928353727373,0.008281506457545088
1729156183.265508,-1.023468384486834,0.20699357005129018,9.680358633398106,0.0106741759790823,0.052628202542604925,-0.0005625745085805742,0.9985569677160259,0.002925331742164043,0.005125097381008614,0.0049689038745270525
1729156183.284314,-1.0287567582311627,0.20703551947218038,9.67532970152324,0.01068171111284341,0.05292510762662071,-0.0005661566237054502,0.9985411926891599,0.003883649352608584,0.00605488885883939,0.0029813423247162314
1729156183.30165,-1.0067906650461194,0.20801836978877694,9.69409957750574,0.010712343013095841,0.05170464470495205,-0.0005546517336605548,0.9986048106155702,0.005310020041799372,0.006187073684075823,0.0017888053948297389
1729156183.321765,-0.9787669588421247,0.23278951674631304,9.673039780683132,0.012014396677956595,0.05038142821813826,-0.0006061161151350286,0.9986575982720104,0.006591532516775876,0.007543454763603779,0.0010732832368978433
1729156183.348559,-1.0031330036744155,0.23903307894427217,9.691289104005584,0.012312514080811568,0.0515283894991491,-0.0006353363987045413,0.9985954252950963,0.0065090598788377155,0.01091142378009274,0.000643969942138706
1729156183.369996,-0.9942894543042586,0.23104762812828203,9.67614189990335,0.01192022365308085,0.05115822848053939,-0.0006106607057919707,0.9986192322503586,0.0039054359273026293,0.012506515128524087,0.00208914221113135
1729156183.389045,-1.0162772236079458,0.24804359274610982,9.698417619190057,0.012766597123910648,0.052158565093899094,-0.0006668496608095849,0.9985569855530285,0.0023432615563815777,0.01474064012196899,0.0038076256954509996
1729156183.421446,-0.9966693224460176,-0.26728609288749033,9.356722944560909,-0.014257848587015905,0.053007716301980826,0.000756917405936891,0.9984920244259134,0.00991975816306958,0.016506805179497964,0.007392856154814979
1729156183.448718,-0.7447661552351886,-0.46922366989265046,8.13488869471506,-0.02877318720247381,0.04553879017965121,0.0013122024435300843,0.9985472449573591,0.056608972211823504,0.011606843353546904,0.01848348572113603
1729156183.469795,-0.8009621186782226,-0.8341159450996528,7.569142840852473,-0.05477246820625133,0.05229584708056588,0.002872633454383281,0.9971242997148139,0.31534651395349694,0.034633960007160194,0.04216546591940993
1729156183.486411,-1.0776911652499022,-1.423434307050026,8.410515587323983,-0.08355783213463154,0.06257502785957988,0.00525743175576302,0.9945224049706809,0.7162122044620933,0.1229459907551837,0.012954267769247038
1729156183.510312,-1.1235396698530662,-1.7241134675307968,8.82172595029478,-0.09615982696306873,0.06184626601149961,0.00598648964192932,0.9934246267335205,1.0393154906908852,0.1814671800030042,-0.02628264425541431
1729156183.546157,-1.2958979730544178,-1.844187081983322,8.539573021348744,-0.1058460045658534,0.0731473933821556,0.007807491251419386,0.9916577661871058,1.294476831278693,0.17911916814303774,-0.1209150317343704
1729156183.573166,-1.2434504268990567,-2.105612601973196,8.597012161197918,-0.1195055941456132,0.06922709148945039,0.00835336850224469,0.9903818677694382,1.4445938052011433,0.15770292813834239,-0.24878470448590334
1729156183.590763,-0.6723288450066214,-1.0464528907737614,9.373199319423827,-0.05552612332427615,0.03552033028413823,0.0019766088126674996,0.9978232552825599,1.6325727036908808,0.1035612481737081,-0.40851607012191926
1729156183.612647,-0.6902226658906917,-0.5505390208412099,10.420942037943359,-0.02637247043330077,0.0330053793225553,0.000871211564811054,0.9991067904530667,1.8339035755688258,0.046386216630129685,-0.4694483044636422
1729156183.641763,-1.1824329122785557,-0.04230095278792898,10.57122617735586,-0.0019975197891403634,0.05566610471121743,0.00011136705022671948,0.9984474359215672,2.0317519998202207,0.010804127519596543,-0.42938343400551027
1729156183.672556,-1.1116856262733834,0.6473900948311488,10.95085564171625,0.029481084684444377,0.05045362466683353,-0.0014899753248602818,0.9982900767699427,2.1202370600072533,0.04181475161310655,-0.46706957064262566
1729156183.697289,-1.2499994800120768,0.862964825941658,11.177436219502408,0.03845528336826674,0.055451266488686105,-0.002137270804439494,0.997718287042678,2.108623206777244,0.06127250619213662,-0.5096886855136105
1729156183.732119,-1.6181372099799025,0.6200113064536666,10.706454445324491,0.028834375458782507,0.07477587594360985,-0.0021630785166244855,0.9967810533211889,1.9313788702544257,0.0116477900890221,-0.5539905171405306
1729156183.762367,-1.57182694268716,0.8161311918311843,10.224428382526725,0.03969618283382771,0.07589759818540003,-0.00302397150909726,0.9963205424231818,1.7543677181380375,-0.044519823383492564,-0.6027074993127084
1729156183.783326,-1.2222600791865148,1.0877502898057418,10.244543599340252,0.052770574581431785,0.05892793594680245,-0.0031194511488713585,0.996861592121958,1.4991695053564937,-0.11270128644542592,-0.6195926768336162
1729156183.803878,-0.9916904066427682,1.3663616887760233,10.539367945492822,0.06434511542169802,0.0464084283444624,-0.002995611285236674,0.996843513402677,1.1893966350695397,-0.1987333107975613,-0.5049965953377856
1729156183.824425,-0.8380257124915202,1.3846091848964734,10.592961167686319,0.0648892408178428,0.03904939371227492,-0.002541191683137699,0.9971249037215033,0.9349968130019802,-0.2716370284819441,-0.3851561390648435
1729156183.84177,-0.8487775673874902,1.2473565998050717,10.011004375172337,0.06188343522100397,0.04187523399458554,-0.0025986565558745456,0.997201159349131,0.6635893926135377,-0.3460289435178401,-0.2506754262661595
1729156183.86396,-0.8561863609891347,1.247605006025621,9.517699359722544,0.06505661431335723,0.044370372577310066,-0.0028955902663433315,0.9968904265406721,0.46030438454157924,-0.394920993153998,-0.13976300422314492
1729156183.882587,-0.795748772159887,1.4136722248067788,8.961227209827666,0.07807486703609885,0.04359751536739095,-0.003417581904387,0.9959878974791875,0.282567981646878,-0.42766174342738894,0.02469316313893112
1729156183.900619,-0.45829565001468225,1.4841032958215672,8.058960445769646,0.09089493722104704,0.02781525606594238,-0.0025397743840923828,0.9954687194802486,0.14485076542332898,-0.46007689543528446,0.2242554081226782
1729156183.930137,-0.13204355089748124,1.9453472289577838,8.127164130010616,0.11719777973860045,0.00784523557599535,-0.0009258537142761895,0.9930771749959816,0.04732128353802845,-0.4744177059024774,0.3754938196611168
1729156183.953643,0.24399109358260498,2.071019464083655,8.612689588846214,0.11770541314115246,-0.013672418382971358,0.0016207388265204344,0.9929531076030166,-0.05035989124765878,-0.4464128468970584,0.5177453640210857
1729156183.983846,0.47487912392300047,2.361661534407224,9.299287558239367,0.12399215275619556,-0.02453388554521515,0.0030666185429190276,0.9919751157996105,-0.1383412103599513,-0.40747404829778144,0.64140839616865
1729156184.000895,-0.08737088380049658,3.6160711454978496,11.757809918976823,0.1486290647615553,0.003511774632155993,-0.0005278176054443119,0.9888866416104597,-0.26307162221441016,-0.3177031195501383,0.7913790463974302
1729156184.020589,-0.48098462744826664,4.444373684613163,13.020078807831405,0.16370646240490397,0.01723673462136291,-0.002860802354190662,0.9863543506044644,-0.4319873729101944,-0.21062930461879845,0.8626310738303689
1729156184.041011,-0.9604037623088039,5.160664080152664,12.791747317657828,0.19044042744452358,0.034113733399645796,-0.006621897040860628,0.9810835067759855,-0.5831425605187226,-0.11360688092741811,0.8840977872170306
1729156184.064273,-1.612692156066923,5.323245412202926,11.929544740692352,0.207908306099687,0.06003020477058521,-0.012784790209440296,0.9762208048947026,-0.7598250654991701,0.10253758608982382,0.8250361948619442
1729156184.085506,-2.0090930158081224,5.011146307380348,11.010476155938848,0.21118677054317025,0.08032906896175346,-0.017417579701908346,0.9739835812500187,-0.9113834050638759,0.30374019662579027,0.7087181277711063
1729156184.107391,-1.4513403199829202,4.616548980717272,10.242838595174636,0.20969211195117665,0.06275641204642804,-0.013487842915081967,0.9756582029717232,-1.079368309927327,0.4197791722712878,0.4826990349600381
1729156184.125794,-1.0276244007299864,4.232786602785832,9.55241269934111,0.2067877087717334,0.04793810670320157,-0.01014473676042789,0.9771580556607569,-1.2269851596062211,0.41022420622664846,0.31303237435643455
1729156184.149146,-1.0781767205161168,3.84475128662267,8.988280137915213,0.20041114661849513,0.05377707402872832,-0.011018017682862884,0.978172787347056,-1.3291773513803427,0.3776727527277568,0.2010158165191837
1729156184.171337,-1.218401968588967,3.4299707707528992,8.105359143540143,0.19833733561696698,0.06735450535305933,-0.01366331368359993,0.9777213231632983,-1.369633853433176,0.35984464087427,0.05888443099951563
1729156184.194693,-1.4315845869150992,3.3388803506353333,7.743200663126038,0.20140851151448044,0.08225179881923529,-0.016975315010783327,0.9759001443594556,-1.3594268596864514,0.3678781364665073,-0.05406425430731726
1729156184.214061,-1.3231864540533564,3.0584528820120593,7.881683941576795,0.18344702669776888,0.07622357624828045,-0.014268849141193517,0.9799660987829408,-1.2711444815762447,0.37099547357600154,-0.14822624930206296
1729156184.239258,-1.3912651866409984,2.8092723847248133,8.162295545610139,0.16443280096705737,0.07872018526629224,-0.013165975545761134,0.9831539266491779,-1.1675179373961388,0.32093168834333025,-0.25963746422751244
1729156184.26088,-1.4321124261935834,2.590811078539966,8.523156321506708,0.14652814212261878,0.07875033608358464,-0.011703012718419052,0.9859974277989414,-1.0921456189827523,0.2593923526555371,-0.35755956766951047
1729156184.282792,-1.5914143233919311,2.371867093901323,9.395923462093478,0.12289517845181257,0.0806740414082519,-0.010023867005275414,0.9890844232149334,-1.028617555291853,0.15563541159332225,-0.46058459612676056
1729156184.298733,-1.6654476467695336,2.1404230737236065,9.773298025009993,0.10721216380442998,0.08190349354135644,-0.008862432247203561,0.9908172520564813,-0.9875208866470793,0.06358294265365114,-0.5258051336928069
1729156184.31979,-1.5520897513917982,2.446638750240023,9.890547167056775,0.12059514168896371,0.07496009211347561,-0.009132744644557942,0.9898254337844706,-0.9845730785947786,-0.01378442190617718,-0.5508896842041876
1729156184.343424,-1.2106571845753133,2.2228750335912792,9.704956494814143,0.11212913759571225,0.060082074553717085,-0.006792292490328749,0.991852340614312,-1.0636855054411842,-0.030406536339731956,-0.5352907300857498
1729156184.363552,-1.2006856596221411,2.0646747870004707,9.692003779700986,0.10455497952373434,0.05992082339838728,-0.006311140645973787,0.9926922588011844,-1.155850418002541,0.0009121309619522511,-0.48549080177579407
1729156184.382412,-1.3050754411834409,2.081803276741298,10.062516012937778,0.10161623478801449,0.06279531859295123,-0.00642717735487474,0.992819006758818,-1.2562725120543303,0.10015875295928674,-0.37217559274326245
1729156184.408533,-1.2800815293585022,1.8715743976854038,10.321933478612277,0.08939376209956691,0.06043171439109233,-0.005434026452403044,0.9941464854587346,-1.3224854293458725,0.16140948640353556,-0.31184888843006003
1729156184.439118,-1.0450580496951793,1.723889255310461,9.997067684823614,0.08515953193982842,0.05111758016013308,-0.004374823911556015,0.9950455808826572,-1.3894573436543678,0.15771937063119185,-0.34078344524582943
1729156184.470879,-1.203319169416717,1.291949651819089,9.971657686089483,0.06425891468379596,0.05939496622455949,-0.0038313808682908456,0.9961567900644387,-1.4539048257428009,0.1823237750398936,-0.29727050054622056
1729156184.486057,-1.2013106740133115,0.9616781004176252,9.86399550276697,0.04848230200243682,0.060204435017328584,-0.0029276217161304696,0.9970036717223644,-1.485336583951006,0.2000662481153489,-0.2179514760437013
1729156184.505842,-1.19507775328494,0.9698953526822159,9.921263057275416,0.048615379833602396,0.05955150467225023,-0.002903724280199716,0.9970364745184652,-1.4654578432828842,0.1519665034788617,-0.08777618941855558
1729156184.531255,-1.4937256705256516,0.8553550411991733,9.978368505751968,0.04262110236885204,0.07389380692822525,-0.0031609733275764877,0.9963499160325856,-1.4433140374069224,0.08862576171854483,0.012039175691095451
1729156184.560308,-1.4605487336142189,0.7535908713991915,10.06195232903712,0.03726866632231748,0.07176385668671718,-0.0026833404980825233,0.9967215233292473,-1.400655139640465,-0.009826672065253776,0.06852287426518983
1729156184.582574,-1.3827028912915782,0.5093759425172493,10.040037153037506,0.025281235543341107,0.0682670745099561,-0.00173047002224853,0.9973452116197061,-1.3158888824373682,-0.12679198069436923,0.11433241513058334
1729156184.605766,-1.0563526319917438,0.3709872708326152,9.14725835749633,0.020231338640558233,0.057396660650040454,-0.0011633684400340217,0.9981457623297851,-1.2335280635673198,-0.23358051115757322,0.16906230358338947
1729156184.631217,-0.9491279378376244,0.34254186567339723,8.396112930757564,0.02035259129787062,0.05619522860331342,-0.0011457675210973055,0.9982116787167293,-1.130900314562537,-0.3623585187777244,0.24319217261689025
1729156184.656626,-0.8287688024974965,0.13250196876927273,8.001689413727975,0.008267312765104578,0.05157143223252096,-0.0004269399344288862,0.9986349967027106,-1.0450593316563315,-0.47325483820531566,0.2885214741599147
1729156184.675312,-0.8118593796430291,-0.27484066444156136,8.243875635541473,-0.016641591272033598,0.04902833113925586,0.0008170055369631595,0.998658406407109,-0.9271470923245312,-0.6172682210479601,0.3186988855159636
1729156184.692203,-0.7033120376979267,-0.3483002458329056,8.147133580787774,-0.02134044296445696,0.042994238368751644,0.0009185752513816786,0.9988469538326076,-0.7806269177852094,-0.7990308245210419,0.3082840982116368
1729156184.71328,-0.5582172970816467,-0.5075370945212277,7.7725748884628985,-0.03257547228695787,0.035745313765792305,0.0011657853904019659,0.9988291906494775,-0.6663220292509704,-0.9583198138574107,0.28628469355494557
1729156184.736706,-0.5642948972919568,-0.6595823629139085,7.696519596163676,-0.04270239497045387,0.036419079516453276,0.0015576389050673575,0.9984226208735472,-0.5590013005373821,-1.1437138104277205,0.3033090451247351
1729156184.760987,-0.21623323354118967,-0.9739491186760794,7.640591353645472,-0.0633443749494094,0.014004381589572788,0.0008889718005761416,0.9978930690147617,-0.4771555707892857,-1.2838971325493245,0.3382136796314067
1729156184.781479,0.12763673834208306,-0.9815675266255695,7.281662402519315,-0.06694337974833688,-0.008665233490236252,-0.0005814062163574545,0.9977189782715578,-0.4042094894985542,-1.300748096111286,0.33404074670914974
1729156184.797806,0.5867864167845467,-0.5319585164636229,7.661024724226433,-0.03462971469943564,-0.038098640101304565,-0.0013210982865320025,0.9986728849736456,-0.3587390804782671,-1.0303289237449842,0.23320258275806627
1729156184.819599,0.24529045602775926,-0.850927298598877,7.938920352113985,-0.05335639995532848,-0.015333308617309596,-0.0008193940898869756,0.9984574667075101,-0.34252477666410763,-0.7442016124397519,0.1446041403309221
1729156184.847553,0.5824401354330618,-2.038535878671045,9.424623423426594,-0.10625709707947158,-0.029989372062921116,-0.003206201811061411,0.9938811735582188,-0.32939067388391574,-0.5095230965602318,0.09187076493609762
1729156184.867314,1.4203904838477275,-1.3888002820854395,10.167844183450486,-0.0676548225385871,-0.06855533560823127,-0.004659814828259564,0.995339779709764,-0.2670218843486606,-0.47556419245948967,0.08364369307961468
1729156184.885167,2.2892341267344176,-1.2625605269172793,9.98027088018748,-0.06246777277729042,-0.11142192269378634,-0.007017945232540911,0.99178308160211,-0.0559190655509986,-0.5965179504044389,0.09914057291590245
1729156184.904913,2.1710490490386976,-1.7607068117558362,11.422521456335142,-0.07605284681486202,-0.0924383051219777,-0.007081291618134633,0.992784457748282,0.19036153299842948,-0.38132372362307504,0.03266586987743347
1729156184.929692,1.9727664741009532,-1.148122010637486,12.230171542013975,-0.046629623788822246,-0.07944757182249527,-0.003720456217852716,0.9957408898515484,0.35813732501680173,-0.1572783038482237,-0.0421255369855345
1729156184.950188,0.8822298954469,-2.356913503013351,11.475762234290418,-0.10103515598065363,-0.037380586059735925,-0.003798889080961718,0.9941731023738,0.45922849028928714,0.035894176498447436,-0.06273604759997947
1729156184.968793,0.7053117592896242,-3.1813083471693386,10.949614658689486,-0.14083756993973126,-0.03057581636660207,-0.004351695022130309,0.989550888584019,0.5475530434478104,0.16371698642738702,-0.0593518216945513
1729156184.983271,0.4638884837964308,-2.4486774826668376,10.563536584520332,-0.11361779725316684,-0.0212367654884652,-0.0024291631081600896,0.9932945661310748,0.6797261267748623,0.2757429474860994,-0.07647733891708582
1729156185.002526,0.5464836762153585,-2.3904952884282276,10.956297532987591,-0.10716955921677855,-0.024204071308461545,-0.002609747748200665,0.9939426732594124,0.7666923978774101,0.41447445444694814,-0.07738746789844182
1729156185.031987,0.6956395807292152,-2.5947667177346703,11.113903127946852,-0.11437456061070238,-0.03023406849815176,-0.0034824852394746853,0.9929714161463636,0.8154666400472425,0.4879224872098306,-0.06771698381216668
1729156185.052542,0.6311859566894822,-2.326835284547052,10.288135366758345,-0.11093172725923274,-0.02969508882506832,-0.0033160840891811156,0.9933787581649146,0.8357916940584391,0.4983617920120596,-0.03296776918098344
1729156185.070969,0.5917955217675955,-1.9735826111579189,9.705046929283522,-0.10009581664041368,-0.029687645115026553,-0.0029879522456480977,0.9945303129417377,0.8522436270797775,0.5071795152621692,-0.007435649726191143
1729156185.086441,0.13888090314844795,-1.9500546777787355,9.112421818458785,-0.10521174852828148,-0.007409720845430954,-0.000783962687150341,0.9944219272578012,0.868500137814511,0.5294977516707162,-0.020211922109809852
1729156185.102628,-0.07588586851132186,-2.0714497317160694,8.75205834864363,-0.11593998964827527,0.004190199246255917,0.0004891145198515707,0.9932472611578755,0.8701659330875725,0.5445914537616926,-0.07044669168618424
1729156185.132455,-0.22605432628257438,-1.9850723536780792,8.561697644684225,-0.11365874671176977,0.012773829879519675,0.0014614494955607188,0.9934366526012067,0.878827831357726,0.5579045756308987,-0.12144636644364842
1729156185.154538,-0.6709760869804822,-2.2708283609373163,8.686422547992175,-0.12740981928051304,0.036984078343735974,0.004754214353683833,0.9911489864525165,0.9219113857899389,0.5952650629933025,-0.19674362775164023
1729156185.172968,-0.9903621597566485,-2.3173046386327023,8.857264976549212,-0.12740445838213607,0.05341065712232157,0.006870798627432589,0.9903879027009254,0.9698974016452924,0.6283236069472957,-0.26916614847000536
1729156185.188257,-1.1539816439985202,-2.269294212622981,8.535517899503747,-0.12927708689594644,0.06436861866980327,0.008409847547216083,0.9894813743565222,1.0297643856452328,0.6511385637499258,-0.3445464155106768
1729156185.203066,-1.1231058650612216,-2.016869521958554,7.5921268529834975,-0.1291237356009839,0.07034797162620736,0.009183812173075194,0.9890873982548232,1.0631304356764246,0.640563204328168,-0.37359835339952246
1729156185.219644,-0.9954048019957173,-1.8254315398352883,7.199432425266661,-0.1235548427850887,0.06605183193494037,0.008242602978127586,0.9901027299318669,1.0763390247117472,0.6146362458478599,-0.3876239956411336
1729156185.239771,-1.1749637417931336,-1.6555021123777356,8.791309895833823,-0.09272534116245201,0.0649685744451527,0.006063333403813824,0.9935513733214332,1.1038459209601943,0.5548083043676237,-0.4151954337518917
1729156185.262367,-1.1957895854079112,-1.1470090140086726,10.985435737304982,-0.05191533810032944,0.05382282937334025,0.002802087174701822,0.997196093562165,1.1684530356544722,0.46953149234988645,-0.44621175870805563
1729156185.281161,-1.412510493188106,-0.8852482050360629,11.767286011474788,-0.0374660020273685,0.059488845612282765,0.002234343401038621,0.9975231243682371,1.3285389719877179,0.3404641238916922,-0.4469425711003487
1729156185.296006,-1.7391069941550512,-0.7755969125235909,10.528372711621198,-0.03663156314602732,0.08148930178195349,0.0029970798974277516,0.995996305107934,1.3990491300999435,0.34731033498625796,-0.4277993157084711
1729156185.313196,-2.1854983883875616,-0.3334376360395452,9.428528104511782,-0.017555026022701575,0.11355487369743396,0.002006754324243515,0.9933745943288383,1.3583456629821824,0.3744053249619471,-0.4107793916743381
1729156185.332452,-2.231869571362615,-0.5453064610182584,8.449474258947303,-0.031940144166646936,0.1284430220548185,0.0041389370802186,0.9911937683802725,1.1887632717529732,0.2535901191565864,-0.342673588895022
1729156185.35582,-2.276930533100772,-0.0331759127437675,8.535770298776587,-0.0019261661674463148,0.12997093166835047,0.00025248774218956813,0.9915159015644158,1.064877953819422,0.0827665914756407,-0.2617952414500013
1729156185.375206,-2.427029075475698,-0.009371060341573001,9.03981261627767,-0.0005136851451669857,0.13077261040477242,6.77578344821563e-05,0.9914122532551073,0.9918238332436774,-0.10784536785556728,-0.14345506290321577
1729156185.391744,-2.4838087978244814,0.15407061452747806,10.44716207294043,0.007320985627655692,0.11642796357383382,-0.0008582276100196411,0.9931717857011743,0.9616134428650157,-0.2183813329011338,-0.03286178005917551
1729156185.409801,-2.462570572884142,0.22053215753484623,11.332033754994725,0.009671199269949445,0.10676319887001816,-0.0010385132289402266,0.9942368977069777,0.9307165067939577,-0.29577085352648647,0.06542094425690101
1729156185.431643,-2.296119891337907,0.067675849696689,12.21562266876832,0.002757590249923694,0.09276366183632989,-0.00025691292758519223,0.9956843037501777,0.8185265316296759,-0.40818652542831296,0.2533746674695425
1729156185.456417,-2.2221068603398537,0.2177764326695759,12.443148927188727,0.008714338930419101,0.08822744069833703,-0.0007718835469117762,0.9960619374319135,0.6882104174347261,-0.49223784096642814,0.4351086913539765
1729156185.472777,-1.6607909033132873,0.1792681533029174,11.290626508412846,0.007916047933489928,0.07294744100161402,-0.0005790163505835493,0.9973042022254275,0.4686916485123618,-0.5639531333623988,0.6229017670551127
1729156185.488402,-0.9200995090289881,0.34769931849542235,9.517173326922709,0.018235789260211924,0.048130580315352715,-0.0008788643297759296,0.9986741865223384,0.22885511154758717,-0.6559366658681149,0.7538822851186617
1729156185.509643,-0.3193433040502054,0.21292915408553464,8.411681729307922,0.012651345741455718,0.018964294658169862,-0.00023998622402309015,0.9997400869154245,0.05132367451322192,-0.7332626685675703,0.8537550990298928
1729156185.527759,0.02075970482573616,0.29654870949233636,7.945668987535925,0.018651273039165927,-0.0013052141870054153,2.4348162292646215e-05,0.9998251976406233,-0.05817501813763147,-0.7494342758234391,0.9847690276407908
1729156185.553589,0.26025569472161353,0.7482280611446206,7.856639794621165,0.047449845042858554,-0.01646289516444723,0.0007821491783552077,0.9987376399890393,-0.09620437973311144,-0.7101828831088268,1.0927499990482097
1729156185.573389,0.3730680872431244,0.4640203071457567,9.218674300356682,0.025138203369600674,-0.020190031595926312,0.0005078052031132691,0.9994799525199991,-0.08879800232659517,-0.626184058752451,1.1703092837365219
1729156185.592528,0.493667379445484,0.5934891227640164,10.888470214979634,0.02721555154779934,-0.022609915925033752,0.0006157269824640056,0.9993736670215476,-0.1111726497547934,-0.5455607697748213,1.130004082011255
1729156185.611949,0.8923566410461966,0.5313490351818474,10.38846506233739,0.025524620103035266,-0.04276154999130423,0.0010928289518858522,0.9987586041360639,-0.16376092386621927,-0.44440122876695143,1.0632519548298915
1729156185.636441,0.6754747817468586,0.6283796957673116,10.857240123828214,0.02888754972460241,-0.030997375559278506,0.0008962434749228363,0.999101530840074,-0.27023533915039233,-0.24833606461730348,0.9640297599778511
1729156185.663146,0.5886807162160839,0.859698872147887,11.655892139482475,0.0367912086164345,-0.025143122009412017,0.0009259660790035965,0.9990061926589756,-0.35285035102522555,-0.08770226991984953,0.8768265890715948
1729156185.677809,1.3192687996026973,0.9946596553199821,10.658818605222688,0.0464165709143562,-0.06120472526651218,0.002849343808601441,0.9970413054580355,-0.462867346877734,-0.01175511605155468,0.8164165753600625
1729156185.694416,1.19642078049404,1.128069141580661,9.899444712938301,0.056595954168622654,-0.05962239984714638,0.0033858662053751036,0.9966095540974156,-0.5356885853726315,0.0069947023973142355,0.9168170768624551
1729156185.71169,1.3207124463237676,1.0817009856808184,9.607104930790324,0.05589717462171371,-0.06772575868365542,0.003800387379424272,0.9961296524729094,-0.5623537260110888,0.03697495617096498,1.0204777640330178
1729156185.731159,1.1980052290247294,1.5899418438498973,9.275359693093336,0.08460420566539281,-0.06304102561897247,0.005363550664582479,0.9944039369375528,-0.5643050383659162,0.06773381027901637,1.0664979539997983
1729156185.753555,0.677144028528119,1.5103775721302508,9.291551279723189,0.08043107476566573,-0.035780600293847095,0.002889100424515635,0.9961135698068714,-0.5701584164548948,0.096831374280398,1.0613319332472901
1729156185.774795,0.2863369139430433,1.0762148611492441,9.79758423585149,0.05466987494384314,-0.01449894601577821,0.0007939267249601735,0.9983988957417829,-0.586441145152143,0.14791942753672746,0.8739085241827257
1729156185.800219,0.17539345085606034,0.7541862518946246,10.267361604743316,0.036651926707829956,-0.008511710443914808,0.0003121916833665516,0.9992917940172809,-0.5991906128007262,0.2007081426865508,0.6682283552838021
1729156185.819296,-0.007051987347691927,0.47717202823638416,10.68066969722099,0.0223214141733065,0.00032971732467588214,-7.361591533191583e-06,0.9997507917984344,-0.6076916735128002,0.30943127290107253,0.4358435982101678
1729156185.847534,0.1715032094468536,0.5652277103500336,10.426829884738842,0.027073723755785636,-0.00820823214163614,0.00022231639958453472,0.9995997143769715,-0.618326280739051,0.3895643031809567,0.15593502368351686
1729156185.873062,0.8376824151700654,0.5752049099014264,9.738464245540571,0.029465945647475032,-0.0427973551554924,0.0012627713512926813,0.9986483614602835,-0.6327951562425801,0.4342386008571909,-0.04563963588797422
1729156185.888256,0.4774703316703986,0.9580385709408558,8.799678177451295,0.05417541026442751,-0.02690164949553282,0.0014600828884645412,0.9981679189069639,-0.6538214933270964,0.5082947762852169,-0.09889971185840585
1729156185.906812,-0.08198543649580774,1.1283625663926384,8.400169930152417,0.06671304607623238,0.0048256032758877965,-0.00032265328160425446,0.9977604817445488,-0.6685657458851163,0.5838038560287608,-0.10020607301539855
1729156185.935832,-0.31829952849904714,1.4517811970621457,9.26658614876528,0.07761278885523938,0.016909115510108576,-0.0013165247426166124,0.9968393067999375,-0.6731553968053079,0.6563534678084573,-0.1095036909388348
1729156185.959681,-0.7885724514744283,1.872323852514631,9.106482608448621,0.10112092973982174,0.042079107354908225,-0.004280872264630053,0.9939746377173927,-0.7286947549787148,0.7373439602849339,-0.1414750455035425
1729156186.000845,-1.1882915067733288,1.7425348608251847,9.12941230676839,0.09396324273459818,0.0632563130769864,-0.005982378253567676,0.9935460527932948,-0.7973506449841077,0.8242503613024026,-0.18109098119254463
1729156186.017512,-1.4228556963003254,1.7376846164462827,10.496133483914548,0.08175298461972315,0.06620304260210429,-0.005442576006330205,0.9944365163359633,-0.8632342025521411,0.8989557751703715,-0.2648828412720924
1729156186.035799,-1.3555380857489452,1.797023712983004,11.058310671403415,0.0803093156549246,0.059972822242782345,-0.004840810879959971,0.9949523812531421,-0.9002101967241891,0.9020613974678737,-0.31600933744274506
1729156186.059536,-1.3149080992521014,1.8788352629460523,10.640964620615486,0.08710491278125217,0.060278540062912465,-0.0052803393093172595,0.994359768792982,-0.9032397404616265,0.8468823026104629,-0.27474361475805337
1729156186.075675,-1.5115149205864173,1.7268092534707562,10.679776550689605,0.07986472861810225,0.06913038352759447,-0.005552226428098661,0.994390158829911,-0.8556774195744932,0.8559181617807575,-0.19379309303425019
1729156186.093643,-1.8396899191487253,1.9413331997875316,10.948948219232122,0.08732309343586729,0.08157262533692886,-0.007174769935947798,0.9928086959856859,-0.7952132724325609,0.8613396772829343,-0.13713466883218967
1729156186.118123,-1.932686566235329,1.8016575614740815,10.654595224263883,0.08331742444608653,0.08806696238765312,-0.007392241091247244,0.9925964797898142,-0.7385016611972239,0.7722178432469795,-0.0797266609305416
1729156186.135164,-1.9983007812939315,1.312034997089527,10.379581739050517,0.06253687516095331,0.0940385434644916,-0.005918846929870599,0.9935848523599788,-0.7006434839028635,0.6531884733602538,-0.02697718354668541
1729156186.155642,-1.7733494470478433,1.218895557579888,9.549943267063124,0.06315743938772624,0.09076907718837156,-0.005768214053967832,0.9938505119901004,-0.6302512906424997,0.47492264600124845,0.05532962019761006
1729156186.175883,-1.8521808547521434,1.1493649444112142,9.28511600540389,0.06123506269280397,0.09737994434970394,-0.006003025933256639,0.9933435343400094,-0.5067091729470334,0.3194344825791736,0.13068079619337128
1729156186.201573,-1.8197527840915204,0.8426084527307128,8.757991433076318,0.04767986600246466,0.10168197330245143,-0.004879108046313543,0.9936617135564694,-0.39938007753571514,0.19166068954750418,0.1571611390864986
1729156186.220707,-1.5953522795857715,0.7416333553298339,8.218577094953213,0.04476897517602214,0.09524538916345203,-0.0042878904416075395,0.9944373628843358,-0.28773102346663865,0.02602719088293788,0.12707481818447558
1729156186.245213,-1.6716411431420881,0.5127359201803222,8.32061754725513,0.03061074450299423,0.09874112071957991,-0.003038834690560233,0.994637591730645,-0.19477449727600882,-0.09591448157328955,0.10561750515156552
1729156186.260207,-1.526357168795409,0.3981423748620996,7.929577125032766,0.02496357229968696,0.09479235164300524,-0.0023778139871459434,0.9951811775393813,-0.08962053443203527,-0.23931834518826123,0.09359449745474355
1729156186.283625,-1.1262646272049799,0.45220879283718163,7.368862605586066,0.03054923676918967,0.07558567082322866,-0.0023168028854826336,0.9966685421560231,0.02966293138733704,-0.46541269357825255,0.05104841773530175
1729156186.300969,-0.962344715043691,0.40348520734293397,6.939299449337967,0.028964253520824452,0.06870281035250854,-0.001995483781680383,0.9972146278069359,0.12379458413644809,-0.6717338528149447,0.005513337014921179
1729156186.320875,-0.8814704398660583,0.38143366102685416,7.412990162766842,0.025655200752702303,0.05904522207808374,-0.0015179676739083185,0.9979244301039178,0.197726868305858,-0.8887526718171449,-0.05884274676450391
1729156186.35646,-0.8030183540075256,0.2961372632665031,7.807098447025339,0.018929822160736295,0.051180358231055316,-0.0009702812497608709,0.9985095349162171,0.23570088788557347,-1.0381200159842563,-0.11746382992087445
1729156186.378921,-0.004407201369359143,0.39747007036224563,7.1031210054710625,0.027945763760933284,0.0003096243469309583,-8.656069976479043e-06,0.9996093928858684,0.23124113569983273,-1.1852085807818975,-0.20712480768183683
1729156186.396818,0.35073984421744697,0.843975642070863,7.640569986095137,0.05496429497422287,-0.022761443957777794,0.0012532874621070215,0.9982280662341051,0.22813959432692626,-1.1065912155673658,-0.28944262845637037
1729156186.420476,-0.1055907126101568,0.778127273670252,8.495509823688334,0.04565217755712029,0.006181789034716243,-0.000282512093923708,0.9989382284984093,0.2194676285197899,-0.859772157612954,-0.3430902215357108
1729156186.44082,-0.4327797437282035,0.9801932001396513,8.953885928392687,0.054475206917341305,0.023967197835869786,-0.0013079375777470398,0.9982265847784769,0.19425701614679258,-0.5222486454897028,-0.3927320699032584
1729156186.458725,-0.2974962324673908,1.1658367806794938,8.881273510160613,0.06520574316482393,0.016563849413897214,-0.0010825113290932305,0.9977337711634999,0.17870495866153216,-0.3525126729483286,-0.4208144186779388
1729156186.474965,0.1722528037324561,1.1287824260737118,9.163556905168633,0.06124100858969686,-0.009309564296485705,0.0005712241842254688,0.9980794279928115,0.1634140633099075,-0.27578680304976394,-0.41723070499256953
1729156186.492898,0.7385333826789268,1.35841982795868,9.585275797153914,0.07027982897137598,-0.03796605171645067,0.0026768108390685815,0.9968009627004529,0.14146882425507173,-0.2293255910491631,-0.40316115506041106
1729156186.523299,1.0639365200858717,1.0741045164041143,10.586495151143911,0.050470148881792444,-0.04974319308149665,0.0025168817193095827,0.9974828540482877,0.1261732305148601,-0.2133681855697395,-0.3853542437489512
1729156186.544542,1.7116825162995697,1.7034181041295777,11.772609069446112,0.07159558062065732,-0.07121293395695365,0.005124795255946343,0.9948751315348163,0.15105107918769567,-0.18719182988506605,-0.36189939511821445
1729156186.562563,1.6286723869770072,1.0917221307882936,12.278854917986026,0.04422482158408347,-0.06556752164650495,0.00290883585113725,0.9968633827837103,0.18385677097280234,-0.09656456565694446,-0.34569803563246226
1729156186.577017,0.6015531917076887,0.6686802279358667,12.75259074498107,0.02618289947421645,-0.023525528554386634,0.0006163486110413912,0.9993801205726225,0.21333105745749303,0.20939461920398916,-0.3619443136901948
1729156186.593663,0.26324848729023814,0.6518810505798793,12.193354996305048,0.026700785178055752,-0.010773637200546337,0.00028778389601624086,0.9995853710377995,0.25230013242140903,0.4487355281720755,-0.4031931450730247
1729156186.618623,0.2865177215245335,0.5841012841565213,11.014096882060372,0.02648583978811828,-0.012980770640635386,0.00034395628542986613,0.9995648461097294,0.29483763016555004,0.5536022779598824,-0.41389467187447554
1729156186.636903,0.4745377227584701,0.4577210048689128,9.940947420007708,0.02299693335922488,-0.02381596696832606,0.0005479946872351807,0.9994516699046821,0.3671860355728581,0.6067314564189398,-0.3632731197194339
1729156186.653315,0.5456906146121132,0.5877941800697852,9.257792835549546,0.03168382021764504,-0.029359892628824685,0.0009311030267867931,0.9990661966498483,0.4391163129351991,0.6441429342933807,-0.29586515307921213
1729156186.676004,0.4995574681325023,0.21692527391101174,8.823000387609024,0.012285275546947482,-0.028265333638735506,0.0003474124684496661,0.9995248982509657,0.5120727836549459,0.6482851483751779,-0.17751909184752726
1729156186.695447,0.06486329801817321,-0.27183129439362735,8.216402199118148,-0.01653507172941803,-0.0039443938717116725,-6.523026110879676e-05,0.9998555040129052,0.5971386020486111,0.648216336455484,-0.11076835572313667
1729156186.715201,-0.23449985077893984,-0.5423403196049263,7.66545613636542,-0.03530514307756769,0.015242907581625704,0.0005385514633500254,0.99926018163592,0.6852131284320069,0.666054031885073,-0.09242810718306593
1729156186.733736,-0.5900915620786921,-1.1727121592922527,7.626023420588783,-0.07615948822978387,0.0380452960589192,0.0029080802477420634,0.996365309948936,0.8325610379066154,0.741035848423593,-0.10739105180820742
1729156186.756537,-0.8532459833897933,-1.6433514471866797,8.19397102134741,-0.09867065472037144,0.050601925305433865,0.005023972963888273,0.9938200575295785,0.9635387897375838,0.8013497805593384,-0.12743676018130512
1729156186.774991,-1.1962104245065321,-2.0966810184584923,9.371034221695165,-0.10961625107616538,0.0615514758036657,0.0068011584192455826,0.9920430623569494,1.1187496518993303,0.7949691336945823,-0.1982094136869241
1729156186.798467,-1.2707868382000131,-2.289430686270408,9.480397668026864,-0.11794205825733958,0.06428500855817769,0.007651473814099498,0.9909079490634686,1.261681906387436,0.7532543301056078,-0.3130403162388409
1729156186.81859,-1.5599806759180548,-1.8060512315864634,9.396378132066118,-0.09448106629374745,0.08035523889640542,0.007651355301141328,0.9922488702215557,1.3589348907397745,0.7273740678292991,-0.39002696893776956
1729156186.84185,-2.050968118685599,-1.7575985062858623,8.189567008634201,-0.10471567655264999,0.1191117007276504,0.012633784041599625,0.9872625878329825,1.3640754236684236,0.6535263720432156,-0.4570777735687663
1729156186.864097,-2.4348643062699526,-1.6516729978144862,7.4796061243699725,-0.10711770074215184,0.15237753293698447,0.01661543017595696,0.9823598185613156,1.2956438130999917,0.561540467687818,-0.5411543326779535
1729156186.892979,-2.5763771372287683,-1.3242766697824417,8.925177031555577,-0.07284352981297842,0.13824501643743511,0.010196043697953166,0.9876629872013573,1.153696302192431,0.40290624013930565,-0.6541767071783846
1729156186.919471,-2.9909664044075734,-0.44620966031673065,10.979325338806392,-0.02012140288009297,0.13245953288269843,0.002689529818460777,0.990980508246247,1.0672507254635084,0.27494756887762184,-0.6679274940729651
1729156186.943453,-3.367809753533216,-0.04482562162949149,11.85627537662368,-0.0018715397405373174,0.1379390988603145,0.0002606506092291323,0.9904389099817635,1.0175118297334649,0.1985980561820736,-0.6514879426449157
1729156186.966518,-3.484979587471492,0.16559844049886763,11.375683601218347,0.007194428305694415,0.14807239190835184,-0.0010771995105214357,0.9889497695015194,0.9523362171940903,0.08042103811619927,-0.6569490540007192
1729156186.989942,-3.3402821787524264,0.16687555111572686,10.889806899012259,0.00757311612591029,0.14824272308655453,-0.001135236231462234,0.9889213589576905,0.8753444342003447,-0.047953331020699576,-0.7121599083125691
1729156187.009504,-2.8529137957768462,0.08983026353076423,10.621504633792119,0.004190732050836882,0.13082056296311798,-0.0005529912820432067,0.9913970507680224,0.7244296092844376,-0.24800238026536603,-0.8048830295043635
1729156187.035889,-2.630882294800092,0.3112748365852554,11.29586023388855,0.013680648715337987,0.11411175454264733,-0.0015715382343522667,0.9933724767646344,0.5564051231488036,-0.463386383579661,-0.7557971470997804
1729156187.05925,-2.420091260424977,0.35627437949021573,11.799593542676881,0.015011513341423748,0.10091859318977271,-0.0015228898918877003,0.9947802635869766,0.43004902777970133,-0.6019819669204026,-0.6548296873314092
1729156187.081517,-2.2076648002002988,0.3341929711999888,11.135054897578785,0.014926635023733753,0.09765236748401736,-0.0014647876275057257,0.9951075645822621,0.27335425888045395,-0.6481042815776508,-0.4993203277643534
1729156187.103868,-2.2643230317315073,0.24217489160671204,10.540725434885163,0.011418486457935778,0.105569269282435,-0.0012122960138531806,0.9943456531249872,0.13038304047277186,-0.6621555884052148,-0.4153798933762846
1729156187.126442,-1.7002463959432013,0.17810549770816783,9.343284134222113,0.009489776263003185,0.0898612912350405,-0.0008562667839817354,0.9959087103199992,-0.044368913417402,-0.6603698110266645,-0.39609100723017165
1729156187.142843,-1.1664335590014676,-0.15386526216611496,8.660492958560612,-0.008861428993427447,0.06687636610866046,0.0005939733944061881,0.9977217417335865,-0.2066882440488806,-0.6269458999284198,-0.31385312533980664
1729156187.166306,-0.832977747705568,-0.17444027424302835,8.391597310780899,-0.010378843904048963,0.049436156372148314,0.0005137460878617186,0.9987232259777086,-0.30493122255069177,-0.5609170266315735,-0.22704967079692887
1729156187.188392,-0.6494242523831065,0.35693791553230797,9.176208998040805,0.019425474024813337,0.035286794374448656,-0.0006860196308200105,0.9991881817149124,-0.3532347581152277,-0.43190478974643914,-0.1306958316791509
1729156187.2102,-0.228045939369317,0.07194717070610354,9.880171252095966,0.0036406635862754376,0.011537899349067217,-4.2008684736082506e-05,0.9999268076627073,-0.37242600804032255,-0.33874691534126344,-0.07458628845433224
1729156187.229999,-0.25941068862159017,0.13319028484553713,11.718718886511486,0.005682163486583396,0.011065292460362468,-6.287966571151309e-05,0.9999226311905467,-0.40437388094555693,-0.27944667020646174,-0.10221993136997362
1729156187.254973,0.1656554496200147,0.17161209449130665,10.927794533811188,0.007851131401480615,-0.0075777254562883435,5.949726042939731e-05,0.9999404653641645,-0.5299651200542055,-0.24344083306411865,-0.2030867492888407
1729156187.279298,0.50975943432279,0.2138187935600184,10.41708747712265,0.010258078563225323,-0.024439101509007133,0.00025078633509083216,0.9996486579032842,-0.6321383373915026,-0.19289040659929468,-0.28276289280595235
1729156187.302503,0.17800529194133025,0.540093961682886,10.644809633490386,0.025343519201560055,-0.008346834161262518,0.00021161350054633288,0.9996439324147828,-0.6853541566261023,-0.09104422039477897,-0.26586368957399054
1729156187.323672,0.14798344371948566,0.2668349573319972,10.404595586002435,0.012819439282510257,-0.007107985703636737,9.113018223621649e-05,0.999892559333756,-0.7228176189658686,-0.02355115775013907,-0.20166152982913543
1729156187.350761,-0.044327546072996105,0.28244467923318267,10.31649147635732,0.013685110427604378,0.0021473621392156185,-2.9389707996873228e-05,0.9999040482589678,-0.7750940006720706,0.00417397799278392,-0.1282336489423358
1729156187.374393,0.10029616034448358,0.19292998380944085,10.563861898753846,0.009130354015396304,-0.004745985445242948,4.33348216816313e-05,0.9999470537882496,-0.8349810638137478,0.031025620913626466,-0.12121195575745278
1729156187.394796,0.2112518209625495,0.10642060381105514,10.420430969818712,0.005105871270459349,-0.01013420211846968,5.1747263420908565e-05,0.9999356106011088,-0.8713389917602161,0.05096781721929028,-0.1029511678182759
1729156187.415812,-0.01426738520567343,-0.30677005470555446,10.320725462994744,-0.014856920724115243,0.0006908188101445152,1.0264575649766768e-05,0.9998893911681468,-0.8693151050862233,0.08208918776847998,-0.03282377651154739
1729156187.441893,-0.17615454733434155,-0.4684931900498952,10.105997311488252,-0.023159402038287775,0.00870267260922839,0.00020161040961086832,0.9996938856169564,-0.8523502408077326,0.11736392249501305,0.02670595079243302
1729156187.465407,-0.1724909547189643,-0.6785333896158746,10.00708794133631,-0.03384306043241395,0.008592816247368459,0.00029098464864465,0.99939017710674,-0.7961967956027387,0.18705743033760447,0.08243122006353673
1729156187.490109,-0.3601529908001286,-0.7846856355761653,9.861072219147488,-0.0396861097869289,0.018180428376423557,0.0007221990738261795,0.9990465270158979,-0.7088677807355264,0.28378755297176145,0.14098209525245883
1729156187.507939,-0.4547936999976553,-0.7482993537578085,9.596291862982634,-0.03888915541500405,0.023586992338284096,0.0009182288658486689,0.9989646861822951,-0.6317803482504012,0.3558733985805027,0.18079521104189444
1729156187.528475,-0.5659265032017181,-0.5050039311023413,9.219790718375517,-0.027342873241394363,0.0305904019878088,0.0008371346928582235,0.9991575920717589,-0.570203046546693,0.4063616369906019,0.1859527178112264
1729156187.550283,-0.7065870164229839,-0.3401124843938267,8.76835623522453,-0.019367112195390744,0.040156564595529076,0.0007784909907284311,0.9990053849889267,-0.547730127614177,0.4387830303439716,0.17840497033627478
1729156187.567762,-0.9051867435451967,0.1512320357308915,8.34570316008003,0.00904561501427402,0.05398227062062099,-0.0004890359992861974,0.9985008022788199,-0.5789438327081808,0.479946059490557,0.17430201191276584
1729156187.595132,-0.94797154685954,0.6586438552275974,8.893690030813643,0.03689895051837173,0.052889345808285956,-0.0019556359026495955,0.9979165095531943,-0.650457623385875,0.514434748392135,0.17226592692012255
1729156187.614822,-1.0387647140043959,1.0131297616228865,9.480577092218654,0.053123252802755046,0.054156246559891964,-0.0028852823706160056,0.9971141840911906,-0.7189073014802134,0.5368307219789299,0.16976720574015045
1729156187.643054,-1.322605133334278,1.2631708513584974,9.567192364950333,0.06543078370209592,0.06790375982191627,-0.004462927590933945,0.9955340145989464,-0.8191480268800388,0.5902831719084378,0.19210661647404098
1729156187.669017,-1.7069510133501762,1.3463972788815046,10.083397230493636,0.06608344166166419,0.08284428782429994,-0.0055057220410903475,0.9943538051105554,-0.8916374739023329,0.6538557064143329,0.22338924549578063
1729156187.68982,-1.8765063990257307,1.8026291571238244,11.113056589028604,0.0800323157144367,0.08221936628896959,-0.006624100834734553,0.9933735075672978,-0.8900079956007341,0.6766743849052368,0.23407071174104577
1729156187.711173,-1.9557341348255946,1.9228999576532009,11.202930738085131,0.08457029606678432,0.08478442167141287,-0.0072224069706246655,0.9927775701044879,-0.8639145949935149,0.6546076268369685,0.22898595982873005
1729156187.735824,-2.3877795629266068,1.6249188613106704,11.336821562968266,0.07072992816415732,0.10233269229957218,-0.007294842417219524,0.9922056654861039,-0.8010069578068979,0.6119949577551274,0.2152928571447898
1729156187.761911,-2.355632477746198,1.52944842127859,11.098008976599319,0.06803946132972517,0.10319765031831976,-0.007075956337159915,0.9923058034258659,-0.7079226675048637,0.510228835304319,0.18110990178524175
1729156187.776107,-2.40218477229225,1.5380067029136382,10.40261852194592,0.07284553968518648,0.1117548121938116,-0.00821453873292647,0.9910282088078548,-0.6333417306193136,0.40276894513447253,0.14655235654126586
1729156187.797941,-2.4279613675257403,1.4294170930372454,10.258562658577707,0.06869164042174904,0.11459816464410544,-0.007943408069587647,0.9910023317150226,-0.538787431296926,0.2846560632883487,0.061964320175575585
1729156187.821373,-2.21549932661896,1.2622703363887533,9.80940758904311,0.06354071328881095,0.10973706338536335,-0.007029692913998788,0.9919026857972715,-0.45012809709384105,0.1895240006773386,-0.027526297236883455
1729156187.836049,-1.899598431420595,1.086804350270752,8.812795503132898,0.06095825549633314,0.10498363557256983,-0.00644744011898973,0.9925829727860144,-0.3373358879673056,0.08519316628844704,-0.13230347505980267
1729156187.857865,-1.7227471631004037,0.9535125991761232,8.107807437377785,0.058170841219245935,0.10362219959743905,-0.0060709205707723994,0.9928956324336699,-0.2326255271441876,-0.03444780258080013,-0.259874671095783
1729156187.883076,-1.584793520028211,0.9350685311853614,7.682899236596593,0.06019805558760473,0.10063000334842806,-0.006099927596505658,0.9930823668824679,-0.15234601813037352,-0.14113896894223502,-0.40239934824398615
1729156187.928235,-1.5362584179251297,0.7401274028909043,7.9405528915673305,0.04623455731291999,0.0949058953568308,-0.004412633028723371,0.9944022151053116,-0.061183616514419864,-0.2617704469335462,-0.6471222375197078
1729156187.959013,-1.3747380048566404,0.545351171959152,8.032895841385711,0.03376037484494787,0.0844080969539031,-0.002861509748449565,0.9958550707913821,0.016501087774102037,-0.36479901815359916,-0.8544039598127493
1729156187.982158,-1.174156825130781,0.5570540625504912,7.885033890329473,0.035157931169644434,0.07361798251682036,-0.0025969213245751717,0.996663217203112,0.10908643698511458,-0.5100514129321891,-1.069870666341449
1729156188.00679,-1.0217258150491717,0.30430491677834154,8.31466137911956,0.01825461315867683,0.06104602515462973,-0.0011166412739176286,0.9979673867534514,0.18762490983067182,-0.7023482949804649,-1.2783290416906068
1729156188.033192,-0.9103953352209093,0.22998814293809866,8.67921926643658,0.013227073866688182,0.05220921488901652,-0.0006915790875913654,0.9985483283827394,0.2398562742755505,-0.8773230328141148,-1.425539950096127
1729156188.06268,-0.48374853780246746,0.32402235475699975,8.098769484666636,0.019983187149184123,0.029795956557023745,-0.0005958018417048743,0.9993560517775325,0.28311441466341464,-1.0717027884213315,-1.5045013137872743
1729156188.076444,-0.05561735998616798,0.7627968869752936,7.5436405921671685,0.05036599565447429,0.0036629420913983214,-0.00018472341523856258,0.9987240936385926,0.3180087901868358,-1.2168518759036173,-1.5378303599737158
1729156188.097264,0.2156265566645492,0.8306947508375199,7.282628726638192,0.05675028363893692,-0.014680319972767758,0.0008345476445626824,0.9982801195268922,0.3661895794344585,-1.2600952520623996,-1.481203576622415
1729156188.122703,0.25890224381318266,0.5463008837056369,7.695841602437993,0.03542121641027769,-0.016761088772074995,0.0005941546238187767,0.9992317300363684,0.38019890083186103,-1.1898353238672499,-1.3293113595866517
1729156188.152934,0.3933249913074408,0.8099727445788509,8.664424027624905,0.046576616661790166,-0.022557357422205656,0.0010520557331356868,0.9986594402423691,0.3754081017649796,-1.0902112086527858,-1.1913501226043701
1729156188.172471,0.9422844845305582,0.8671405510441855,9.266881877512443,0.04657258559312183,-0.050372225612540546,0.0023515113693330023,0.9976412699724738,0.3448637683298186,-0.9282711247732198,-1.023861058184057
1729156188.194259,1.2776456846148192,0.7848436140737769,9.613033696819965,0.04062842134942417,-0.06574791474581658,0.0026792578300840033,0.9970051979115808,0.312915086301937,-0.7979032496514418,-0.8578113500667163
1729156188.218609,1.8097410740989697,0.9289169460321568,9.227920457349791,0.04989974754570623,-0.09608409683634839,0.004822979748462059,0.9941099538765136,0.2605420522911696,-0.6703024774487792,-0.599399132270974
1729156188.245579,1.779684285572663,1.3227764383712473,11.752339204341514,0.05584950164613168,-0.07449422501085405,0.0041786528487128,0.9956475191885334,0.28275517962892516,-0.5277600546005669,-0.32090168376953954
1729156188.266654,1.7537493469783634,0.13047200315946716,13.365392140768972,0.004869989915781589,-0.0651850569146941,0.00031813096988049505,0.9978612580644337,0.3326924013173132,-0.39157748357765765,-0.12017369981317834
1729156188.285833,1.7283721570151434,0.0830716052159928,13.359741507605913,0.003102292470588237,-0.06428264085356954,0.00019983783851633624,0.9979268900731938,0.35073541260940916,-0.12043586361330808,0.0032429209908726025
1729156188.305388,1.5168213069043985,-0.25876963086454496,13.394418934104564,-0.009642295442113131,-0.05633829470783101,-0.0005441201040971447,0.9983650267418891,0.3905081435640849,0.1384550622557208,0.07856996365768926
1729156188.326954,1.1370631015254515,-0.44735438105778946,12.07902144347055,-0.01848713947532983,-0.046872205682312006,-0.000867635397701176,0.9987294274313295,0.46928580006549236,0.4061717940031145,0.1595241544205899
1729156188.346161,0.5783295088644896,-0.3972206779510799,10.900725179314751,-0.01820421255105636,-0.026477231789707685,-0.00048224622011483817,0.9994835317706506,0.5122954933517165,0.6336351727010896,0.19830579746470356
1729156188.365319,0.4667077883265062,-0.06858350906556981,10.17243902604588,-0.0033700669003460084,-0.022921084050775677,-7.72663254039147e-05,0.9997315942716521,0.5385269993849131,0.76074801856771,0.21178391187754503
1729156188.38226,0.4660541419900443,0.06658896926768935,8.902045736184169,0.003738685036563926,-0.02614902912139087,9.779710925990134e-05,0.999651059593262,0.5759760961393946,0.7718851466839913,0.22966165193887664
1729156188.400886,0.4539303660534016,0.12877826315241048,7.939175663146048,0.008106066344311517,-0.02854834604774505,0.00023151676605130233,0.9995595180009776,0.6069593554213242,0.7551544701733484,0.23357725499228307
1729156188.427332,0.32455181582344717,0.2659300487117588,7.29776785516302,0.018206223169789645,-0.022201506045481576,0.00040437231810714773,0.9995876465074148,0.6591788258459824,0.7144663798416964,0.1784584585269527
1729156188.447499,-0.489531744978588,-0.24099190851708535,7.543795307824374,-0.015958039596983477,0.03237429572758847,0.0005169672125808249,0.9993482769751819,0.7467015962137655,0.6930333560729394,0.07089141989189893
1729156188.471382,-1.1108600735984808,-0.5101897386161106,8.25045786706767,-0.030803018681407442,0.06671114326493652,0.002060478978356023,0.9972946163650829,0.834121843474322,0.6861332026721536,-0.04771144109481135
1729156188.487889,-1.411831020965729,-1.3102420194391975,9.156408196803103,-0.07079376311021364,0.07547001573208154,0.005371720530050935,0.9946173457408841,0.9738404544303723,0.6573030870668843,-0.24870862643275712
1729156188.50772,-1.4485220696106873,-1.8055962785580497,9.741398083365064,-0.09125746421943068,0.07222133820831189,0.006635974810736563,0.9931828217251601,1.104497527764826,0.6106324034628428,-0.428477856178747
1729156188.531303,-1.3568121199402405,-1.6402490732871735,9.759119144208492,-0.0829616399501575,0.06784031467977625,0.005660836050110893,0.9942248301748168,1.26079305301305,0.5243104548801194,-0.6001929032456457
1729156188.556454,-1.8285105153723473,-1.5010575824000383,8.857321528029,-0.08339978947535641,0.09987646697879506,0.00840140033443222,0.9914628500008059,1.3694695203131555,0.4708145254846372,-0.7355743761568992
1729156188.572421,-2.207058198871846,-1.5848973839126792,8.60665961969826,-0.09020633384562891,0.12269813678105222,0.011199490996356243,0.9882725109836921,1.4023229560221044,0.4561702603672912,-0.8546896753737723
1729156188.592855,-2.241214155162951,-0.9801476906015137,9.069178099699815,-0.053396331735834246,0.11999567264348196,0.006463455163997923,0.9913163440856496,1.356053057920859,0.4056660752736045,-0.966173720681327
1729156188.617952,-2.199458485773552,-0.6017355638237988,10.165984995806218,-0.029382876837083412,0.10610799964065748,0.003136844608367134,0.9939154386399972,1.3159461072777128,0.3123614351210118,-1.0079484342396001
1729156188.644304,-2.411909888827412,0.01293296102212702,11.413761002366542,0.0005633566394954364,0.10393798027764009,-5.88730300394898e-05,0.9945836191186078,1.2880507263386667,0.16953787849120172,-0.9048805538744923
1729156188.659766,-3.0692175580523067,0.05636207031444809,11.472896528177737,0.0024344715748617985,0.1303253013291251,-0.0003200034314897323,0.9914682479935643,1.2206563804612571,0.11704756930735417,-0.8106873809843134
1729156188.679074,-3.0738261293138063,-0.15963425195195616,10.99960999088125,-0.007185752286627289,0.13581043237001733,0.0009850529486897055,0.9907082926342308,1.1299883456822917,0.10683788687014723,-0.7873753020442443
1729156188.695565,-2.963106113379299,0.4790672674323419,10.881556243552188,0.021795061359683295,0.13238490909362535,-0.0029116749010638346,0.990954455711195,0.988746752276658,0.0151483750539547,-0.7316704286569238
1729156188.714478,-2.758768088193595,0.207713445176202,10.843524557898892,0.00949919924615147,0.12421604055635242,-0.001189218101120938,0.992209013385029,0.8580272695953786,-0.09648211021021103,-0.6275829544218343
1729156188.738583,-2.4637827535509222,0.28408189767212744,11.708236101926834,0.012061242023227866,0.1034798907325615,-0.0012549257869439731,0.9945576221698286,0.687646526710812,-0.20006974665444516,-0.4523226035933422
1729156188.753573,-2.166842049591491,0.4685272452927296,11.78916354470102,0.01977416678437908,0.09067257739077798,-0.0018007488745873203,0.9956827925302253,0.4968745481959694,-0.22901850372694718,-0.2335071466858845
1729156188.776053,-1.8553205947451286,0.406093673835794,11.280110443715143,0.01792960929300873,0.08135374155108617,-0.0014637302893022945,0.9965229326713356,0.32622027297407574,-0.22723170520465696,-0.06603421731713718
1729156188.796812,-1.5577956051380928,0.2613732965866326,9.996407784783772,0.013029430843611639,0.07718661594322158,-0.0010087936501424043,0.996931011949421,0.08377567761993113,-0.2308422167673652,0.0710588855898459
1729156188.815217,-1.2114470749969182,0.2648024728250264,8.9312205448937,0.014784668118025483,0.06732188834225857,-0.0009977050555831954,0.9976212615633723,-0.11575371739823366,-0.244927845425927,0.18524150194368813
1729156188.837486,-0.8994901846954165,0.3561637004918909,8.149892622346377,0.021800956630656437,0.05486906802988101,-0.0011982894139391676,0.9982548110407488,-0.26867517920317097,-0.28786011759948865,0.3486799554620265
1729156188.85803,-0.5818320600359999,0.20627619514865017,7.410790501386341,0.013902150430591087,0.03914647170333226,-0.0005446904127498211,0.9991366209277587,-0.3323325122296393,-0.3578912472956769,0.493568934333853
1729156188.875196,-0.39602558856066244,0.016505482714190094,7.3563869985857115,0.001121423127403338,0.02688784251920097,-3.0163572874831647e-05,0.9996378271279008,-0.35520206983288716,-0.42076873812502946,0.581779391841335
1729156188.892891,-0.08055572423014745,-0.481626311201564,8.323563510186583,-0.028894900176160192,0.004828749865794613,0.00013958615822504887,0.9995707821031223,-0.3412539503998038,-0.4968073381542238,0.6593956899106221
1729156188.907782,-0.008110846647463475,-0.02106462094945402,9.26970343081898,-0.0011362056089312131,0.00043749070304106006,4.970797590766093e-07,0.9999992588189512,-0.3260740377565613,-0.5441332584175885,0.716182030227283
1729156188.929058,0.3317582454294906,-0.49100026426889115,10.042809885639826,-0.02442003056660014,-0.016485847580926204,-0.00040275979461240516,0.9995657640801893,-0.3889077105576991,-0.5022899504343722,0.7251381207910197
1729156188.946828,-0.14786487329894626,0.8498282349933528,11.510562514635849,0.036839168490815394,0.006400831578972513,-0.00023596632895785897,0.999300680145818,-0.521962488005877,-0.2596563442373442,0.6624013652953367
1729156188.964486,-0.49956392886218026,1.5470651001756992,13.44250804100807,0.05725023367538067,0.01841995350712394,-0.0010564595096077217,0.9981893607678927,-0.63457348920736,-0.019572986874556386,0.6004949784945911
1729156188.983923,-0.5458622879813706,2.125818730515576,13.10529931923375,0.0803007356606366,0.020477925533086964,-0.0016500704743057045,0.9965589414006839,-0.6957547390063195,0.18705346657803493,0.5361069824805738
1729156188.999016,-0.2949562302106974,2.708420931912861,12.00466962327853,0.11071360990739033,0.0119076011696866,-0.0013265846958491535,0.9937801294998319,-0.7235239975949924,0.3259284908007608,0.4944943544419291
1729156189.01996,-0.5236541385170433,2.4393205437668573,10.25564831083235,0.11645380027437859,0.024645258049044085,-0.0028905974371155963,0.9928860801239021,-0.7814774887100133,0.4901346170121824,0.43717433294762786
1729156189.043848,-0.9383608559129604,2.267804663906599,9.254837817065816,0.1197133403514936,0.0487073446714214,-0.0058803399607472995,0.9915955487591163,-0.8362570162677412,0.6048345150745924,0.23420905571208264
1729156189.070172,-1.0198301903055886,1.9925126164591938,8.7034326548391,0.1121016730639069,0.05647385277405053,-0.006381417015528012,0.9920701569778226,-0.86955042286384,0.6421533893638481,0.01962945597203261
1729156189.08517,-0.9303269349841344,1.3252732998559849,9.032431535042132,0.07268018860208603,0.05062201155429104,-0.0036937599428160405,0.9960629288696811,-0.8703704140557078,0.616867427053654,-0.22277755028235982
1729156189.106738,-1.1249036939494652,0.8839888615053878,9.388087592900279,0.04683869678439699,0.05926661108380887,-0.002783936128380813,0.9971388343625038,-0.8448953150216447,0.6029729198519237,-0.3601336428672167
1729156189.130992,-1.6520159138794448,0.5198588295985452,10.223015978591729,0.025316739073891037,0.07989363000664534,-0.002029791498594552,0.9964797792998602,-0.7989605711759404,0.5963389757767336,-0.40466088294801006
1729156189.15493,-1.85240388548587,0.24320171011264272,10.036597713375741,0.012060652465231256,0.09109616237542727,-0.0011033480240728944,0.995768453248907,-0.7743795552987521,0.5966155099462398,-0.4739462331426892
1729156189.176618,-1.9728760886157404,-0.016166426324992506,9.371207330418022,-0.0008577294132926493,0.10356141610270966,8.930790925840081e-05,0.9946226869618209,-0.7600566358339012,0.6065723018615703,-0.534247805963826
1729156189.198991,-1.902704411714366,0.2974762172030514,8.569028961239095,0.017242238287624737,0.10895280613387189,-0.0018901283880152992,0.9938955773465663,-0.7629565158144656,0.6261684589775537,-0.5751113403325905
1729156189.223506,-1.6520664409739323,0.6068084073237839,8.012783427768845,0.037581920535631634,0.10113661773378026,-0.0038232548662271684,0.9941551018450051,-0.778318525769589,0.6357977029398335,-0.597926700708001
1729156189.238666,-1.6467722791351405,1.1065269792087236,7.677839006856619,0.0710990698062902,0.10413472934299971,-0.0074636625126897555,0.9919905111235878,-0.7858329714968151,0.6411495592557394,-0.6188526479781019
1729156189.266865,-2.052525425586553,1.2198498130135154,8.59448568927022,0.06994398232817425,0.11554424396609862,-0.008156640142527243,0.9908031268844301,-0.8286537444647335,0.6686250065486188,-0.6343880467703966
1729156189.289057,-2.3783378505667754,1.164302707632328,9.622116929919553,0.05971926255423957,0.11980742031409285,-0.0072199849497423885,0.9909730892082719,-0.8892527932853712,0.6978809767682073,-0.6143366718048933
1729156189.324987,-2.156994796521706,1.302399283270803,10.182671355461498,0.06320901105493253,0.1031588068930273,-0.006568961499613206,0.9926327267558134,-0.9783977901990457,0.6605205409713583,-0.5201476649634191
1729156189.353381,-2.124506013655211,1.300502489884357,10.443107818159708,0.06158812891185385,0.0992445335035813,-0.006154528467336149,0.9931362176087115,-1.0561491218505863,0.612562875805527,-0.413402833606015
1729156189.37482,-2.288648011269298,1.1415865244481922,10.751640921364576,0.052567033836736304,0.10396351621390289,-0.005502604978432521,0.9931757224119507,-1.1151449326239096,0.5808084462757941,-0.20972959463202615
1729156189.399152,-2.6093151239002506,0.9763262567099309,11.108903882652728,0.04351578790708899,0.11456115181664447,-0.005023143813630957,0.9924499416713654,-1.1096761731875484,0.5081188408137383,0.034221706330508195
1729156189.42394,-2.7406632491448377,0.789781735471271,11.11807857715023,0.03518298137602646,0.12018391542621801,-0.004262018046693642,0.9921188535132711,-1.0774479933463135,0.42491590182053585,0.22188442286984586
1729156189.446599,-2.639667579613856,0.7772143916245595,10.786479800098732,0.0356893912028582,0.11934015460793392,-0.00429264946961952,0.9922024833743639,-0.9865951551159513,0.32816823166379094,0.43153938680679166
1729156189.467692,-2.505328766762454,0.4301761899063763,10.191998419610021,0.020930517358078285,0.12009660057234518,-0.0025325813078218313,0.9925383146287146,-0.9014337677524678,0.25479478735711086,0.6062867222370928
1729156189.483977,-2.0414137932605976,0.609095677322732,8.926231220955465,0.03383607076953162,0.11186378807221471,-0.00381117565996203,0.993140014385234,-0.7920173969140794,0.14776859167672213,0.7775427730833504
1729156189.505004,-1.9596287654583116,0.6618595719209829,8.366207900053748,0.03919308140854761,0.11435547165834538,-0.004515101286178435,0.9926562055071614,-0.6616626850688174,0.007780043328247263,0.8964726259266622
1729156189.532093,-1.8238876486792837,0.624804321033449,7.95453713505178,0.03892568219630546,0.11203964848106714,-0.00439226725936348,0.9929313251288396,-0.5493946530446978,-0.12899865330212956,0.9405863736990792
1729156189.557183,-1.6234511561021012,0.60688073348921,7.817907372583802,0.03851629147784054,0.1018218756107282,-0.003945279754272955,0.9940489101173885,-0.4445731084215672,-0.32387373756779403,0.8623348672428697
1729156189.575062,-1.4031116311612606,0.3983655238337604,7.7313805319487185,0.025629726889769288,0.08949828954753146,-0.0023038280233885237,0.9956544910982227,-0.37231500029552417,-0.47102278249099694,0.7655782261780862
1729156189.591168,-1.388702637876444,0.13774458407564685,7.948812114335246,0.008629817337303029,0.08635636867710338,-0.0007480623865218837,0.9962266530485394,-0.3055471820394866,-0.5933674143618812,0.6875168086505006
1729156189.613495,-1.5016826862414914,0.27657708491804434,7.7182254534156005,0.01782265639363651,0.09585824511480096,-0.0017166301207634845,0.9952339438260803,-0.24037077745960417,-0.7455268548548877,0.6113073438930692
1729156189.64137,-1.410256304860129,0.3112742917223109,7.653614867996626,0.02023493437557157,0.09089009961061552,-0.001847183769057699,0.9956536170454623,-0.18253457200734535,-0.8993989581856101,0.47405830182427344
1729156189.667708,-1.1530904357481087,0.16761096175213655,7.808539431051881,0.010700716657423065,0.07321898894602213,-0.000785649772990691,0.9972581697209474,-0.12910248603166066,-1.104530086471482,0.18184367628221443
1729156189.684743,-1.1845809631090214,0.19872884511768818,8.184967645447534,0.012104608372209206,0.07177627069116153,-0.0008711348341718096,0.9973469238664775,-0.0898065034013953,-1.2514474068848789,-0.06074412875402198
1729156189.708432,-0.564462856429866,0.46328408563506607,7.745475932727505,0.029846247011568575,0.03628509091800977,-0.0010841716890406877,0.9988950987406761,-0.04537010081159654,-1.377484214603038,-0.29058344394524604
1729156189.729565,0.2543660373627835,0.36823185396893027,7.666134432927518,0.023992615518515916,-0.01655954500877166,0.00039747576406645474,0.9995748985857439,0.01960384627386555,-1.4692825215694905,-0.4799955304968863
1729156189.758492,0.7966598689997013,1.0749508445590925,7.936718933682292,0.06717373912638495,-0.04943859647031558,0.003332605795737646,0.9965101141932459,0.06497356544707328,-1.4213445108755502,-0.5838519110142437
1729156189.780489,-0.02119512474275731,1.0802363685518617,9.600234075053125,0.05599594409249763,0.0010952401349995887,-6.142541909648263e-05,0.9984303936284965,0.08623573609052948,-1.0711857080553524,-0.5759268791834229
1729156189.805676,0.2458567044512206,0.9194048692268202,10.134346878137343,0.04521814177586299,-0.012065264272757361,0.0005461673616577688,0.9989041249056786,0.09005354718590053,-0.8176700400941064,-0.5588268483025316
1729156189.828623,0.9110249320945606,0.862649717190389,9.531610399831624,0.04506095057264655,-0.04738606035611401,0.0021398456470882437,0.9978574512815058,0.07829646181487612,-0.7298398385981255,-0.5970954967806684
1729156189.855167,1.3036615241981426,1.029948985587671,11.358268830231005,0.04512398562864853,-0.056817894776400216,0.0025706337953461562,0.9973609901114309,0.15765729306905388,-0.6516003140128152,-0.6387870485718798
1729156189.87767,2.3796082621751355,0.9505240019483057,11.862656658246026,0.039765258575367224,-0.09843773825563111,0.003936681350684262,0.9943406048419693,0.27849248239303,-0.5744326048978248,-0.65401110823298
1729156189.900661,1.9473067175589873,0.4221133184053115,12.899351584058943,0.016307556124327077,-0.07479569686405291,0.001223325757581214,0.9970647776438417,0.3769606897365996,-0.2991107263622575,-0.6414353508950765
1729156189.919732,1.4626314145685955,-0.8186160922087663,14.068204198726379,-0.029017280773757675,-0.05166577846749781,-0.0015018411645308862,0.9982416487128559,0.41475711106963975,0.019756512946876276,-0.601111761759758
1729156189.944795,1.2065421568466261,-0.9980221467803378,12.771075641794422,-0.038939705596257104,-0.046902260468527704,-0.0018297662656263528,0.9981385320918297,0.43445513343922965,0.2966405588862249,-0.4734749233432931
1729156189.971121,1.0469030980630538,-1.1580987958807027,11.574770897771964,-0.049788056200578704,-0.04480709914902633,-0.0022358852899005393,0.9977517096665822,0.47607225116332574,0.46021684608106195,-0.3253768899677929
1729156189.990103,0.7729910592772854,-0.9699530482803748,10.239523443204193,-0.047170203540164886,-0.037456143924493784,-0.0017700304551819743,0.9981827869546112,0.5538280894190754,0.5741131506720593,-0.10497984095072503
1729156190.009775,0.5930815252148087,-0.864008784534631,9.687611363285798,-0.044439711233137336,-0.03041676727601013,-0.0013536779004059336,0.9985479957869497,0.6311312767977914,0.6492619744100502,0.05067134183992744
1729156190.029279,0.4458708975507602,-0.9041111581719505,9.28583516636015,-0.04849588144711669,-0.023846583768396865,-0.0011581543144868279,0.9985380055880837,0.6838985401469515,0.6909457481611485,0.12916289936314782
1729156190.05498,0.15595274116717484,-1.0555441106746546,8.834079702111012,-0.05942342604176782,-0.008747928713887722,-0.0005207722015522641,0.9981943993917164,0.7198157987710678,0.7155303223503455,0.17370369350830783
1729156190.081632,-0.18463458820985135,-1.1952455960434645,8.508199205543951,-0.06972332403642219,0.010716876290861186,0.0007490825632425864,0.9975085190228662,0.7486028849903923,0.7349636575399461,0.21149611159341666
1729156190.104482,-1.0921640134239576,-1.746175231161235,8.540120065318558,-0.10046941264483182,0.06196552727382614,0.006269597195350515,0.9929888532624559,0.8020587919462596,0.8002606063979223,0.2516248549644252
1729156190.12348,-1.9342809349098433,-2.180880784448694,9.290940608527071,-0.11442551207231831,0.0991573343894075,0.011479239791824102,0.988404194789549,0.8869179037410719,0.8986096942559305,0.2914526332611256
1729156190.141716,-2.232452644197859,-2.1642161440090604,9.50608291125882,-0.11095576779323216,0.11161231605349828,0.012541317572350325,0.9874584668998174,0.9633747745056811,0.9333548134673996,0.3055584288255191
1729156190.167573,-2.298588771577309,-2.0000307728312174,8.427532975515058,-0.11522434658428998,0.1284593780824539,0.01502882996025163,0.9848835831746403,1.042452721758485,0.915038399339774,0.22420130319566647
1729156190.190108,-2.259740633551854,-1.9374325750268553,7.86084818985005,-0.11936949805225788,0.13468597955317752,0.016346524141092743,0.9835361716759876,1.0928793205404017,0.8891493987120277,0.10940506829114002
1729156190.209956,-2.059021407719003,-2.154856133150879,8.08036224642956,-0.1289529045453602,0.1193926644083477,0.015641399034755876,0.984312900825254,1.0924855953842854,0.7799641848137329,-0.046739135251292335
1729156190.230909,-2.3906151456567923,-1.4578741742752928,10.161190251910469,-0.0707062173001383,0.1138642208177133,0.008124485518649168,0.9909437737771695,1.0645795062955836,0.6225040031989572,-0.16341292069570146
1729156190.247258,-2.5675447331460286,-1.1107927882565818,11.888766807396282,-0.04629240258434536,0.10558874284749221,0.004920829731602329,0.9933195942301791,1.0516670633955207,0.4995066601121356,-0.2436337534374357
1729156190.271391,-2.7242201406688666,-0.49696619541488657,11.875694732875269,-0.020771949054024342,0.11238869531674783,0.002349937492714041,0.9934444046303127,1.040939767225249,0.3818621779294535,-0.32199024744628046
1729156190.290461,-2.9458363336688977,-0.5876386979618226,10.899636336795474,-0.026684213178428104,0.13136986610330492,0.003537452100149803,0.9909679094096272,1.0059821554051296,0.3002075470218314,-0.38347760594129643
1729156190.312829,-3.062046637847823,-0.15506158181420288,9.602444565749158,-0.00797327940510451,0.15370850993829704,0.0012403416924682317,0.9880832871476789,0.888375944361177,0.18012452821309882,-0.42803244214462255
1729156190.334649,-3.072157199017288,0.17319827552085326,8.904814099068636,0.009584111302648784,0.16530723723398696,-0.0016065019391456005,0.9861942411513689,0.7658780302364375,-0.017929541264902052,-0.44369740226860543
1729156190.359744,-2.922121587476779,0.2518806279101682,9.057252915007588,0.013724972411843275,0.15533915757997147,-0.0021584373927583693,0.987763490114238,0.7017444631137585,-0.17294563817597527,-0.46075879944931164
1729156190.388331,-2.6929971040973957,0.10204724271289779,10.512692890361974,0.004813676338304465,0.1250514751092907,-0.0006067271780111191,0.9921383920478192,0.6811433054215563,-0.2889425596415689,-0.4680158073275012
1729156190.412132,-2.6220812202221095,0.12156222746367619,11.774056964685933,0.005129865037810322,0.10933590694048238,-0.0005642688776659574,0.9939914615019737,0.6585660493311463,-0.36705451375016573,-0.42852393572382563
1729156190.433142,-2.1849672563031874,0.07221907598015884,11.869596910745152,0.003029039198715727,0.090893822010922,-0.00027646664298622774,0.9958559442047704,0.5415770107416267,-0.4501053414395966,-0.2818043849990932
1729156190.457006,-1.664843359153006,-0.15251425021268597,10.56174709175959,-0.0071966228866594435,0.07808194373286378,0.0005636619255929393,0.9969208097773657,0.29131669158947554,-0.5067468790366475,-0.08053909821535334
1729156190.474067,-1.2941110801890692,-0.2179223977838616,9.434426942799893,-0.011519127721391211,0.06808394350928497,0.0007861443368037576,0.9976127847566132,0.07517854057156993,-0.5343464506729476,0.09002581104594826
1729156190.500848,-1.232562064373207,-0.12764097651211384,8.139133724273686,-0.007817447848145496,0.0750651894809565,0.000588496707363253,0.9971478117656154,-0.10643853753754129,-0.569210866297595,0.23408238262600833
1729156190.517855,-1.0261231773446273,0.40800183010835667,7.6665002443298365,0.026520175752732644,0.06636192567791295,-0.0017644441601284819,0.9974415581051198,-0.21413171421862193,-0.6105626386225609,0.3307328870491331
1729156190.539959,-0.7279619642681043,0.17225678776227962,8.446185113638917,0.010185929452592528,0.042963536934507406,-0.0004380508226809811,0.9990246190393611,-0.28385590096481467,-0.7030584217900036,0.4508739386764646
1729156190.564044,-0.4489876070276595,-0.32808106650278845,9.035621479560303,-0.01814009429667023,0.024802049578723402,0.00045012411856681234,0.9995276848111213,-0.34952905645440413,-0.8100643891273749,0.5885148391180164
1729156190.592849,0.07106291185762308,-1.1873298667083136,8.866629076701026,-0.0665093390011707,-0.0039629823118868795,-0.0002641623298003799,0.9977778975378672,-0.3974467509773984,-0.8585174372557025,0.7021747538696758
1729156190.614065,0.3459830974563707,-0.7451984827691288,9.187810228003036,-0.040446629102851274,-0.01874149065481771,-0.0007587846331915316,0.9990056310993107,-0.4168321863390303,-0.7862750315047357,0.8372040423702103
1729156190.636326,0.11972265754608805,-0.6087277017220241,9.514594211752994,-0.031939529935590474,-0.006275115784191227,-0.00020053051273296013,0.9994700841630538,-0.42378085687992706,-0.6633255465607556,0.8965114223359674
1729156190.65847,0.6493150349573404,-1.2623439830937613,10.434910604200232,-0.06012795783271784,-0.030787488567653787,-0.0018554302434622167,0.9977140455126284,-0.5020201298988586,-0.45759193654113783,0.8354642063635405
1729156190.683968,0.33188876096463865,-0.3417729816531317,10.454869410615842,-0.016336475346210202,-0.01585587308852461,-0.00025909624058804314,0.9997407882701402,-0.6106887526222121,-0.26008169983497365,0.7898963854893817
1729156190.716647,0.9279282419303457,0.06835404059796474,10.978725009406615,0.0031101002770168662,-0.042146583428345194,0.00013119731395961042,0.9991065886925425,-0.6912147684688574,-0.09730379141922382,0.7859686463452982
1729156190.739963,0.7633765484296918,-0.0944993896060649,10.545808030546313,-0.004477248389373104,-0.036120679457963316,-0.00016182848265002177,0.9993373927627731,-0.7386789978539205,0.04591179020666345,0.8930143486545902
1729156190.763976,0.7860315564992213,0.21767587649026732,9.800992586882474,0.011093494418392889,-0.03999099026488986,0.00044402241576382904,0.9991383577479731,-0.7454473423503948,0.1548284025011455,0.9866143842810455
1729156190.791434,0.6109614705206265,0.19740375221251977,9.572454512090422,0.010303944681085855,-0.03185540964107707,0.00032842051765293723,0.9994393196890804,-0.7286495360366397,0.22358389036953102,1.0427744056569188
1729156190.816342,0.26649925291784465,0.03584229405212124,9.648894455301129,0.0018571327599550332,-0.013805765955262542,2.5641628215742336e-05,0.9999029709060812,-0.7181451621869247,0.2699454638281067,0.9619597919491563
1729156190.838737,0.04186540990500363,-0.34169501541443037,9.609764262292003,-0.017770066680536222,-0.002176539650043639,-3.868345450705726e-05,0.9998397301112372,-0.7033287366478551,0.29776240790325204,0.8457863039520357
1729156190.86147,-0.3273072384319979,-0.5196151073931895,9.694264641359577,-0.026767356852964937,0.016844071228042264,0.00045109696455537584,0.9994996660245061,-0.6561267757928304,0.2957222116440099,0.6879643684311227
1729156190.885283,-0.5172073655201361,-0.6881375654124762,9.610889575831372,-0.03571793419287137,0.026792591341652423,0.0009579318037577409,0.9990022365304556,-0.606521096206714,0.2957751640728507,0.5592160022016125
1729156190.908566,-0.6857352396245816,-0.7499861329974857,9.39710114295976,-0.039782966914406095,0.03627018103686741,0.0014450324465762568,0.9985487977020795,-0.5690952673487277,0.31666574854179474,0.37809860746717067
1729156190.928815,-0.5424039745852959,-0.3592514368785696,9.62580355076609,-0.018643443874899693,0.028116575366727077,0.0005244884172848824,0.9994306404658758,-0.5781408345821262,0.3645323743245098,0.19237826950187784
1729156190.954897,-0.34100469554219315,-0.02209936798651674,9.26886177279364,-0.001191917431163898,0.018385782420992022,2.1918055000049964e-05,0.9998302565221779,-0.6112380289171973,0.4170909932360126,0.10137918967287965
1729156190.976691,-0.7456923925206282,0.3018173176846524,8.671624440385168,0.017378063137533453,0.04284516960451197,-0.0007453633797704628,0.9989302972663211,-0.6604689597591201,0.5324871066909345,0.13149206400642502
1729156190.999402,-1.1455646396139396,0.717630982651807,8.681749676438132,0.04113279889181646,0.06527399219461427,-0.0026929387458617038,0.9970156201781464,-0.6734056058672546,0.6370570498652363,0.15339099915971055
1729156191.027297,-1.4656937434851607,1.2759711957922562,9.622281726028895,0.06567826295338838,0.07470174827793141,-0.004930794546169478,0.9950284929813767,-0.7024520966052369,0.7257661095190012,0.09756857029483275
1729156191.04647,-2.05305389989969,1.1723575795359007,10.091311729709133,0.05749721643781136,0.09937004506809875,-0.005751626670866582,0.9933713218307173,-0.8245997461676859,0.8539129961285779,-0.016805998701879953
1729156191.073978,-2.4241447666976264,1.1822548797527903,10.694989275374306,0.054668873859719344,0.11040101304850021,-0.006081941892201906,0.9923638146020818,-0.9161930085480228,0.9780527249166093,-0.11224921397201555
1729156191.098558,-2.4047454989345916,1.729043414912221,10.81538143509763,0.07869979063925274,0.1075151575335464,-0.008537860792657533,0.9910468903068914,-0.9226202989695533,1.0452998311445736,-0.18228584497795788
1729156191.121636,-2.435962147993567,1.6433984891328797,10.587383842748032,0.07642073755051526,0.11121632893748816,-0.00857801056404285,0.9908164395006105,-0.8941242285513573,1.0588296210092443,-0.19621227952502918
1729156191.151394,-2.5444746996848124,1.4476411735578527,11.234207490707412,0.06362656887305718,0.11003323511361457,-0.007058463696947984,0.9918641666045371,-0.8148758373269831,1.00479674595459,-0.12368702857548594
1729156191.176305,-2.404159728258153,1.3859716828944773,11.030933869424445,0.06208557900566958,0.10607531608869497,-0.0066362106745261095,0.9923957723126886,-0.7243321063846933,0.779539423079497,0.02539925723682382
1729156191.198015,-2.5218019453533294,1.2536807624222333,10.922377225951543,0.05673180516815455,0.1123165714517513,-0.006423108478266453,0.9920308632986993,-0.6521268852379141,0.5613754673693451,0.17742746775912832
1729156191.21613,-2.71305503928231,0.9231544559884961,10.212484732787724,0.04466761791602521,0.12883637455565944,-0.005809174229082403,0.9906423400985029,-0.5645319861577953,0.41259811136184865,0.33547773372205
1729156191.244954,-2.818469509165089,0.9972988210540351,9.533960961742945,0.051535460431957454,0.14230081296402028,-0.007419206756619848,0.9884530997062771,-0.47323725111667914,0.3356767095397497,0.4234968523164105
1729156191.264386,-2.400004817071319,0.987197642241796,8.648485207416861,0.056262371187543084,0.13389397423446542,-0.007614146333617964,0.9893679669504495,-0.34481602945907797,0.20864275676870436,0.4958900663002802
1729156191.284247,-2.2973665047447445,0.798938188616562,8.12653714129582,0.048500054251980694,0.13653351579916248,-0.006692658731488371,0.989424859259246,-0.25116138406749805,0.04983851318244302,0.5908344921275079
1729156191.307071,-2.128283862807784,0.7839053643418121,7.7477671761349125,0.04992978881841322,0.1328289129260768,-0.006700072570594353,0.9898578711648325,-0.18986031609500575,-0.08290475837797255,0.6448213171936104
1729156191.326194,-1.8568459597745144,0.8175024593277435,7.729279581803993,0.05228666303012875,0.11682289390568032,-0.0061590525958014584,0.9917563120040114,-0.11817309027162377,-0.24768873360662821,0.6167654235056633
1729156191.348834,-1.733008705015099,0.7399772885849273,7.760324974424193,0.047219716793914464,0.10903423503352944,-0.00518536998182091,0.9929022841522257,-0.05643039207326519,-0.3801886335993221,0.5675794426217806
1729156191.371553,-1.4262293709582783,0.5727944224673627,7.612555194615452,0.03737561103380744,0.09215129561317463,-0.003461388827936786,0.9950372963884543,0.01552181188563656,-0.5273732933674016,0.4997557485598682
1729156191.390439,-1.2086429472819982,0.5091159881972144,7.866743004464584,0.03221085136156884,0.07595407548946902,-0.0024549219114039867,0.9965878851508841,0.07614642678092089,-0.7097615928113581,0.48545431593336674
1729156191.410825,-1.0491212529883396,0.5108920953597349,8.153330983342814,0.031217906819219127,0.06378686531488587,-0.0019963368536881384,0.9974731538975341,0.11081843547224335,-0.8949674034179737,0.47985328678770006
1729156191.431677,-0.7882083218613631,0.6592011617568566,7.709016263345531,0.04258138592918084,0.050693554385084987,-0.00216335308331529,0.9978037427368137,0.1256619798265684,-1.1538053411092681,0.4283896923550905
1729156191.449498,-0.5473846647476772,0.6347014429037233,7.542505060741694,0.04193532299205938,0.036056400377331044,-0.0015143562401892974,0.998468362744939,0.13882500705378376,-1.3448660688868552,0.3826123835443537
1729156191.473638,0.08624492869045619,0.6772230312695778,7.034147535956735,0.04797098511806509,-0.006094864339625424,0.00029271910112000526,0.9988300914224659,0.17268991713929688,-1.5139908334205476,0.3389697759223543
1729156191.491693,0.3905264921263831,1.1686476273554967,7.489052628019354,0.07729561151461435,-0.025658740504366638,0.00198992253178182,0.9966760043688364,0.21173922589493416,-1.4187968837453044,0.25914726360493867
1729156191.509558,0.09042437550043922,1.0722898337375166,8.406275350004972,0.06339307124402407,-0.005324197425080458,0.0003382022970520684,0.9979743769552578,0.22495224967322774,-1.13563909130382,0.18315821215799524
1729156191.53381,0.18282325445065414,0.7506341346175099,10.123782292522513,0.03699509262021329,-0.008997417891469812,0.00033310184490782804,0.999274886423385,0.1911624379169248,-0.737148852833818,0.10393526643432871
1729156191.560413,-0.11009375973195128,1.0304955430263654,10.543286194361164,0.04869506974839437,0.0051899005052451035,-0.00025302615400376146,0.9988001757572483,0.15896922914220618,-0.5023116103664372,0.049590458016736276
1729156191.592353,0.8887513662311416,0.9170936930033191,10.311120379946775,0.04429756025521709,-0.042767088380550225,0.0018980826150739297,0.9981007462121607,0.13369364301690656,-0.35034132328799594,-0.020902842503939995
1729156191.609038,1.6671447259886851,2.6020870385558976,10.805805490907519,0.11753819066784009,-0.07385525559449577,0.008766023941580148,0.9902794210624887,0.2521949706408047,-0.25064534981169057,-0.03254913839107948
1729156191.635024,1.8157519210424296,1.1815318398327574,11.249381119251543,0.05212743398939648,-0.07939131836931751,0.004157294188523117,0.9954709770245905,0.3782097851437457,-0.16656343222257156,-0.014421202297103308
1729156191.666622,1.3690939065317078,0.9349317406184043,11.631645276775535,0.04002108194045596,-0.058315849577499294,0.0023397293123644013,0.9974929074209574,0.4291286502807124,0.07800038635758631,-0.08357417219557954
1729156191.68849,0.896634276047931,0.01340512469330817,12.331464397510633,0.000543160866489882,-0.036283687687104146,1.972086775398778e-05,0.999341382409027,0.4447808172117213,0.32222170158048624,-0.18295980249350158
1729156191.715608,0.22481898848032103,-0.16290292371917134,11.30118792439505,-0.007206404187345267,-0.009943930435456012,-7.166538638884258e-05,0.9999245875816114,0.42820502362114277,0.5270740291345246,-0.20427907514067195
1729156191.74068,-0.13732933567157302,0.18142215934271594,10.999296079832343,0.008245981288473616,0.006241216085859832,-5.1467703412418435e-05,0.9999465227528096,0.48041029644025224,0.657647846773264,-0.1434262580960427
1729156191.769936,-0.39364381722325625,0.320500722363442,10.789430553172842,0.014845055263743818,0.018222965604939488,-0.0002705956972965315,0.9997236991472924,0.5500455656633008,0.7138562541604822,-0.1005292169473347
1729156191.78592,-0.4277224231464537,0.04122630866220584,10.303183887323627,0.0020001989708354653,0.02074320128311442,-4.1499542108004154e-05,0.9997828349608695,0.5990634582419845,0.7037352222622237,-0.0965011853926735
1729156191.809835,-0.5429799724425597,-0.014768542195254619,10.02556167760902,-0.0007362634661173885,0.02705001086190945,1.992323044010473e-05,0.9996338101682756,0.6182576323141059,0.702345193799351,-0.13026802168414947
1729156191.84169,-1.1407742285827234,-0.49009565900855895,9.301139364963849,-0.026267800266445672,0.0608771909577621,0.0016026384586101386,0.9977982771283108,0.6365851777407712,0.7542967443429193,-0.16840710604044037
1729156191.870331,-1.6170060837804932,-1.0060929691356042,8.829375851644325,-0.05646024172821042,0.08973030801746272,0.005094974230804107,0.9943514238762223,0.7288885067360185,0.8855048391126377,-0.14829586044654974
1729156191.896043,-1.8673110123288428,-1.5534355800653468,8.953571446045189,-0.08533064393180355,0.1007859213495412,0.008676444572392474,0.9912041154946292,0.8340762413242245,0.9663581462817789,-0.12388410130781644
1729156191.919033,-2.1412741952879304,-2.0616456913009267,8.922983349804847,-0.11251103555122387,0.11385386985598497,0.012978263832346851,0.9870208345652617,0.9674277422183835,0.9442055803805663,-0.07645891109200001
1729156191.950156,-2.432305372885649,-1.9346577785500874,8.094911490595798,-0.1157985590073883,0.14071142501578532,0.01657402261770597,0.9831156037700283,1.0768112569957589,0.9206974793647502,-0.04204413610204172
1729156191.975725,-2.8702862620614678,-1.8819282071691148,7.596631854074276,-0.11917594507853936,0.1735701378262604,0.021164661545676717,0.9773548784711041,1.1747938105332985,0.9312826423200583,-0.10355345297023884
1729156192.000941,-2.9657200995220365,-1.9285808586276405,8.871851663714097,-0.10543650592883645,0.15631073354064184,0.016784305011085524,0.9819207630469985,1.2203869507504992,0.8618609091530014,-0.26688899134538047
1729156192.027235,-3.0313601078089247,-1.2775768586824434,10.519246861265566,-0.05978327767260256,0.13861106068964515,0.008382983704982278,0.9885052651096068,1.2609392267861428,0.7520974594188423,-0.37638394602994035
1729156192.046845,-3.4557317397341825,-0.9511390632075131,10.206195957335511,-0.045806678268574555,0.16169237743876932,0.0075136688562566995,0.9857488869303969,1.3061294054191683,0.5917361959337758,-0.38418707048184
1729156192.064752,-3.8106717684498843,-0.5934283536959922,9.678628199401306,-0.030055338641562783,0.1860420728123045,0.005693670755265718,0.9820654794239398,1.2979112374976354,0.4870056366134953,-0.3803551439237391
1729156192.087594,-3.9044045430035244,-0.5758447246199391,9.132244185265783,-0.030815247465316515,0.20018895492394181,0.0062995736861962545,0.9792523261251328,1.1627191779373338,0.34115773903623076,-0.38954961964835344
1729156192.108835,-3.95394044308727,-0.09674928228172901,8.955009061208298,-0.005280282910728872,0.20638775882378327,0.0011137817371634031,0.9784554006751256,0.9985943802160566,0.0544260517256413,-0.39251216471434985
1729156192.136654,-3.964508369856268,0.0037208334629938453,8.939168809527713,0.00020340299602390513,0.2072049820532773,-4.3081080099691883e-05,0.9782975274340331,0.8788349985101888,-0.16997283822054227,-0.4087631538436568
1729156192.153224,-3.8011002282125887,0.07190376838834318,9.775536105052565,0.003611897909041547,0.18435711095567345,-0.0006774964638053027,0.9828524562883859,0.7997426384418136,-0.3846419037431143,-0.42234495787439924
1729156192.177217,-3.5802327980603654,-0.06196319184785348,10.044879501166305,-0.0030372611472239347,0.17035423883962675,0.0005250881147348932,0.9853780658389787,0.7429220410486237,-0.5747427119071901,-0.3874993440851795
1729156192.199107,-3.1434093089631725,-0.10421556159308708,10.444708604020095,-0.004933304891748537,0.14563879801949,0.0007262329404888741,0.9893252627927781,0.6479560038236392,-0.7730898289751179,-0.25335841946274723
1729156192.224042,-2.6538660577900135,-0.06444469828397725,11.158657994443308,-0.002867151984092627,0.11647881071992551,0.0003362526764512434,0.9931889815271359,0.5467046150965973,-0.9287074445016092,-0.11327725608460346
1729156192.244674,-2.5847162228087734,-0.1329983643805426,10.889357264927703,-0.006063352087507538,0.11625043177559112,0.000709692374154817,0.9932011725779353,0.3837881671094845,-1.0339973355384409,0.12785107462177248
1729156192.275036,-2.186011434124717,0.03679860222128381,9.93098651471834,0.0018413999169076894,0.10811983516047949,-0.00020026618781158106,0.9941361427815965,0.2128196077457474,-1.0299122404495389,0.366179886567245
1729156192.30067,-1.8914825025646742,0.3826459313523015,9.385173324846628,0.020268379651588224,0.09917331153338949,-0.002020464118155469,0.9948616812354105,0.07788602745639076,-1.0091565107533302,0.5257790861315477
1729156192.329443,-1.0831747456794294,0.3172153395730996,9.097429158482196,0.01739461961431521,0.05917372984896306,-0.0010312684661142031,0.9980956033314574,-0.06905608024383814,-1.0035141139189976,0.7024197175479153
1729156192.354427,-0.42149800902875134,0.28154828699581286,8.446421166964317,0.016654402777541436,0.024910745594630364,-0.0004150600124155976,0.9995508558083621,-0.18233705849023535,-1.02567007950612,0.8769401962931231
1729156192.371784,-0.017309362057875807,0.9551847973928002,10.16319267332312,0.04683756505215726,0.0008469034065656267,-3.971048919267248e-05,0.9989021592116427,-0.27925256961749184,-1.0487545302720203,1.079986887737977
1729156192.395127,0.0015853910660557655,1.4410089802423205,11.510008456777076,0.062233828367952264,-6.820416954434957e-05,4.252850330894622e-06,0.9980615942599799,-0.3706057010878842,-1.0519629491950095,1.1345558728938883
1729156192.416196,0.8796232439169772,0.1425141674422673,11.025707870697104,0.006457084071276322,-0.03979069231314947,0.0002571408650428583,0.9991871400038694,-0.48416280845188,-1.0492054098727208,1.0804564914491805
1729156192.443407,0.29649406597909256,1.1655328693618447,11.831671879400684,0.049072691205893665,-0.012451392835295658,0.0006118080562851914,0.9987174072204682,-0.6472259565763105,-0.8078873816762238,0.9173100137135122
1729156192.45895,0.4237809500855024,1.561711159605388,12.092589530228302,0.06416341747030192,-0.01733434886456294,0.0011146965253101865,0.9977882208463026,-0.6752506753711955,-0.3621336913046691,0.8713563145704791
1729156192.477642,0.28180188914309834,1.7520129408804201,12.099741937131123,0.07183217400861559,-0.011492700351421864,0.0008277390150528323,0.9973501749455661,-0.6358744185351384,-0.056369371550153535,0.9157257154717426
1729156192.501552,-0.3657835173930472,1.482164063356377,11.890470593186876,0.06195865389481162,0.015228597526096364,-0.0009454701922506359,0.9979620840047214,-0.6177826352325105,0.2049905015501076,0.9304280342915638
1729156192.519641,-0.6650310393909066,1.3889683244884357,11.423494630082045,0.06043431754810591,0.028806327039005597,-0.0017448079806080179,0.9977549019825096,-0.6405570801064344,0.39288179989699257,0.8383608810169552
1729156192.5475,-0.3927936993181376,1.4992084763825142,11.028147952365634,0.06749546385273271,0.017597905199105784,-0.0011906796732007346,0.9975636613138149,-0.7023247239759982,0.5422259241908582,0.5179156807613442
1729156192.576065,0.20078674305560182,1.542847071913493,10.121281741390083,0.07555984053266271,-0.009776320073917719,0.0007408507890370982,0.9970930674739441,-0.7372568599904263,0.6331094689515638,0.23071967690194456
1729156192.615956,0.015606013118517333,0.8004914963219238,9.457212511630924,0.04220854907760027,-0.0008214118574439332,3.4701539681559525e-05,0.9991084838310239,-0.755236311168849,0.6633752623046514,-0.008431265063234161
1729156192.649647,-0.2109029448632646,0.4297772427638575,8.859812815816444,0.024231157158381648,0.01188223501767306,-0.0002880252248032782,0.9996357239290823,-0.7281375664057819,0.6487566035839274,-0.14255664889017672
1729156192.670127,-0.38104540339256815,0.3555497733926895,8.832012247595335,0.020111395376970872,0.02153501387624389,-0.0004332873555158628,0.999565699299155,-0.7012360680113907,0.6152953847866951,-0.23920810152189945
1729156192.689316,-1.1851108052679626,0.1800504609594418,9.272145583420482,0.009687451941187433,0.06350479778983441,-0.0006164731106803606,0.9979343234368999,-0.7063796720478577,0.5517982672392285,-0.40106734809766875
1729156192.70738,-1.7228561047428088,-0.06052152029933493,9.695439995315962,-0.003108539257770928,0.08781556906127365,0.00027403816112637987,0.996131862615193,-0.7307503375428395,0.49454394394495726,-0.5752327971677581
1729156192.733184,-1.752692421390607,-0.20725891071475722,9.529952511593873,-0.010825414901170697,0.0907891836389996,0.0009869651704570675,0.9958108055379464,-0.7811307020026391,0.4457178878786854,-0.7584847279802875
1729156192.758747,-1.7507223375999892,-0.2993714877862762,8.930271874387964,-0.016673010771936923,0.09657683175079991,0.001618018024951977,0.9951845599176303,-0.8045478796951264,0.4415379678651822,-0.7803180437451647
1729156192.777203,-1.7416394218471027,0.12372245767003112,8.629600273070277,0.007130990563401599,0.09939629700745296,-0.0007123399996081767,0.9950221191946016,-0.8058274844667579,0.4543548580697134,-0.7308415941691723
1729156192.792671,-1.655744496614121,0.5083022355883469,8.541852916527713,0.029573079167071473,0.09537981315027345,-0.0028348560431029697,0.9949975315663914,-0.8151090485589774,0.4799239747738374,-0.6032470102873095
1729156192.809139,-1.6338956420602697,1.0919554270463674,8.15066438785608,0.06620714591683258,0.09769213629553493,-0.00651357342967895,0.99299065136422,-0.8517533615010373,0.4944140646733878,-0.5207305990977236
1729156192.833561,-1.98135309934749,0.9123105145286016,8.969400001121851,0.05035257922665928,0.10781492780557443,-0.005467689730171809,0.992879984427381,-0.9478100199606668,0.5529138558041756,-0.47803179336736445
1729156192.855621,-2.020078676014744,0.978342607545286,10.151847388368422,0.04777991875628246,0.09750067051468575,-0.004686332074015835,0.9940768264598676,-1.0088495355281408,0.637393777612244,-0.37408553862013516
1729156192.87646,-1.9836984006772056,1.1474881731697497,10.676483452552302,0.0532758212462231,0.0910810567763783,-0.004879718129639687,0.9944054084315983,-1.031425472840378,0.7029808828482562,-0.24020185544617625
1729156192.891155,-2.1337739146739017,0.8931971458452092,10.614896590086069,0.04174839373953021,0.09859857569215685,-0.0041401689691928905,0.9942425516404705,-1.0168754911712263,0.8117206260081746,-0.0172654749520203
1729156192.907412,-2.2922933905523877,0.9383835865793912,10.91816052851453,0.04261812268848817,0.10282681993150108,-0.004409731850635099,0.9937760788961914,-0.9864353090351717,0.9033572557147717,0.16289657004383468
1729156192.931841,-2.4867644449759636,1.0085910809027128,10.906667397430985,0.045791228104170384,0.11127545936252876,-0.005132802630814889,0.9927208015900156,-0.9302847842834181,0.8621332796483108,0.36251716025568453
1729156192.953033,-2.7535635217219063,0.8048310669986588,10.730740881573825,0.03711702320918556,0.12484084974519795,-0.00467358050090097,0.9914712534755041,-0.8731815160519543,0.6079519508803992,0.5461430236020992
1729156192.970695,-2.370159190914003,0.6071577063613046,9.96845545667867,0.03019700388393745,0.11619046832193498,-0.0035341861770183843,0.9927615149448679,-0.8086955607492716,0.38648136366280317,0.6516359509338656
1729156192.984793,-2.3012463641577767,0.8522329221566265,9.477325958333374,0.044497893635686556,0.11824506002571443,-0.00530423459708399,0.9919727356822069,-0.6950825367503446,0.24040261942692254,0.709397736533919
1729156193.000353,-2.242660416150916,0.8242619102763977,8.434699660693383,0.04826380123983196,0.12883417274629813,-0.006277848050719399,0.9904710748156712,-0.6039274590320386,0.137430530672761,0.7742788022577552
