Time,Accel_x,Accel_y,Accel_z,Orientation_x,Orientation_y,Orientation_z,Orientation_w,Gyro_x,Gyro_y,Gyro_z
1729576590.4629397,0.14152821128647683,0.07210057898838702,10.255370063350867,0.0035151075677800135,-0.006899494247788721,2.425319156087117e-05,0.9999700197554396,-0.7233404035673472,0.1384207772068783,0.5629909379271762
1729576590.4709735,0.04349723805118298,-0.11475696217728028,10.233181087082786,-0.005606823542087818,-0.002125122410970717,-1.1915400561327578e-05,0.9999820234596868,-0.6442951325026519,0.1750015195999258,0.5404230320122327
1729576590.4789457,0.2820385003014129,0.02595620843581933,9.25380733144889,0.0014022876452272762,-0.015233671793909755,2.136448987745741e-05,0.9998829773411457,-0.5615356947624861,0.22589688921517243,0.504320715205779
1729576590.4869437,0.41151630818866025,0.1783794379521166,8.470097962101754,0.010524976252348297,-0.02426411319970888,0.00025546859217262844,0.9996501450114023,-0.5093258917496145,0.2721846432584156,0.4822336350604447
1729576590.4949448,0.42479896826280555,0.5250552726345512,7.7472840653469905,0.03381507870732418,-0.027306969277724746,0.0009242611480279107,0.999054560883545,-0.4809798403721257,0.3250730093106214,0.48515760930880136
1729576590.502942,0.49334186630924576,0.7570027900455745,7.725877253173038,0.04879052213067716,-0.031689892340024374,0.0015487916233447336,0.9983049819159479,-0.4801484318811896,0.34360963703662184,0.5175616782830816
1729576590.5109408,0.6477133436625006,0.9622512663125008,8.003689247411636,0.059740186159484246,-0.040005571191430965,0.0023961484392023336,0.9974091050837338,-0.4962514991836472,0.339832461521051,0.5582886227407513
1729576590.518965,0.3464900569787504,1.2213910063695317,8.4830591807712,0.0714225817706157,-0.020150035241818378,0.0014431483930253813,0.9972415495834943,-0.5787063400751291,0.3115990624625246,0.6133744738406195
1729576590.5269806,-0.07174871971899979,1.2296314483041408,8.955752929117017,0.06817032372372252,0.003959176483949697,-0.000270529811892977,0.9976658051164191,-0.6647885898957531,0.28273970130647186,0.6345066627796034
1729576590.5350647,-0.6918778817337435,1.771595145837953,10.708211896630367,0.08184381802586094,0.031717380767903675,-0.0026059384323424972,0.9961369415361827,-0.7500674546436279,0.24413958153973864,0.5944004085217018
1729576590.542958,-0.9088111113644649,1.770204257912928,12.36637797782197,0.07098175514867407,0.036210824027291484,-0.002578515795519537,0.9968167925529597,-0.8684938032033538,0.197992246360749,0.5149969479768969
1729576590.5509405,-1.1984248797093038,1.8438293967887724,12.757938808177556,0.07162342682735082,0.04621575853377798,-0.0033222407922342363,0.9963549322950999,-0.9493404837528161,0.1592359036553424,0.4371308772862096
1729576590.5589428,-1.2237526377865198,2.0510496131709197,11.700006409906532,0.08654235242956716,0.051114936715773565,-0.00444616633443924,0.9949260857397526,-0.9076021990525428,0.1083122440370664,0.306550292763777
1729576590.5669408,-0.9128590265195681,2.166762617023646,11.294372069820872,0.09455175187657276,0.0394173067949228,-0.003746712239677033,0.9947322274308292,-0.8182800289516119,0.06030475574615748,0.19286966694896884
1729576590.5749443,-1.0342171932554907,2.093256580223953,11.660076368113225,0.08861144280036046,0.04335512483329564,-0.003860620112606659,0.9951147878349884,-0.6795487145986472,-0.005960462637046637,0.08038952506803268
1729576590.5831664,-1.236079562779466,1.4118164762105436,11.20577059992067,0.06252712570994269,0.05437029212915901,-0.0034113690172061463,0.9965553634623975,-0.5745997328523047,-0.09850516128826103,-0.12459644991276522
1729576590.5909503,-1.4752311263395548,1.4157127800134353,10.66264235140748,0.06579333359773189,0.0679495748542883,-0.004490806831951838,0.9955068684771677,-0.49630550159186604,-0.17489079349062922,-0.33783432793119467
1729576590.5990553,-1.4070746377177952,1.1537306990139204,9.518187854692146,0.06010943726903534,0.07266110396884727,-0.004387211297644432,0.9955340134311124,-0.4042058163206275,-0.2543516876675506,-0.6415870501260714
1729576590.6069462,-1.2416822582166145,1.059508954076321,8.560970369065286,0.06136474306966736,0.07128375582897663,-0.004393831267540544,0.9955569741153446,-0.32766150208478284,-0.3177787564477986,-0.9059968653051694
1729576590.6149485,-0.9284052020979375,0.9785550501801675,8.589978696048547,0.05659987703315046,0.05337632395996035,-0.0030302917852872927,0.9969645125540074,-0.21915847450835738,-0.4252224777342586,-1.2229994572765042
1729576590.6229382,-0.6575995909853249,0.816018708819038,7.745710514748269,0.052409453202708366,0.04204534691596465,-0.0022085700428468285,0.9977377211652745,-0.09190590898904548,-0.5867460445194778,-1.4893995334610086
1729576590.6309724,-0.5216918627454918,0.7172998031722823,7.261415681407554,0.04917898406540232,0.03563666692607802,-0.0017558189862404744,0.9981524796324368,0.020629285546814334,-0.7279319509826606,-1.671375462367737
1729576590.6389463,0.22352547439372053,0.5151346206729006,6.832214505280079,0.03761367461323839,-0.016293853883919827,0.0006133873810508835,0.9991593194098826,0.1754168648680467,-0.9118292791812237,-1.8261098562882112
1729576590.6469436,0.34456561056396673,0.6536063913002247,7.403566414349688,0.04400067387282469,-0.023138989133705934,0.0010193921238286073,0.9987629792499847,0.29383081614850803,-1.0494118400339314,-1.9215046330092682
1729576590.6549432,1.1098322325493175,1.1264654839500567,7.694662803932078,0.07242783486150428,-0.07063155971687025,0.005142140851555016,0.994856245844946,0.34231761365929714,-0.9991460773694023,-1.977038738796054
1729576590.6629748,0.5945521300569343,0.493919964198159,8.736021638658073,0.028218445765434304,-0.03390234125834633,0.0009576038518768037,0.9990262426836688,0.3271379257737193,-0.7540131387323588,-2.01759593331298
1729576590.6709514,0.4666251342353324,0.5063234641145984,9.450858921915547,0.026749945778848438,-0.02462030985426675,0.0006590277657182811,0.9993387045571249,0.30142820064535336,-0.5362688253474355,-2.007023664983249
1729576590.6789455,0.6807644384513556,0.6593330250019621,8.872999493774328,0.0370491299949226,-0.03814618721758663,0.0014152869378250203,0.998584111294719,0.25279854077429537,-0.3779523833214494,-1.8461548116746933
1729576590.6869617,1.1255220602876101,0.22321729546992722,8.188461982641549,0.013593164476292888,-0.068213713954302,0.0009294917488157199,0.9975776917880481,0.1985050312254007,-0.28551665847463004,-1.6815230898556344
1729576590.6949685,1.540338295987019,0.17223760384445636,9.453920058237273,0.009077310083924522,-0.08065176290408338,0.0007345244511749452,0.9967007354546973,0.1659289254960639,-0.25900214774595653,-1.4942005239800966
1729576590.7029655,2.353780788871508,0.7354118005879237,11.422027321807597,0.03197088459853863,-0.10118417790058633,0.0032533337250994065,0.9943485508111543,0.2621709587761344,-0.2762972661027909,-1.2042942288251068
1729576590.7109714,2.775048058283842,0.2540205105285354,11.73786662013534,0.010742885364770288,-0.11578456718453572,0.0012523569945923803,0.9932154630380495,0.32970705015780344,-0.2045161552547194,-0.9281848369812253
1729576590.7189667,1.9607127399996023,-0.4078308821594412,12.990874576573392,-0.015645293633066448,-0.07478423279993009,-0.0011734520923923693,0.9970763091769095,0.31531468705820276,0.13610986421608356,-0.6339608033133629
1729576590.726973,1.4697173473689018,-0.6043076186511335,13.161127767184269,-0.022903115310758133,-0.05550395197239936,-0.0012735121790457514,0.9981949392735056,0.31519307042768296,0.3881627627823129,-0.41187754653620806
1729576590.7349765,1.3312220600326692,-0.5411920150383362,11.596436485750013,-0.023275867723309047,-0.05703963615016432,-0.0013301748015818375,0.9980996666288298,0.37343963886966947,0.519387069033335,-0.16369127587516663
1729576590.7429693,1.122189880306711,-0.5495307449116736,10.966713151215634,-0.024997181013685296,-0.050884594139064446,-0.0012740215108130563,0.9983908432522114,0.4603217674332292,0.6496301502208541,0.0831292006577255
1729576590.7512348,1.1866307641215266,-0.3290001864489573,10.416496630963755,-0.01575998392717412,-0.05664927354664177,-0.0008943394346240995,0.9982693438497591,0.5443777991810175,0.7128768467821944,0.25122891946617626
1729576590.7589748,1.183636185523697,-0.18830214556078062,9.766022536683721,-0.009621111043298049,-0.060255147895032606,-0.0005808038137821083,0.9981364706498657,0.6186500616715641,0.7567845255794672,0.3767787743160445
1729576590.767116,1.0908597752790619,0.0012221318529847618,9.512207574744608,6.413130089520457e-05,-0.0570595777869265,3.6652765193351527e-06,0.998370773038013,0.6495913371991071,0.8078191564226286,0.46360231888544035
1729576590.7749677,0.551804613946734,0.12690770660202524,9.046517600266686,0.007010273690010879,-0.030451991994278563,0.00021358110615956826,0.9995116240592116,0.6438917690122972,0.820135262285658,0.490580732000818
1729576590.782965,0.2506375925867904,0.254991487974887,8.70485437241587,0.01464022470517788,-0.014384244238855298,0.00021063294100780655,0.9997893342959921,0.6196132150885716,0.8079431829762223,0.42631235825372055
1729576590.7909634,-0.10388166075651949,0.3993582436150103,8.262591051183897,0.024145013032166117,0.006276732587259607,-0.00015159897521530615,0.99968875055762,0.6054717727957983,0.8116958769885736,0.3430538775519488
1729576590.7989693,-0.565829605584771,0.10266661120806869,7.296450232516978,0.007029381689101806,0.03868243343331448,-0.0002721239975498168,0.9992267926178101,0.6272109017839386,0.8254411250554593,0.2237113091125746
1729576590.8069663,-0.8731653133996907,-0.3940166092028931,7.0651220828695624,-0.02779758957001882,0.06132553015514992,0.0017085817669643326,0.9977291987877434,0.6755866542781714,0.8294313732809704,0.11805056313198757
1729576590.8149436,-0.7982746982937207,-0.9838797238225172,7.849050512905332,-0.062227539250475916,0.05016772200722555,0.0031318501307104002,0.9967954276290572,0.8191227323079975,0.7756344341032888,-0.01558474459759987
1729576590.8229406,-0.8960347481754511,-1.5997232542153852,9.810276944706088,-0.08064886630857297,0.044789534825570826,0.003627718726239102,0.9957291286238915,1.036782608117661,0.6522585974438051,-0.16259926888489132
1729576590.8309445,-0.9982652483193332,-1.690065458876887,11.142635911696699,-0.0751167629361486,0.04403365148858405,0.0033202940677415776,0.9961965092841272,1.234211873252998,0.5339613290560636,-0.28528887843569073
1729576590.83895,-1.3765958482103497,-1.8565588395351165,11.471590665670362,-0.07999336353297257,0.05873119769935135,0.004721465646162418,0.9950524689530866,1.4314220937046762,0.42892776310645625,-0.48490690235893175
1729576590.846943,-1.6069460904691786,-1.7570178696390386,11.138887270495967,-0.07794077988348942,0.0704995173263422,0.005525471174915391,0.9944468422475892,1.5433628750537527,0.3837866061180971,-0.6770450271614217
1729576590.8549397,-1.693920320297132,-1.4595490628478762,10.755151125725316,-0.06718035331274279,0.07715647720360969,0.00521081125722449,0.9947394259806663,1.497293787514298,0.37585796469087307,-0.8310656976359605
1729576590.862943,-1.2205775937896073,-1.1706950822399755,10.762174823384408,-0.05406107483367673,0.05602541089387908,0.0030380294149479205,0.9969600412751122,1.376000521468978,0.30597020043084777,-0.8468538888575181
1729576590.8709588,-0.9935539573968113,-0.4828687571076572,11.34171570091541,-0.021251759439001424,0.04362626158199935,0.0009282287983348133,0.9988214306934066,1.299393351288628,0.2380704481256487,-0.79289898443261
1729576590.8789587,-1.3131957716548837,0.3983723028643119,10.910606427385181,0.018213084139166294,0.05980649437971351,-0.0010913963330802517,0.9980432233376434,1.2291647156770822,0.21435819920101054,-0.6226024618639668
1729576590.886952,-1.7058543794968362,0.6477136051072591,11.288319664536578,0.028570676594112224,0.07476903610983883,-0.0021430829546387553,0.9967892028275637,1.1423300778566414,0.22737501377979769,-0.5293640396134837
1729576590.8949587,-1.6282879670535706,0.6110494972928711,11.414869977432884,0.026667208686959147,0.0706609656211517,-0.0018897314277866173,0.9971420745477865,0.9680562475247738,0.19517023674963896,-0.5228010333927895
1729576590.902965,-1.3574114240309707,0.5845020494499413,11.0852224039402,0.026285889554496594,0.06078058031303276,-0.0016011883226902883,0.9978036927487767,0.7110949073222459,0.11199386131223898,-0.3690203280257378
1729576590.9109766,-1.3062158754146762,0.7093526383613711,10.655435718975445,0.03316679201420256,0.06078460358140915,-0.002020885136923437,0.9975976703552394,0.4798682020761015,0.06379079629564714,-0.17756612048485343
1729576590.9189665,-1.2359942188523212,0.6853824631437758,9.82487067088722,0.03474597024396108,0.062344109222370374,-0.0021717502854764594,0.9974473485341331,0.25344002626723633,0.048491039252477046,0.04330322934372306
1729576590.927008,-1.2386327959598304,0.5038850821343124,8.953275603215925,0.028037511353372634,0.06854756605995019,-0.001927199237007006,0.9972519315837234,0.10183258850782205,0.029094623551486225,0.19114968145350208
1729576590.934974,-1.123139481042695,0.3128655365852749,8.458809562369009,0.018442177833840334,0.0658990260548238,-0.0012181780499016563,0.9976551109897696,-0.022335698941864976,-0.021706711523615172,0.32370362904995875
1729576590.942975,-1.0203246688502263,0.1491726752226493,8.70321951305617,0.008553859389865543,0.05830757524785266,-0.000499623198232229,0.9982618937608078,-0.14323688811103863,-0.09731065908365136,0.4662381267042134
1729576590.9515553,-0.9945488064370889,0.027014941803511442,8.885778508370812,0.0015176619998480678,0.055701839020481654,-8.466811407106325e-05,0.9984462903246729,-0.23535934443979628,-0.16864012136885698,0.5824085097220324
1729576590.9589589,-0.907257239184519,-0.15689181494718998,8.833465873333033,-0.008867397117032319,0.0511416251103944,0.0004541052602076811,0.9986519399860241,-0.3314990641374059,-0.24421593347255682,0.6750980028516737
1729576590.9671364,-0.49072422632321133,-0.8698564268589389,8.147264138257633,-0.053132083437186575,0.029863229590626063,0.001589653011791974,0.9981395905540185,-0.41089308909053524,-0.27764209901383985,0.7204951372543695
1729576590.974978,-0.7297003976103331,-0.38496552115442584,8.865606280806142,-0.021676860084539878,0.041001246442216026,0.0008897360560980061,0.9989235305551724,-0.4798140071355145,-0.2521489617621723,0.7494361781418353
1729576590.9829812,-0.37868345756034044,0.225834364065157,9.748157999440716,0.01157883882099765,0.019405850211798435,-0.00022475461099799346,0.9997446138662011,-0.48711135304553943,-0.159803178286544,0.7157179952988709
1729576590.9909737,-0.15586286506354802,0.4958279682926098,10.422538231060914,0.023765487896867533,0.007466021875524474,-0.00017748873328307532,0.9996896661465136,-0.4931925208374026,-0.08821948586560983,0.6673915415365982
1729576590.9989715,-0.060238315961956924,0.9846326574404096,11.33186407999397,0.04332274253547746,0.0026454262713338987,-0.00011471522655841577,0.9990576202299166,-0.5334505667982552,-0.0635739430559167,0.6192396165134432
1729576591.00705,0.44724632560837274,1.162036110577527,11.107723755613568,0.05208354975374222,-0.019983751486059798,0.0010424486203272475,0.9984422200720815,-0.5635650552352351,-0.03133332485015751,0.6120586546341138
1729576591.0151117,0.6116763134314298,1.2222700904187818,10.731904033641579,0.05664735455103821,-0.02823555479102923,0.0016026850812901417,0.9979936182504084,-0.6148375730914616,0.02504608142049475,0.7269432947158849
1729576591.0229683,0.4177628632541704,1.6781140293489254,10.738410341327524,0.07741671632273485,-0.019150244482364517,0.0014872878738460846,0.9968137780673234,-0.6545405750959001,0.08271236862475988,0.8507880966935497
1729576591.0309725,0.2698113312337522,1.834543931525371,10.891472889366828,0.08333285024832952,-0.01216908573416524,0.001017700545407062,0.9964469447529477,-0.6821935868517215,0.1488132054955093,1.0115100603569411
1729576591.0389528,-0.5029830022851391,1.6607301272257695,10.92130059519236,0.0753617974167556,0.022683508715931822,-0.0017147914260079106,0.9968967436062852,-0.7090019553803031,0.22848857339538992,1.030467647368886
1729576591.0470786,-0.9273946951699116,1.5875664662280398,10.862343345396665,0.07243223416553632,0.042016386715702334,-0.0030540812018179098,0.9964832498788718,-0.7225328361286799,0.28906449597917927,0.9345683040876211
1729576591.0552237,-0.8066308905882751,1.5417529083012769,10.919385179601282,0.07002739652831855,0.036410121312021114,-0.0025576934589408387,0.9968770862075623,-0.7110696217504526,0.37947268733513084,0.6722717785556249
1729576591.06296,-1.3624111234642933,0.9942441729592818,10.52887890561233,0.046957696146307966,0.06394470038511144,-0.003012203812238736,0.9968435066215172,-0.6973806521401237,0.5154500939494118,0.41400531866992574
1729576591.071084,-1.068837848394982,0.5955888231115065,10.411412182234583,0.0285289222559336,0.05102498064849012,-0.001458183023724147,0.998288748632882,-0.68576174988223,0.6149155204993857,0.26372803341458856
1729576591.0789409,-1.218544729300661,0.6429815519235446,10.167113107680594,0.031515179405992876,0.05945872690294638,-0.0018781131524778553,0.9977313896801461,-0.6745335079128736,0.6933251391336994,0.23273258080460868
1729576591.0869422,-1.2329515055491467,0.6096467863787361,9.5838312801357,0.0316905490493229,0.06376998961689923,-0.0020260536418173934,0.9974592686580508,-0.6763103639605003,0.7348369395152813,0.190722355858209
1729576591.0949943,-1.325153209237691,0.8029692949717729,8.955655950698608,0.04457142250806823,0.0730236086342683,-0.003266760369715606,0.9963283942327065,-0.7084518520758045,0.740162276916977,0.016950389440120145
1729576591.1032822,-1.267946753423474,0.9788178416315013,8.702052138534398,0.055825475249067315,0.07172257718177139,-0.004020620419191064,0.9958530126715817,-0.7485955579566268,0.7420804091736083,-0.1537204399988101
1729576591.1109436,-1.2865347366243969,1.37043406801601,8.896091411294467,0.07614927069136344,0.07071860487596675,-0.005414567571762046,0.9945706862539139,-0.8063112963406206,0.7376973177285806,-0.33998387977018846
1729576591.1190443,-1.6017511373847944,1.4725256117080434,9.253371661962227,0.0785296810764448,0.08429170728413062,-0.006663919336466044,0.9933194800527347,-0.883935435578682,0.7738052584546089,-0.45685022437055983
1729576591.1269498,-1.8157806751066576,1.565383999837326,9.776352406357022,0.07896324009984255,0.09028071883136746,-0.007180883056535754,0.9927550722301823,-0.9500916619487724,0.8333564383603467,-0.503131387688909
1729576591.1349652,-2.0765977495464165,1.5528642854004426,10.1744167514314,0.07526550264259636,0.09909629772561122,-0.007517175415196671,0.9921988308614416,-1.0068130002293079,0.9252782344167776,-0.47854020812008846
1729576591.143011,-2.2503262461633966,1.5415217340820624,10.467603736161575,0.07262527680051127,0.10431086789202498,-0.007637776318531772,0.9918601092806232,-1.037014592644471,0.9868166629725665,-0.4429266873671567
1729576591.151216,-2.245148328264444,1.5950500851269718,10.648064910153975,0.07386912873048543,0.10232473050171542,-0.007619785395113505,0.9919752719795402,-1.0215060332380683,0.9598862108867352,-0.38963182030574517
1729576591.1589444,-2.0090857559918693,1.513681937062511,10.944765285203712,0.06837214597480146,0.08960187707125117,-0.006165677798094567,0.9936089460634898,-0.9666520610177892,0.7840941665869745,-0.3261538355207079
1729576591.1672325,-1.9318522372865279,1.3492211080382877,10.74210744626871,0.062179687055126616,0.08800279183706461,-0.005504116827145838,0.9941624112007866,-0.9081982739978999,0.6083800798658829,-0.24038975776593807
1729576591.1749446,-2.014320175379729,1.1811127624792226,10.750517893054194,0.05444501387656189,0.09180198695399396,-0.005026939454697021,0.9942750452138475,-0.828854235393915,0.47145056328503765,-0.06760964359639715
1729576591.1829436,-2.2919683564485402,0.9507214453293306,10.594913229729,0.04447017836343566,0.10580365633242977,-0.004736458698223736,0.9933808713187572,-0.7625174495271947,0.4012121750574673,0.07735036086714447
1729576591.1909456,-2.4283903241718585,0.7760947898050202,9.5058019612749,0.04039145587907244,0.12423389845906611,-0.0050614272389662976,0.991417596535353,-0.6665242898941743,0.3139459956059498,0.17411723495889617
1729576591.1989825,-2.0809631471398338,0.7888740980041058,8.621294739997364,0.04527862391157114,0.11755201358640632,-0.005365412372540777,0.9920194467189282,-0.5318784929897344,0.16495464398315815,0.23898840039733968
1729576591.206968,-1.752317917580775,0.6241591633923071,8.170796162846074,0.03789134729174793,0.10506165017625485,-0.004006023199594091,0.9937355016506066,-0.4293808217125068,0.024902715695501385,0.30089836297935546
1729576591.214968,-1.6532930479117462,0.3100914733771812,8.424827180129519,0.01830441441515634,0.09665756538305778,-0.0017778868324761078,0.995147779269767,-0.36107117796277777,-0.1361783424017204,0.38912714790400876
1729576591.2229674,-1.8184542418329852,0.35508552123334,8.316038389376539,0.021206538251783136,0.10731327631381034,-0.002289488203085116,0.9939964294231339,-0.3094431401763895,-0.26773356229994,0.459517711378744
1729576591.230966,-1.4858763988595567,0.331803715083754,7.986205831477487,0.020668945553141273,0.09174942996987692,-0.0019048103338782018,0.9955657730594779,-0.22908627037496093,-0.48118475366087377,0.47450788553001516
1729576591.2389657,-1.305962146688781,0.2649227747045493,7.326464796493914,0.017997982675359542,0.08801510090112075,-0.0015905275275608522,0.9959552624767677,-0.12978934111865997,-0.7663351011569237,0.4592376565174421
1729576591.2469747,-1.2004077970464717,0.22216058865085458,7.09701719088463,0.015588888301571052,0.08363003337581705,-0.0013084435706715457,0.9963740723515959,-0.051055130799087994,-1.0021301989967826,0.4624205308922972
1729576591.2549698,-1.1073870866751487,0.23361340275105963,7.613683941239762,0.015294712961640488,0.07211241903721226,-0.0011059484551831312,0.9972786208748471,-0.0016861543000346452,-1.2032038663053823,0.49285148963516623
1729576591.262966,-0.8813469224152454,0.14495644497094826,7.824324622556357,0.009246855763158892,0.056043223559888805,-0.000519061687898612,0.9983853881775694,0.009204868895067973,-1.3344903182270929,0.5064274742048054
1729576591.2709692,-0.26209408850774096,0.324478671670069,7.670108596776001,0.02113477657495979,0.017058886448972493,-0.000360668831609247,0.9996310246937324,0.008077061705812974,-1.395383206798714,0.4775380295993921
1729576591.2789402,-0.021026378641753957,0.7180596859121977,8.287459773544116,0.04320065338426783,0.0012626479873012403,-5.4598233728629083e-05,0.9990656166069701,0.03762437175606422,-1.1760792130030056,0.3993306840470736
1729576591.2869344,-0.13352301102294298,1.0573983860102092,9.191538029653813,0.05723561078391052,0.007203383151329989,-0.0004129777968399682,0.9983346260541638,0.06046103852375934,-0.889971324414863,0.3345272941342772
1729576591.2949376,-0.18952882248290642,1.0086527510885472,9.389938204755179,0.05347574892387521,0.010018524804494305,-0.0005365428734590507,0.9985187457226415,0.05968957649466734,-0.548881946800089,0.2833002484042004
1729576591.3029644,0.07279101583642802,1.005023327899222,9.470192242921467,0.05283956561215792,-0.003816281376903057,0.00020193422609253764,0.9985957017356619,0.04262478688019291,-0.30889604512987584,0.24490159985983784
1729576591.3115973,-0.11099081774423694,0.6418000636340645,9.584424631641552,0.033424691203021724,0.005773710563703469,-0.00019309561092310687,0.9994245429237738,0.01833814108326121,-0.16533019418921002,0.20398342815181492
1729576591.318989,0.6756080240018953,0.5129304068327823,10.535945637139228,0.024307388982816997,-0.031965531246861065,0.0007776261075320376,0.9991930498910513,0.06421414233271068,-0.17326818720791953,0.1394176593495702
1729576591.3269684,1.3958460412077778,0.8344826093340444,11.964940115437832,0.034747838575301504,-0.057861257849783694,0.0020151528381013918,0.9977176964018554,0.12494356787641883,-0.18654478424838583,0.08577904591705228
1729576591.334938,0.9155585988457604,0.34578471818831724,12.498880158129886,0.013819055231339982,-0.03653476553404773,0.0005052616072690347,0.9992367033544122,0.19458504799668216,-0.0970277183978604,0.04721052693561105
1729576591.3429437,-0.03317410460855936,-0.477989104389744,13.772854704985352,-0.01734473462871386,0.0012034209917543605,2.0876173300411576e-05,0.9998488443373635,0.24105252674492253,0.04096915328193713,-0.007857339062906057
1729576591.3509655,-0.5128705845913075,-1.050064951891659,13.700465952874024,-0.038231214870514625,0.018639150226704395,0.0007132429748009687,0.9990948141056533,0.28851475682112016,0.2484944642981909,-0.1511517845806825
1729576591.3589704,-0.543551214280175,-0.9151883888596047,11.805117717476369,-0.03866475220179296,0.022917702162645128,0.0008870040331373968,0.9989890034873274,0.39829889660608686,0.35555635838799987,-0.23159448109234199
1729576591.36698,-0.5131178782263083,-1.0332206089993565,10.265922317497541,-0.05011682599667169,0.024811434560343182,0.0012454202444518185,0.9984343470631867,0.5063126965618079,0.43341557680867027,-0.2555957654960018
1729576591.374971,-0.4134550201486756,-1.0638173531925825,9.78964194762743,-0.05408265446863803,0.02094879491164027,0.0011348775189435486,0.9983160454136721,0.6247579242794565,0.5163147630853451,-0.2665910156465015
1729576591.3829672,-0.3218144232220178,-0.9603105352065652,9.454074331174114,-0.05058543778392119,0.01690379799391365,0.000856305136960547,0.9985763074693402,0.7098728329382928,0.5643515146055018,-0.2714854054909532
1729576591.3909657,-0.4765621304957107,-0.9369925113094859,9.106208619700562,-0.05122709930062703,0.025968876147324026,0.0013325109064691086,0.9983484492818991,0.7843547315140063,0.5731661326288805,-0.2595228872464531
1729576591.398965,-0.9352447685318013,-1.2996096181138166,8.524951414496117,-0.0754546909076886,0.05383512588569561,0.004079710371554418,0.9956865595176932,0.8618220053920107,0.5865430146106864,-0.2225470719974108
1729576591.4069657,-1.3088560395858777,-1.5703311590518838,8.061993672183998,-0.09572647675383256,0.07856578134588317,0.007579388681684012,0.9922733557427715,0.9325667032221492,0.6060627754592447,-0.18716519094266246
1729576591.4149904,-1.6752383808316047,-1.8941332755092553,8.314774114687351,-0.11120965621039079,0.09622893307011893,0.010819870335244168,0.9890679123354886,1.0350358205863788,0.6126663512308353,-0.1650846821868894
1729576591.422977,-1.9410364574540409,-2.2311089643289908,8.77146367169327,-0.12349607108766168,0.10461790607567409,0.013093678177902876,0.9867281133858639,1.1237614549384864,0.6030064147270047,-0.15481620736365978
1729576591.4309673,-2.348315175253674,-2.6652925184899727,9.535809905896821,-0.1348942350807434,0.11509568806726722,0.015777775615056527,0.9840262139429744,1.2029639292989351,0.5737974994442945,-0.1793048068949883
1729576591.438968,-2.6032168932381423,-2.605697889023671,9.889791033870123,-0.1274153664922105,0.12327029441728182,0.01596143424623549,0.9840299749056101,1.2232412499816343,0.5707456123643775,-0.2838185695822741
1729576591.4469736,-2.595267572466323,-2.4744124651036556,9.945598922079885,-0.12064695878230806,0.1227715023996378,0.015038189471087253,0.9849595536835751,1.2077377883962217,0.5497584273506358,-0.3776022016813738
1729576591.4549644,-2.330727099876278,-2.1962042124606307,9.455711172095587,-0.1130381053871242,0.11678233159004496,0.013379970916118358,0.9866130194443847,1.127771161242277,0.4341491214685792,-0.4270613399574412
1729576591.4630053,-2.1198092201308447,-1.8329547247420035,9.515880947642119,-0.0944285286441911,0.10698238760391934,0.010207180337025593,0.989714016870644,1.052972711077802,0.3294512628379966,-0.44311474095629666
1729576591.4709704,-2.0758584495589756,-1.2788591190248895,10.514212460186833,-0.060186971922931855,0.09644024094491321,0.0058424205595826945,0.993500213618115,1.0012825999957247,0.18149453536724072,-0.44593574057221735
1729576591.4789674,-2.3676773878506197,-0.6880673964637617,11.43020366751835,-0.029895384675664025,0.10172483245946673,0.0030583564935825723,0.9943585725942858,1.0021952879561304,0.07228737593460971,-0.4016538137038703
1729576591.486959,-2.301433223481856,-0.46551287440169453,11.239990078928978,-0.020585023788667455,0.10070443482789565,0.0020840460742980508,0.9947012266774251,0.9976346199948296,0.008040150459417202,-0.3525230843253745
1729576591.4949648,-2.1699888012766135,-0.24483122073476668,10.588363653070278,-0.011497644890129364,0.10086606886689445,0.0011657457765927373,0.9948328911682122,0.9225309087695037,-0.0777597816479838,-0.3183620560221946
1729576591.502959,-1.873489217045265,-0.11601353102484438,9.894281867379277,-0.005835667284664803,0.09342326955431533,0.0005475914662284471,0.9956092294854998,0.834048295765181,-0.17010598681277944,-0.29743974897882464
1729576591.5111227,-1.473886392775987,0.04196167874837462,9.411273989812331,0.002222319907461894,0.07759435641789852,-0.00017296139033289178,0.996982521025659,0.7188079789891308,-0.2829818682090311,-0.2099649139354851
1729576591.5189722,-1.3021200253628575,0.09460885539355603,9.714273594326851,0.004858167932118932,0.06657066468304008,-0.0003241343420800049,0.9977698330501529,0.6036892622856013,-0.3724175901813457,0.0025794502002425
1729576591.5269632,-1.1669779026688865,0.020134027835742987,9.927437398783608,0.0010122530870346285,0.05847336212690166,-5.929132113507989e-05,0.9982884541803552,0.5043940378996793,-0.4286331637335067,0.2050275194989966
1729576591.5349681,-1.19171634243141,-0.12414965776144485,9.95717341339126,-0.006222321286833398,0.059517860172127936,0.00037100416988315656,0.9982077786684695,0.33626593759530804,-0.47428182958574017,0.4299390460135228
1729576591.542967,-1.2381628682029864,-0.25046361667835126,9.881641157409755,-0.012644550911573021,0.062259743321085796,0.0007888402926198453,0.9979795676389521,0.17792091911531105,-0.5165701812482513,0.6027723773923592
1729576591.5510597,-1.0438488696034323,-0.17565670760466703,9.928259147570852,-0.008832646852587592,0.052343033804963475,0.00046298033768544405,0.9985899943474684,0.027999890098710775,-0.5900461691909675,0.7882048680203713
1729576591.558972,-0.6777846574554188,-0.34265940908428455,9.402451097673373,-0.018200500464645036,0.035943242129168926,0.0006547167111648467,0.9991878684582337,-0.09132534155212958,-0.6915999202539715,0.9816225442593505
1729576591.5669668,-0.39254500467832937,-0.4136517697181489,8.767340346104023,-0.02356470806652236,0.022338942902140665,0.0005266884644171268,0.9994725602851816,-0.18165084324696318,-0.7465725100313055,1.1291742145509285
1729576591.5749698,0.2349336234137055,-0.8963014512351861,7.77958319447882,-0.05731499327132275,-0.0149704295160134,-0.000859539825569743,0.9982435268899581,-0.26607013862766754,-0.6799445895155906,1.2589971526876922
1729576591.582957,0.11893351877478578,-0.4714614847547836,9.060631122741981,-0.02599008307914901,-0.006551699392962203,-0.00017034041205632016,0.9996407163580059,-0.3324722481301854,-0.593141930445338,1.3517900677209216
1729576591.590972,0.38931009173362147,-0.03028861570638577,9.580981167541673,-0.0015803187421212551,-0.020304124847459165,-3.209364524378645e-05,0.9997926005311552,-0.34932625051274635,-0.5210529021144711,1.3431866174600926
1729576591.598971,0.5666195059679072,-0.1469812187402377,10.204916250573833,-0.007198051049580429,-0.027726465041994122,-0.00019965844833628028,0.9995896114575554,-0.37348642397053,-0.4675829236408622,1.268211377223822
1729576591.6069436,0.908355177701838,0.22640936690038865,11.282693748147032,0.010023551971114809,-0.040146858162091285,0.0004027591101804924,0.9991434311302329,-0.40884134105683967,-0.4137907434221332,1.2057729405621163
1729576591.615018,1.0624000853808684,0.8816394372789049,11.021478977159704,0.039853240709292276,-0.04783985906859381,0.0019102835278296576,0.9980578229271627,-0.43771671241494203,-0.2742415398024638,1.2193926859405364
1729576591.622964,1.2496374157304742,1.2838754458146087,10.519506235172775,0.060577231222362804,-0.05854593472514807,0.003559226058092646,0.9964387108570494,-0.4541905551068794,-0.14666594130007293,1.3310072181028623
1729576591.6309748,0.4306353681394564,1.8290412416098587,11.19898758998062,0.08084283770664191,-0.018902788948476044,0.00153345099371278,0.9965464207399256,-0.46960883152104826,0.006503628864527267,1.5231288154700953
1729576591.6389456,-0.17951826275890428,2.3232559949659155,11.07061465115634,0.10324036459424515,0.00789187512200862,-0.0008191632387372313,0.9946247907613676,-0.5265370842532971,0.1499138684001932,1.5417701299385538
1729576591.6469412,-0.6990787677139363,2.468950142389705,10.60525137858443,0.1140550158005271,0.03184181444631261,-0.0036574772097309025,0.9929572876433147,-0.5900666501335265,0.2602243456249286,1.433336011348798
1729576591.654953,-0.590393259163518,2.789083032211167,10.089007450685813,0.1343919153523762,0.0279121370809009,-0.003787037018419977,0.990527831028547,-0.624353179108506,0.38217603001129585,1.0715695673559087
1729576591.6629417,-0.6894241879199858,2.886591800527872,9.4368902565443,0.14778504739877762,0.03448348981319217,-0.005155928626748398,0.9884047172568737,-0.6215121431130819,0.4668406723025912,0.7306338930747237
1729576591.6709719,-0.37055888286917893,2.022132321527661,9.554387792842595,0.10407490789455658,0.01885858558327654,-0.001973781050296799,0.9943886923557123,-0.6181047612699793,0.4823071825760197,0.4409344762136064
1729576591.6789474,-0.9168932313328355,1.8247584969205026,9.976833958664542,0.09023127535502577,0.04487928968461283,-0.004070270674893519,0.9949007986738393,-0.6228713731475102,0.4622144744991966,0.21645770878295426
1729576591.686941,-1.2624109326961859,1.6847863872148015,10.268369464554194,0.08106965274233749,0.06012881754889455,-0.004899703880000013,0.9948810127881107,-0.629988240888649,0.4378138378707039,-0.017839826057552383
1729576591.6949692,-1.573151065232946,1.572551541801537,10.047768653830174,0.07730864380799997,0.07642788616354845,-0.005943868101859255,0.9940557440310513,-0.6649080459585986,0.43934967822916543,-0.3721147578157963
1729576591.7029765,-1.5761992975870334,1.4151886521317034,9.46218579312818,0.0739057982013973,0.08132467362233302,-0.006047098738254809,0.9939253810268078,-0.7071444320736702,0.46581258613196425,-0.6336340739388763
1729576591.7111459,-1.469810321960423,1.617651924189178,9.274120629929643,0.08596830398848473,0.07707325907986995,-0.006670618416994771,0.9932898198884783,-0.7482367960168081,0.5451181500314862,-0.7790520319532493
1729576591.7189887,-1.5709374309692226,1.9069634238006161,9.402377639188254,0.0995423974258587,0.0806579273772456,-0.008095870294709907,0.9917258022004322,-0.7848115361036279,0.6327163541486305,-0.8318219117834487
1729576591.7269526,-1.613178343591299,1.9009851990557602,9.478374164079359,0.09845430779205033,0.08217639407969238,-0.008158258091416886,0.9917092478938376,-0.8348519242122137,0.6980459784627779,-0.8545443483908657
1729576591.734981,-1.5654997405297797,1.9378602722654874,9.752139497226912,0.09761030885367081,0.07763004799847278,-0.00763734663294379,0.9921630280299978,-0.9461829588166132,0.7900293206725584,-0.8643465998021576
1729576591.7429743,-1.6388855694155238,1.8809766614061671,9.943213755709193,0.09303225939537035,0.07984282614245479,-0.007484629232967292,0.9924283864091269,-1.0406514335742851,0.876720390546617,-0.8634169096655402
1729576591.7511077,-1.5565032190907206,1.798004781023388,9.981243857673563,0.0887271825952917,0.07576688083685859,-0.006768969330288132,0.993147042431865,-1.1020151091049704,0.9449112548066092,-0.8130533583925119
1729576591.7589655,-1.6392337405364636,1.5583614611433296,10.171895455229137,0.07569075601258694,0.07867386705716892,-0.005990800826516177,0.9940047496878327,-1.1213800219034384,0.9807174926250601,-0.7355836308064094
1729576591.7669687,-2.1009141591168,1.3077940751723258,10.396419690129669,0.06220858037002986,0.09858381187023252,-0.0061749758962102155,0.9931632263823311,-1.1087346360791834,0.951544118002149,-0.5724627174141514
1729576591.7749648,-2.4183844183216423,1.1574536435897236,10.589792171743817,0.054054023662865415,0.11122040020109838,-0.006058523564421913,0.9923061419729202,-1.0790115213886047,0.7646154487665138,-0.372850244689371
1729576591.782968,-2.4707211380535323,0.991353192013209,10.585866157538478,0.04635489211894753,0.11379254779912025,-0.005315192638888661,0.992408297410515,-1.0458528103616243,0.5724285156702706,-0.20455409404783115
1729576591.7910035,-2.2509714157422755,0.8361474425516755,10.209296829532853,0.0405992431449269,0.10785358655723241,-0.004408186832595469,0.9933276766564242,-0.997010659566018,0.39837112733076446,0.00880577256306908
1729576591.799143,-2.127022447834037,0.6759863463903801,9.752075352358384,0.03438986738460394,0.10685531850862474,-0.0036981391580423913,0.9936727840161758,-0.9481236262614008,0.2756320216841934,0.20195227193330006
1729576591.806973,-1.8285557916984694,0.7544269897189938,8.752059942860342,0.04274508769627765,0.10233845263623793,-0.004401663693920973,0.9938210724001497,-0.8672829088417245,0.11940468637261661,0.4085121546468513
1729576591.8151617,-1.726329671308144,0.7382844518880369,8.423074325091205,0.04346902234720083,0.10043470904323096,-0.004392222599830733,0.9939839142039542,-0.75407358904769,-0.07607163950375498,0.5201030724925833
1729576591.8229697,-1.6199830078630113,0.681911996816416,7.803585201744176,0.04333215033593658,0.10169266020446832,-0.00443377706889371,0.993861795839193,-0.6627350437908576,-0.23081816043823672,0.5653474300654587
1729576591.830971,-1.5327118335264005,0.4771425252382871,7.979924487745724,0.029717155464023984,0.09453117133733985,-0.0028231033945411146,0.9950742577335328,-0.5640858403061688,-0.3798571611119139,0.5375800266805819
1729576591.8389723,-1.4518581291685748,0.218769028326566,8.31198011623142,0.013105333440428744,0.0863186041694391,-0.0011355711354189466,0.9961807362561531,-0.4819090548964059,-0.49865317575700047,0.4941011107775479
1729576591.8469758,-1.0320052290636448,0.06877275366586146,7.879383675207601,0.004354348476884086,0.0650679491918214,-0.0002839329349677194,0.997871294816822,-0.4083386501472124,-0.6584743173281549,0.44204666748654353
1729576591.8549411,-0.9962898989127962,0.0067871482932668715,7.658372457321827,0.0004421553083526758,0.06463741313420972,-2.8639668973442147e-05,0.9979087175196788,-0.346743114777753,-0.8756886697875266,0.39761760960661796
1729576591.8629658,-1.068234565568381,0.03232386856580387,7.84491280788919,0.0020552617028883374,0.06761601249748354,-0.00013928766836368561,0.9977092920045489,-0.30808303331022924,-1.0677423401751442,0.3296682389168455
1729576591.8709714,-0.989775921225794,0.12617571518245108,7.8950666153975755,0.007973877475067823,0.06230760256763622,-0.000497816368111909,0.9980250157782368,-0.2844612943682529,-1.2608758236552666,0.13650157449957473
1729576591.878946,-0.678380871338992,0.12670192447079875,7.476964349121358,0.008462892175782508,0.04521735256232413,-0.00038307515950038954,0.9989412513940436,-0.2613487597123645,-1.3916550658945113,-0.05006297435348496
1729576591.8869643,-0.0660942063971452,0.03196784413560425,7.373585811621251,0.002167689218433635,0.00448163487810546,-9.714911994268093e-06,0.9999876079121641,-0.20874344332578657,-1.4628858801932034,-0.28715458173515807
1729576591.8949625,0.9333470308492129,0.14750991546573755,8.2050747486915,0.008972869644538974,-0.056591163042748874,0.0005086208007012026,0.9983569848409397,-0.1503617796217318,-1.2519130921410477,-0.4604849206508903
1729576591.9031808,0.7283205952185121,0.3248136531368644,9.205792778902401,0.017619306860605692,-0.039434695878759266,0.0006954611824753035,0.9990665549003456,-0.11533278139929895,-0.9461139034342391,-0.5300022290219051
1729576591.9109645,0.7666739257346229,-1.2119447036256938,10.186183400495736,-0.059133872564974856,-0.037226113053364554,-0.002206723475826767,0.9975532727598605,-0.13901283891935257,-0.7021864014825454,-0.5512794910943364
1729576591.9190667,1.3410705663782738,-1.4152603793043226,11.582700253920487,-0.060651505765490714,-0.057075893835175875,-0.003473828595648098,0.9965197788835817,-0.12682808962073877,-0.6584212051238788,-0.5836275911650486
1729576591.9269702,2.348423570295714,-1.293759475873609,12.12181399878784,-0.052888401110878364,-0.09487723109197241,-0.00504783750567382,0.9940702426814574,0.08438829939874269,-0.6794136841309644,-0.5766436673968299
1729576591.934972,1.0645285232809443,-2.4105377387468216,13.804470528178951,-0.08626637073633196,-0.03775926117956923,-0.0032719113998960626,0.995550925905323,0.2902964842423694,-0.2871779230848237,-0.5694734827056646
1729576591.942978,0.4653769137732541,-2.9410227396836404,15.176307156995263,-0.09555155717065086,-0.014978335485828068,-0.0014379461739125212,0.9953107462994353,0.39894224299737435,0.11886524818913541,-0.6073146879757064
1729576591.9509478,0.5468978938694211,-2.8467927942008093,13.349027896492078,-0.1048404649950372,-0.019911624376134213,-0.0020995376056148697,0.9942874815948206,0.48371144107763075,0.38207289378076426,-0.6508782241493711
1729576591.9589689,0.9848682517025121,-2.295612763922829,11.616520959086653,-0.09730933270122293,-0.04128200146994078,-0.004039789472781958,0.9943894459540961,0.5894869778543868,0.5225441886157983,-0.6089059360196449
1729576591.9669824,0.8530860328086165,-1.6591651937540883,10.031617658459805,-0.08178857837139149,-0.041699307178568235,-0.003425011113778252,0.9957710909278722,0.7334077215367643,0.663869433752731,-0.4287713807696297
1729576591.9749646,0.4065067466382949,-1.5717834558520623,9.468536347029008,-0.08213846158252819,-0.02109063050682163,-0.00173861753138363,0.9963962242214489,0.8286996590368934,0.7695233938465302,-0.24917471729399918
1729576591.983072,0.059071679818914424,-1.3002849612065497,9.231004609731077,-0.06991251091990339,-0.0031605557565397985,-0.00022150549919408173,0.9975480954016693,0.885874821536971,0.7873669333263724,-0.1371598185940006
1729576591.9909666,-0.2832252330754482,-1.2058600318997112,9.304921397430443,-0.06438555391384006,0.015056431033254172,0.0009715433269315609,0.9978110344325286,0.8980440358409918,0.7061240037384788,-0.06143707814476079
1729576591.9991944,-0.6839702362808158,-1.246170241551936,9.206816471270766,-0.06716978236469787,0.03665150090129609,0.0024691199868307487,0.9970650887806934,0.8836353712888407,0.6407763335887234,0.0027269288291124696
1729576592.0069776,-1.053704127852474,-1.5239023231538178,8.736869090526131,-0.08607833876724465,0.0588735561566233,0.0050955889098144485,0.9945342924978539,0.8430634179478976,0.6373256966616808,0.09188245032741818
1729576592.014958,-1.5238231749536717,-1.9392991246051812,8.66295678634693,-0.10947963167118377,0.0843815923138024,0.009328015902437009,0.9903569786935683,0.8340450881559649,0.7327383385802605,0.19688426066330744
1729576592.0229502,-1.998388416690953,-2.0312381564037336,8.956910098419486,-0.11060822215621745,0.10625507398449115,0.011894271214376086,0.9880962537912336,0.8511956635382929,0.8376632106151558,0.26754776797115754
1729576592.03097,-2.275944956752853,-2.516400193646928,8.840471222625911,-0.1371522599459453,0.11990528165285305,0.016727580366578714,0.9831236794414778,0.9159743366348297,0.9014695139590171,0.2682282463325885
1729576592.038969,-2.3222899574501494,-2.5570639223405003,9.122555541192735,-0.13519510972329724,0.11878341104880455,0.01632773009506236,0.9835375889087611,0.982937084549246,0.9044210208639853,0.24735203027634553
1729576592.0469458,-2.5002134019603237,-2.617135764292972,10.213334351326969,-0.12421387879673497,0.11524345647920563,0.014526438626340838,0.9854333263259523,1.0575956282763204,0.8325475443740347,0.17522969203791533
1729576592.0549707,-2.392207579750413,-2.2219831504703142,10.190481987749306,-0.10642800379850258,0.11184459743828228,0.012048746281265668,0.9879365838678028,1.0717410700872987,0.6842780132989424,0.028939294221045533
1729576592.0629625,-2.332192489744779,-1.9449084144521105,9.317012753440599,-0.10194351410092022,0.11922705729140866,0.012307744190559328,0.9875428842208962,1.0474502004413093,0.5667950605359311,-0.0877818686484945
1729576592.0710084,-2.221244923778508,-1.7183296910052503,7.84865807808975,-0.10653983698089925,0.13367437691471026,0.014455943440283035,0.9851758471419194,0.9426293856237649,0.5226980726887702,-0.21528272466759277
1729576592.078972,-2.386195684735855,-1.5160630709508063,7.404826496023772,-0.09957684753027242,0.1515286277903851,0.015344931881323043,0.9833046625850268,0.8341880601568008,0.4924086694273154,-0.3322237941179448
1729576592.086968,-2.1317819762712005,-0.27349846146696827,9.67255058389356,-0.014047230195220282,0.10819844279625937,0.0015290183694080626,0.9940288901249968,0.8053069201008951,0.3286490264504277,-0.45389693322506175
1729576592.0949695,-2.0713105151084235,0.2517737514889597,11.177555396722855,0.011211203287591924,0.09145912124241476,-0.0010297481865963526,0.995745187124237,0.9339899271488286,0.06522549681702683,-0.4936969918952934
1729576592.102967,-2.45185814744396,-0.20088339314959291,11.596450708736837,-0.008611575271281978,0.10397419561212952,0.000900295147907484,0.9945423052272861,1.044403556171627,-0.052813755185582734,-0.5201311674662047
1729576592.11097,-2.39575556961872,-0.5115031669932714,10.65619372968546,-0.023827441996589493,0.11019372585032883,0.0026424911667687874,0.9936209604429423,1.0638258268244827,-0.028708422681115415,-0.5862231000612712
1729576592.118936,-2.296014057103263,-0.5259713521002597,9.949105703143307,-0.026229323442026622,0.1129685094598129,0.0029832308749306266,0.9932478234538189,1.0116256799968912,-0.0380838666203088,-0.625026879495387
1729576592.1269398,-1.9117548246428173,-0.2530941479300777,9.73793683497192,-0.012928543552606992,0.09673583520783233,0.0012566535682759987,0.9952253271345444,0.8291856200813152,-0.17056477129951023,-0.5942465093501785
1729576592.1349692,-1.5337164629009246,0.04111616505054715,9.474526599274169,0.0021625464972235002,0.08015586037506046,-0.0001739007387097833,0.9967799813392694,0.6239413203030125,-0.33050873572335504,-0.4467941986400578
1729576592.1429663,-1.154382800103836,-0.005497241887640462,8.709071496673875,-0.00031489179071080215,0.06584295627290891,2.0778496820940185e-05,0.9978299481979171,0.4807873075473154,-0.427326494500586,-0.30128034397807313
1729576592.151066,-0.9519217198572235,-0.024846160073990528,8.449714273736745,-0.0014678265024585734,0.05606242067781942,8.241962023013575e-05,0.9984261833906942,0.36424521546863087,-0.46200419638651286,-0.1245771182738557
1729576592.158944,-0.9379447262502716,0.01885054736380881,8.647723525179547,0.001088258054960154,0.05399313621570907,-5.884433623445913e-05,0.9985407119759022,0.2713326969024704,-0.4785539169034486,0.019756922680257596
1729576592.1672626,-0.8850263792071943,-0.03274298212858972,9.275057508662416,-0.0017630244864094504,0.04754770452680469,8.392281759241422e-05,0.9988674088665886,0.1606711678341721,-0.5204105038232625,0.1778732775783469
1729576592.1749387,-0.8013211949559572,-0.1503691999216851,9.159449457590028,-0.008199466744451024,0.04361062508906973,0.0003579364762861929,0.9990148917838644,0.04191437283336322,-0.6315138483904812,0.3374479798594292
1729576592.1831446,-0.40034754119232435,-0.872407202326058,8.223383625970033,-0.05280596351485641,0.024151177937749842,0.0012774827593885314,0.9983118845627784,-0.06509766932993277,-0.7279741594331546,0.4442607428260914
1729576592.1909378,-0.09488048394391023,-0.512430993758916,8.305305533248035,-0.030805165249050942,0.005698215566817852,0.00017562067553776345,0.999509150178582,-0.18038770200335413,-0.7679713634773533,0.5453834359532855
1729576592.1996057,0.24306517765123198,-0.7376966345854278,7.591666028689056,-0.048408567672097405,-0.015908894039145915,-0.0007711287650468684,0.9987006173157273,-0.2350882595176979,-0.7511034400035175,0.6350039760090203
1729576592.2069633,0.04935277968644231,-0.8742925400774286,10.222553787135308,-0.042646046031773716,-0.0024029270497990494,-0.00010256894726765883,0.9990873486232624,-0.2998353486359565,-0.6392427612297904,0.6585523056786569
1729576592.2153752,0.20869795199155286,0.344280258424246,10.732793661441342,0.016031735020777694,-0.009714820115098659,0.00015577279498760427,0.9998242752990103,-0.4021114212647544,-0.48188006093560354,0.6441600693624826
1729576592.2229607,0.39672123945665044,0.1799925166268132,10.841176528896055,0.008299035608863513,-0.018284636698797336,0.0001517754539699389,0.9997983671885883,-0.4570917139201026,-0.3176492706793182,0.6725597629199749
1729576592.2309625,0.4168796076876621,0.3265861215483536,11.259590414407946,0.014495423560541064,-0.018492979357416933,0.00026813760894813427,0.9997238721329552,-0.4930597199435458,-0.13610123454045087,0.7683522404249461
1729576592.238962,0.4074268136848629,0.46793298152276214,11.111285908801017,0.021038996400775025,-0.018304416650080133,0.000385256418989964,0.9996110046108136,-0.532945196200479,0.0009231311993636165,0.8347672182186314
1729576592.246969,-0.04260869084181664,0.9655014637183447,11.768097022575532,0.040918818433824604,0.001802765260346308,-7.382897829720662e-05,0.9991608453520773,-0.5951885874862218,0.1652959325054244,0.8609941229280577
1729576592.2549376,-0.5123064120148556,1.2173556206626472,11.917256861006257,0.050864722439214825,0.02134071433505786,-0.0010871453139147942,0.9984769261419703,-0.6474337744088386,0.31755656103327684,0.8294786689314279
1729576592.26293,-0.7110462471112572,1.280361493735479,11.508519398586177,0.05534345896530856,0.030612402892765712,-0.0016975973260079955,0.9979965433317918,-0.6804836468082569,0.4233864002396974,0.75820951897362
1729576592.2709389,-0.8020385685792543,1.2324525981455845,10.600322481436862,0.05779833400850987,0.037435647086768185,-0.002168871734791791,0.9976237872607258,-0.688394248526971,0.5013577658532589,0.5839098000071675
1729576592.2789211,-0.9306147927588807,0.9815253467291475,9.840405022065243,0.04963045201685293,0.04683862771047115,-0.0023300605277761016,0.9976660423231511,-0.6799442176528764,0.5464378249755475,0.4299499214977004
1729576592.2869308,-1.1449482823936097,0.6219551909476446,9.581257922907113,0.03234637022452362,0.059277681671604715,-0.0019218082502422283,0.9977154782010688,-0.6259198420602861,0.5556068778675154,0.3035187894750576
1729576592.2949321,-1.5405018612818688,0.5912848858088211,9.641966073324346,0.03051936433866309,0.07895029103448126,-0.0024181980513512543,0.9964083361073005,-0.5628555322794655,0.5389724264066704,0.18211127368503457
1729576592.3029351,-1.719894328439043,0.6147812317782615,9.647984602490702,0.03168401579352861,0.08787275773740556,-0.0027963995451041244,0.9956237651544899,-0.5292738470255935,0.5272889952843154,0.056481196589728826
1729576592.3109632,-1.7949686661552227,0.7797137439497694,9.343701386494422,0.04142198188788458,0.09435264920211255,-0.003929220522062046,0.9946689691707045,-0.5406259004214606,0.5317725682703772,-0.12191384454126628
1729576592.3190737,-1.8246903781599304,1.0292685356765021,9.112289743029466,0.05592699074688067,0.09789440053612877,-0.005510155604147199,0.9936088245556641,-0.5614849044872279,0.5442535834756411,-0.25874917352220556
1729576592.3269422,-1.902139026700646,1.2762059981148854,8.783343145134085,0.07166401937477264,0.10508918990255761,-0.0075930103479173346,0.9918482125237373,-0.5982646404300241,0.5640872043811983,-0.3846964472413584
1729576592.3349438,-2.096809298588747,1.6003422975994002,9.25730933190467,0.0849502024630403,0.10917533201302461,-0.009364916556829334,0.9903416119295493,-0.6701382191867595,0.6419693364511476,-0.46622447233331854
1729576592.3429646,-2.3852757207548105,1.5544462306104212,9.543125564963114,0.08003302527103386,0.12024593104522609,-0.009726109973230285,0.9894650239992425,-0.7371010098826746,0.7436126336217193,-0.4870457433320005
1729576592.3511724,-2.5494970279118707,1.6322534634639088,10.042860352405604,0.07984202322136458,0.12205428912524774,-0.009850881691704998,0.9892577833729415,-0.8143137196474204,0.8624924602828985,-0.41780601413049967
1729576592.3589373,-2.3667111171377475,1.641109416945533,10.484916803484378,0.07706714278589606,0.10916027046080808,-0.008489107989248023,0.9909957749159622,-0.8580872051374957,0.9125358532065044,-0.3392271412624024
1729576592.367113,-2.1821010587103826,1.8889556172083353,10.529405281065236,0.08817173335872922,0.10004604316479225,-0.008901089990087638,0.991028407907954,-0.8519988517604264,0.8748771691882049,-0.25504478219434723
1729576592.3749292,-2.452731348116854,1.2880387975710947,10.90684891082664,0.05837245288926685,0.1094511383164996,-0.006438794486062965,0.992255837468583,-0.824932886353773,0.7918339700496169,-0.14962134882491207
1729576592.3829277,-2.5590852029130815,1.2188630478297662,10.744017898742078,0.0560549548455723,0.11575039339599948,-0.006542860391648653,0.9916737767249004,-0.793368464897148,0.6709178103023047,-0.03698724167365532
1729576592.390958,-2.8165884300974584,1.134501388268172,10.461008082995248,0.053507677786209816,0.13021016963117696,-0.007037502553501932,0.9900165219330215,-0.7403746071062104,0.45959315441729504,0.14850936964208147
1729576592.3989356,-3.0213686012713654,0.6464637492206688,10.115467791691678,0.031557261742985454,0.14426775313011184,-0.004603217150306118,0.9890246533984585,-0.6889965496043944,0.3127909279975738,0.2840716699348594
1729576592.406936,-2.6744943382530537,0.6023987182824013,9.406797789272819,0.031652500079830725,0.13772367442719985,-0.004403532060606744,0.9899550078899334,-0.6092153580351711,0.18043782575368975,0.37732837183146295
1729576592.4149487,-2.142434295822926,0.7452297570924876,8.713205781717988,0.042327549672265076,0.11973083381656617,-0.0051093469707807915,0.9918905184272425,-0.5387850698361496,0.05547712783092192,0.4532898258581406
1729576592.4229367,-1.9754694959507866,0.6772206337965082,8.062179394323762,0.04157686123022605,0.11935100639314158,-0.005002416704758197,0.9919685870582287,-0.45651203113930566,-0.10548868333806917,0.5359017336213439
1729576592.430942,-1.7299625752560188,0.6409641429732172,7.678267326535663,0.04136624153509563,0.11011153721811066,-0.004586790317600711,0.9930474534418318,-0.3650048918364581,-0.30125395436011715,0.5701440360666328
1729576592.4389398,-1.4334996594114238,0.5327795685476022,7.7723344108139765,0.03406660154192359,0.09080580570246174,-0.003108112629223517,0.9952809211202607,-0.28498489462848975,-0.4727757547790239,0.5817499262431034
1729576592.4469376,-1.2924926154710732,0.3098515143219207,8.294446884281355,0.018610569312972187,0.07714829584328162,-0.0014403180851118478,0.9968448789265751,-0.21228287273891092,-0.6625296075686224,0.5993557118855366
1729576592.4549313,-1.2081278092728782,0.31280359658143364,8.060160448684046,0.01933762807964524,0.07425305733173009,-0.001440125102169978,0.997050884186376,-0.16142492856030907,-0.8155454048968884,0.5911888205666671
1729576592.4629278,-1.0717965061203676,0.5307712558492508,7.886788024581521,0.033513087153905205,0.06729557924163772,-0.002261688800690444,0.9971675199121339,-0.10238892793519186,-1.0052635974301154,0.4381485443865585
1729576592.4709334,-1.0711611605081581,0.3790360555115036,8.09018006328407,0.02335381702958158,0.06568184622670001,-0.001537664335525737,0.9975661030201418,-0.03929747356508946,-1.2140233966560845,0.19903561741263034
1729576592.4789267,-1.0559359028478636,0.45558905151979273,8.13057300989427,0.027923616922131914,0.06440478383104511,-0.001802864927440298,0.9975314757518762,0.01260517108521901,-1.365672060002312,0.004485053852829643
1729576592.4869568,-0.3919865941989525,0.7435746369665631,7.489699556668983,0.049440090160908605,0.025982086161079103,-0.001286565967514512,0.9984382571955117,0.06971385162458803,-1.5000816442791758,-0.21441089903393834
1729576592.4949603,0.23143794704508164,0.6702420575705628,7.178438055534593,0.04652639932095959,-0.016026967354237476,0.0007465817891050855,0.9987882023228373,0.111641481054526,-1.6101000090861741,-0.3968312781414429
1729576592.5029342,1.0362095504536115,1.189119320235697,7.454959176094194,0.07881376232753065,-0.06793836529855367,0.005383781671459793,0.9945570794495678,0.1597853220314385,-1.578628003895568,-0.5322505993551296
1729576592.5109603,0.5039310085924794,1.1755525125515744,9.217564935588156,0.06335788738701757,-0.027031429032935726,0.0017167344992107092,0.9976232418969351,0.1712183340976427,-1.246011225483687,-0.5981773498707085
1729576592.5189373,0.5341173258586126,0.9792281774528195,10.217428131274769,0.047738639713100536,-0.02596231630977504,0.0012412406810491344,0.9985216270726166,0.16232760906327004,-0.98812162001626,-0.6381590902415177
1729576592.5269358,1.3413579834057927,1.4386755966572387,9.598218563335173,0.07414023837528372,-0.06842470532971193,0.00509910815566052,0.9948845580519455,0.1323031504778486,-0.8768082430049311,-0.6936491990121936
1729576592.5349402,1.8161255712934758,0.7537903421252026,10.481972752991338,0.03575038385593068,-0.08540326903916635,0.0030663846443035533,0.9957001501339601,0.13174176784653904,-0.8057633161835134,-0.7388625859955361
1729576592.5429668,2.4227668271510856,1.141564863234106,12.192087844910036,0.04643129070705641,-0.09740279559670754,0.004549145642199959,0.9941509623428169,0.2680514479970655,-0.6618221254626993,-0.7102252201340156
1729576592.5513177,2.095545561378542,0.4725732306846042,12.747935694006568,0.01846189577964435,-0.08130424457309905,0.0015062765653011964,0.9965171896909395,0.41581921561399626,-0.4098639771214805,-0.6789950285888561
1729576592.5589368,1.7864459037216562,0.13294865398693437,13.376888888327768,0.004957772235649322,-0.06632803215893568,0.00032956910706739926,0.9977855000091884,0.45722827936186916,-0.13609035041568412,-0.6777102061817037
1729576592.5672262,1.592606403316978,0.29476850147419187,12.921557467518145,0.011381565539963511,-0.06125854834749573,0.0006985756599569221,0.9980567930795643,0.43950471146438974,0.16269188502979567,-0.6488437686809182
1729576592.5749316,1.5189194926249523,-0.02137879657642242,11.187416762005027,-0.0009532207805776994,-0.06742127026620588,-6.441395300985637e-05,0.9977241399989665,0.4765478576096497,0.33429880519076693,-0.4906204958365144
1729576592.5829282,1.3332100280945025,0.17463871204438094,10.31093515241786,0.008449509213413246,-0.0642378914193735,0.0005439216011870855,0.9978986938809655,0.5060104763416601,0.47344661251162246,-0.32544767198863694
1729576592.5909333,0.8358390417590452,0.13566842864264417,9.654083355855013,0.007019147500336684,-0.04316300224339396,0.00030325759376770674,0.9990433398209194,0.5407156500393476,0.6024841334805731,-0.1339692343426496
1729576592.5989363,0.6231288693913646,0.07685207403128963,8.905391012048165,0.00431206085457604,-0.034920393826838855,0.00015067216200411634,0.9993807830472149,0.558558923827726,0.6658588740336964,0.009013372301436881
1729576592.6069431,0.5438656395059124,0.12847178152814875,8.601024806203508,0.007463904405965151,-0.031564654011539336,0.00023571959222612912,0.9994738151569676,0.5543657359495819,0.6732340339403041,0.0871405151815722
1729576592.6149838,0.4864914747680006,-0.01796673699131388,8.497892577813902,-0.0010566777885048322,-0.028589057213810953,-3.0221791821771092e-05,0.999590690395984,0.558660864206088,0.6797875801915789,0.12082040900433041
1729576592.6229312,-0.008098583156777781,-0.49776065987056956,8.2837420151942,-0.030003843425264267,0.00048772399685350677,1.4640187436210935e-05,0.9995496642441936,0.6140235087812835,0.7433163165470282,0.1457109359740677
1729576592.630945,-0.8919108649819573,-1.2098895477778104,8.57830711097199,-0.06990509902191752,0.051147948676139594,0.0035890148629894327,0.9962350543166367,0.7557920611992188,0.8938157345862742,0.1410635093286566
1729576592.6389408,-1.4538016959911275,-1.855996912260436,9.147455820538271,-0.09961278669165158,0.07679418934918301,0.007711152897068986,0.9920284690122171,0.8898075497181137,0.9909264263932143,0.10890243910052977
1729576592.6469386,-1.4880696845868637,-2.027943761369934,10.254610737196009,-0.09721159211882313,0.07030744015939573,0.006884587843808504,0.9927534299443026,1.0634429662896356,0.9457501565421046,0.02702935792873501
1729576592.654937,-1.9398261967384465,-2.2501036933453977,10.509495203303933,-0.10482692121935538,0.08866903616903621,0.009384190173544995,0.9904852626805267,1.2059363217641317,0.8862919499603243,-0.04550744415475358
1729576592.6629336,-2.679185948755959,-2.052042142765051,9.937461620273375,-0.1007599522583864,0.12804732780844172,0.013077945116572842,0.9865496851216025,1.2782359431435062,0.8833951607438326,-0.1477747538866071
1729576592.6709354,-3.3117043109527944,-2.0318463208152804,8.86592532543551,-0.11062120459904816,0.17260212495836588,0.019511674860495615,0.9785656595737715,1.1981655981471417,0.7982218351673795,-0.2844822806044988
1729576592.6789284,-3.075666081444724,-1.7501417207118244,8.717885031687088,-0.0974711482218275,0.16492814412065052,0.016381399673584915,0.9813407829525739,1.0964864434051071,0.6513375759925505,-0.40694735247412683
1729576592.6869261,-3.0120941178609746,-0.7405147577688915,10.888229541961472,-0.03362639887356072,0.13416405871080536,0.00455528525196031,0.9903779682653048,1.0346275704369623,0.4516762243846008,-0.4966026179314608
1729576592.694932,-3.237073702161897,0.028306553053508786,12.836152435870243,0.001093860554613368,0.12320242922392069,-0.00013580095204114402,0.992380948255514,1.0264591708354935,0.34294735501784385,-0.5240029933952153
1729576592.7029579,-3.185074303084247,0.2336591820762459,12.706291191746754,0.009121382290063842,0.12247075305762299,-0.001125624017756704,0.9924295682823986,1.0062332888619792,0.2462089688495993,-0.49361731191264446
1729576592.711235,-2.804321221254845,-0.2931549912425337,10.853313334432817,-0.01338947833994562,0.12603502732187766,0.0017012657300066083,0.9919339693007159,0.8629852207475647,0.11750138694595533,-0.5392394122424067
1729576592.7189631,-2.4015714912978288,-0.1308820035345827,9.972567080249533,-0.006514045014728279,0.1178720168402266,0.0007732307268937476,0.9930071283620306,0.7029663091845225,0.04623649866423739,-0.6181211698771699
1729576592.726965,-2.082349519534557,-0.09528861374184337,9.096481246684876,-0.005202968183805949,0.11227556654961182,0.0005878914845908111,0.9936633135331325,0.5316078213679176,-0.003333475288185877,-0.6113875866523498
1729576592.734966,-2.085943771779328,0.30866084542676897,8.629008846887878,0.017745907186151974,0.11822383226527682,-0.0021131485881932966,0.9928261392941345,0.41857616720286595,-0.08075274654338738,-0.5315746057772162
1729576592.742964,-1.5690374032043153,0.3973227743459051,8.846758772488196,0.02234916948733401,0.08754508944297952,-0.0019645994115416896,0.9959078834344065,0.29030918597622646,-0.2502287370590354,-0.3691761907188494
1729576592.7509787,-1.5900116716589172,-0.010363887882691306,8.878528199283933,-0.0005812660030545318,0.08848732177079977,5.1637237903073943e-05,0.9960771322288552,0.11714304334982364,-0.39235488720731726,-0.22491123492300588
1729576592.7589412,-1.5532756785324597,-0.10509886129406791,9.04674861878911,-0.005786530795130894,0.08490880845983954,0.0004931165596137115,0.9963718016600761,-0.023791677573214806,-0.48316454809529275,-0.13154122046210726
1729576592.767136,-1.336585487685882,-0.052045989139722,9.246082558724638,-0.002806914506040937,0.07171820400871973,0.00020182738724807054,0.9974209641422348,-0.16198945787125382,-0.5563807073324074,-0.04912642797492213
1729576592.7749317,-1.0222178453459043,-0.21653880197992695,9.57828803010783,-0.011284862478711024,0.053118097112815114,0.0006003163133733371,0.9985242907702716,-0.2695981496148751,-0.6220205960092399,0.03735748286458568
1729576592.7829306,-0.72729470623098,-0.3963979259633468,8.929345664744385,-0.02216096876371199,0.040574332965275114,0.0009001293665876825,0.9989303302708353,-0.36183321865607987,-0.7333461496024227,0.18885930375040574
1729576592.790934,-0.28769690064288495,-0.548127290734258,8.513404607098584,-0.032137357341071315,0.016845893859742042,0.0005417393330522976,0.9993413394039564,-0.45974326622700595,-0.8256828854460543,0.2925310981257587
1729576592.798962,0.40151141771973786,-1.059107880788211,7.834320194679073,-0.06711377790332894,-0.025312400784002313,-0.0017032004347518938,0.9974227400106596,-0.5389224177197391,-0.8695912952927584,0.35601124493535663
1729576592.8069644,0.08887504521192083,-0.4930097296936298,8.544482882188301,-0.028813250437226073,-0.005189725808696298,-0.0001495969973802929,0.9995713286034221,-0.5800445576934485,-0.8354883524731722,0.4230462572005335
1729576592.8150005,0.04853662380684,-1.357394853929459,9.024450032047357,-0.07457735201652045,-0.0026518264878634804,-0.00019831917356474555,0.9972116861790117,-0.589818689526503,-0.7460647968245715,0.3972853050330247
1729576592.8229685,0.4962307181805884,-1.073250111820566,11.125798659365133,-0.048052891153367576,-0.022155838525262168,-0.001066146334463792,0.9985984687566063,-0.6216502623755197,-0.5770486567792005,0.3022246922391196
1729576592.830965,0.893415803955228,-0.4552869762720271,11.742807009339783,-0.01936036172869348,-0.03792321921799345,-0.0007348739038468898,0.9990928214126171,-0.6633107793424173,-0.3943321710127299,0.33586030765418917
1729576592.8389444,0.8954191515625899,0.31149185964694,11.915729802527697,0.013057717776184292,-0.037477762439755244,0.0004897599628006112,0.9992120262807918,-0.6831988087850116,-0.2123349691043021,0.438199858765403
1729576592.8469362,0.9868825627148976,0.04946794049519522,11.600258767747087,0.0021301802199031653,-0.04242169906451392,9.044749133327936e-05,0.9990975195645128,-0.6913004158974099,-0.016295875420990993,0.6307161283624372
1729576592.8549318,0.9151073415840166,0.650976095107664,10.749218808011534,0.030210360130575736,-0.04235448637032273,0.0012812804509645085,0.998644976928985,-0.7068036317013995,0.11580104287870474,0.7606993522103667
1729576592.862925,0.5519374469425974,0.34533524568764523,9.992710321672156,0.0172647974976971,-0.02756493847268151,0.00047615506341845454,0.9994707970774915,-0.7007807189711601,0.2401823403734975,0.7991001108031555
1729576592.8710837,0.26125177968899593,0.0805478795903215,10.093781174692747,0.003989532953816856,-0.012937460368725732,5.161915551260775e-05,0.9999083473406355,-0.6375703627283322,0.352697534340494,0.704224418933846
1729576592.878928,0.30950113373136634,-0.0407355740036196,10.381394003887912,-0.001961713177562377,-0.01490142162780022,-2.9235617543692636e-05,0.9998870428504203,-0.5890018974460847,0.42318648115092616,0.5864253250231898
1729576592.8869293,-0.18947071990766462,-0.19562676310334365,10.61764746556517,-0.009210786702838264,0.008919486346701644,8.2162240358063e-05,0.9999177953316923,-0.5564552977850399,0.4927240131707554,0.4020866222664336
1729576592.8949347,-0.633224192198505,-0.663972296875678,10.864744415618398,-0.030500191102245385,0.02903661196214406,0.0008864088838893196,0.9991125200835874,-0.5360759578654889,0.5467915441650519,0.2701988975392783
1729576592.902957,-1.0644367699577748,-0.5446690995609537,10.68834884053315,-0.02542227959199363,0.04953036980167167,0.0012611319012701381,0.9984482258554942,-0.5404502663107775,0.6022193260805795,0.20851955522292842
1729576592.911116,-1.1843006203242743,-0.33182928322290034,9.782608720823797,-0.01692089890522585,0.06015848371953157,0.0010199296974376195,0.9980448886499135,-0.5694676351885968,0.6388815157215924,0.11574655178159234
1729576592.918963,-1.311764409059799,0.019971881970556663,8.746437947338029,0.0011384236382449234,0.07436476847627625,-8.48937273857487e-05,0.9972304538040065,-0.5975203080518391,0.6625815897520482,0.00644580197257473
1729576592.9269633,-1.3379644474378327,0.364409613557334,8.18147806259227,0.022177981465739172,0.0808630813114266,-0.0017997206516859215,0.9964768237267252,-0.6386162452731202,0.6993632074278093,-0.13703592916038765
1729576592.934967,-1.4688455703181682,0.6673191592476816,8.281838136383486,0.040030447096288856,0.08730615359873377,-0.0035111584979526755,0.9953707201917624,-0.6803014100643703,0.7371827103073612,-0.2576058628185896
1729576592.9429805,-1.750881385159651,0.9599164235271246,9.069173224847669,0.05245467689223583,0.09456543450003219,-0.004989722785851851,0.9941232258309186,-0.7542668660072538,0.8113829094719981,-0.37847649002018235
1729576592.9509373,-2.054657007365322,1.1907808404443996,9.780276183443757,0.060208702459075884,0.10242843036831967,-0.0062112001122545885,0.9928971496553116,-0.8595198183620545,0.9321015499724838,-0.4463162756650557
1729576592.9589405,-2.330775085766849,1.3302571712588271,10.115718875349456,0.06490179677753559,0.11182009408990969,-0.00731895222431506,0.9915797780668529,-0.9388478121104922,1.0479531205419026,-0.48020910606858724
1729576592.9669328,-2.3851155556105,1.4103516672572494,10.544912488539751,0.06600993687467809,0.10980539571630044,-0.007308676531638974,0.991731842058499,-0.9668628655323013,1.1774863615497004,-0.48096306148345264
1729576592.974934,-2.48619400499716,1.3947226006961464,10.950150898885568,0.06289771561260939,0.11031728993551217,-0.006995512258150199,0.99187954698151,-0.9402515113162595,1.2581861365846132,-0.46225938196658045
1729576592.982929,-2.629919872236577,1.3384188082204223,11.230643490991497,0.058871027247055056,0.11378548848191593,-0.006754483736908553,0.991736578790586,-0.8429778970473863,1.228704720358009,-0.39442039608200696
1729576592.990965,-2.405866857423977,1.3735895405474876,11.033823293081225,0.061520953246847,0.1061395856990148,-0.006579653046806466,0.9924244398567703,-0.7539640440607962,0.9692239157116127,-0.2272870562970395
1729576592.9989588,-2.214213628858683,0.9366812023558363,10.842947443866315,0.04284721438402486,0.10009402421586203,-0.004314439943145771,0.9940456167318383,-0.6822510596259748,0.7207349995250519,-0.04442318050242486
1729576593.006963,-2.9084618528523194,0.7473199299095955,10.311112584972133,0.03581375123224605,0.13660336746065888,-0.004941866224525259,0.9899658949576505,-0.6051680640481194,0.5712159597516535,0.14958177714382617
1729576593.0150006,-3.2914919640063136,0.5669049401234917,9.531127850055546,0.029274678458125612,0.16515307478234958,-0.0049043409187886754,0.9858211818231851,-0.5265658220302918,0.4742678048427599,0.25151128964186775
1729576593.02296,-2.857876750669413,0.6703033730096418,8.535933803539185,0.038644552924105985,0.16025670246544169,-0.006279080712483673,0.9862986165404497,-0.4083142365554359,0.27434412143056713,0.2658430903798692
1729576593.0309594,-2.4856589849719604,0.59180279529016,8.133944810932107,0.03589344603121451,0.1472846210273346,-0.005348443748459655,0.9884281942004225,-0.29351720893993316,0.06925189909084518,0.28551011242068286
1729576593.038958,-2.3580963919597386,0.445103659595971,7.81541870174481,0.028124851732222827,0.14571473896847123,-0.004144130212404578,0.9889181127612,-0.20888846009653633,-0.081047598246558,0.2943304952149368
1729576593.0469358,-1.5867615143750617,0.43513515230055133,7.652315195656262,0.028243347425307024,0.10185122669153945,-0.0028928355880250005,0.9943944249893514,-0.12065048538183945,-0.2716901511540393,0.27322994108084325
1729576593.0549293,-1.030107882746131,0.49954357673189326,7.875994374962116,0.03159597772687706,0.06481930636050641,-0.0020533792887480044,0.997394573550469,-0.049403027910153954,-0.4346043499051997,0.29334774333296354
1729576593.0629249,-1.3676892694426002,0.5029938669864016,8.331024905006567,0.03004342490239568,0.08108697294905938,-0.002445297482359254,0.9962511309696543,0.00356200804794609,-0.5949293081908147,0.3696976239650025
1729576593.0709329,-1.2510910201616539,0.35542643737934093,8.29950077186136,0.02133565137986455,0.07465407539688078,-0.001597618224954877,0.996979942939095,0.025550158209179392,-0.7715797047785076,0.2865234637212303
1729576593.0789208,-1.0343675088255078,0.41652358337487017,8.212351544659784,0.02528358377861486,0.06250597917957253,-0.0015839818488417071,0.9977230246714842,0.036614597998609215,-0.9256729196763329,0.1574406161430291
1729576593.0869255,-0.919895712814836,0.4529424508061721,7.512669879432588,0.030046353310010994,0.06074536312569885,-0.0018293855302090845,0.9976992887940127,0.05815241402343821,-1.1070980714605927,-0.0021672742660637234
1729576593.0949333,-0.9005331894076514,0.5257902666262815,7.421105927903693,0.035292158513454575,0.060155018279709135,-0.0021281875063601722,0.9975626838154917,0.09831926757190565,-1.247454227079339,-0.1277303128138616
1729576593.1029582,-0.47160632599810653,0.5256850657374876,7.739423595804715,0.03388668034027698,0.030338272000537174,-0.001029128910678636,0.9989645754686312,0.16754252621596144,-1.390413148932347,-0.27415837620669964
1729576593.1115043,0.36299181231129235,0.7276925653213988,7.367537386242595,0.04919016971801473,-0.024463517428083077,0.0012051855323230317,0.9984890640592873,0.20907648140239493,-1.531102519972754,-0.39819886946667515
1729576593.1189713,0.8862561909024004,1.150087633919402,7.81382444468501,0.0728849652008365,-0.05569451866259165,0.004076513388709629,0.9957757199677078,0.23186840420694488,-1.5303781303045918,-0.4624066039475716
1729576593.1269639,0.27557413690472143,1.029789795927813,9.111342813783663,0.056236321434520176,-0.014998048360312105,0.000844867564212039,0.9983044730420144,0.22425905481657327,-1.1902428274569932,-0.49880279432879937
1729576593.1349707,0.4318191269182235,0.6121277935723127,10.818564659217465,0.028250897933439042,-0.019905645515768913,0.0005626885722627708,0.9994024892024862,0.19244928124878025,-0.9035777738248,-0.5385194911389414
1729576593.142958,0.8775137649692935,0.547081220821122,11.212743889524619,0.024354483141804342,-0.03898291966284666,0.000950413841736337,0.9989425848560992,0.15335598421938895,-0.7869184496355481,-0.6036414451868437
1729576593.1509364,1.765747038278451,1.6366799397680638,10.960834289037036,0.07380459778347456,-0.07870201817502118,0.005842778930938416,0.9941452286339065,0.27250617659153475,-0.7237338961053896,-0.6044025120840022
1729576593.1589394,2.5881459829768363,0.5175328417905258,11.557637127377298,0.02223151458127456,-0.10979353902248082,0.0024563449442494317,0.9937027246203245,0.37932856711617086,-0.585360309482255,-0.5993251814232908
1729576593.1671252,1.434614027774383,-0.5420555061073252,13.442261808897081,-0.02012051587826807,-0.05308225288882057,-0.0010697680123306777,0.9983868463002903,0.39191350399404673,-0.1417766754500335,-0.5788254905069208
1729576593.174927,0.9821544408345516,-1.2125244389183012,14.306322552867545,-0.042237964162486284,-0.03411291620642396,-0.0014429899835887658,0.9985240012694784,0.37817996304767065,0.24910069297767473,-0.5435384126381491
1729576593.1829286,0.49711590058471533,-1.3509647756556682,12.987448645245918,-0.05179107127783623,-0.018999732426659647,-0.0009855177338473223,0.9984767017103633,0.41591436511774443,0.5036345469230151,-0.4261602120264668
1729576593.190933,0.1481530962590323,-1.1321201483523853,11.427585567762785,-0.049352296668214994,-0.006442415754701369,-0.00031834256598558457,0.9987606043245933,0.47601573176844747,0.6503951984297509,-0.29017702219430463
1729576593.1989617,0.03669826156401313,-0.7001016434547904,10.270922328206499,-0.0340224711236191,-0.0017813362080955585,-6.064066289123862e-05,0.9994194788089065,0.5597538386426169,0.7571819520381218,-0.13111151710891758
1729576593.2069628,-0.06872128598151397,-0.8491019235728743,9.570699460156321,-0.044228884086745586,0.0035725768934974146,0.0001581668799486665,0.9990150236558104,0.6134022232588148,0.8212540042031443,-0.0024683892636468835
1729576593.2149777,-0.2442610723701584,-0.8879844366144278,8.759592608222698,-0.050487308332775385,0.013849708205336911,0.0007001948597227826,0.9986284228916663,0.6481453943973057,0.8596972355021578,0.0730147271976674
1729576593.2229612,-0.8729574271135014,-1.3152157645077192,8.576034427238307,-0.07591413178249079,0.04997229662560002,0.003809397054914737,0.995854056907814,0.6902758001535018,0.9168183791985285,0.12724408836515863
1729576593.2309687,-1.4764272968442729,-1.3412323615366626,8.479785888276579,-0.07805841536219241,0.08478953786165168,0.0066630846085358325,0.993314261129805,0.750460628647106,0.9842948902103894,0.1789377578314448
1729576593.2389622,-2.1310806615538294,-1.7456606693634036,9.05147238135462,-0.09447758854482599,0.11283669787973238,0.010778532520785835,0.989052924828116,0.8568103858845038,1.0371258085999047,0.22698156196969776
1729576593.246935,-2.591149747029954,-2.1403494594793706,9.376767184916288,-0.11096402355159249,0.13037609013164608,0.014685486256871735,0.9851260818253802,0.9746828780326204,1.0113562013362396,0.24644266310048485
1729576593.2549295,-3.088415431714066,-2.450664724515747,9.73163731778571,-0.12160826706648396,0.14759326332380682,0.018289232686544293,0.9813731002886993,1.0760560577467566,0.9805695947654076,0.25301104304141275
1729576593.2629213,-3.2701772216749236,-2.197996719230933,9.981190682907753,-0.1068157870077473,0.15331493531788049,0.016672460522991792,0.9822458690747948,1.1803003518443655,0.9080349930172302,0.18203062018865188
1729576593.2709317,-2.9877823242158916,-1.8462406572709813,9.468686522781761,-0.09500720982694595,0.1489149374996774,0.014375552405251105,0.9841703688708626,1.2249679457215257,0.8066203836094876,0.07175764670453233
1729576593.278924,-2.72545036132641,-1.7484327586204012,8.25473927817101,-0.10285033601442224,0.15473173293927414,0.01619841451639062,0.9824548389470555,1.1487515071740102,0.6529711845661191,-0.12722143656209325
1729576593.2869244,-2.9240689704579554,-1.851835471822631,8.41174670533034,-0.10662749446763807,0.16195623390728547,0.017605924922594694,0.9808622671556605,0.972334795176657,0.5607816651400981,-0.3100367056799113
1729576593.2949338,-3.0908847489739917,-1.4860332630740474,10.27718154980953,-0.07095756933114579,0.1437777445538525,0.010336402751843495,0.9870086840062626,0.8392406040446752,0.4709870585060608,-0.4150432764745198
1729576593.3029568,-2.784199354023067,0.14578762150127467,12.266495339797828,0.005903719650759135,0.11135615553107771,-0.0006615416873205509,0.9937628062481608,0.8321770898754935,0.25449669104714234,-0.42313320102268276
1729576593.3109655,-3.015821525255637,0.43965963710974915,12.650604032491978,0.01724562611045972,0.11666068090506455,-0.0020260281111946364,0.9930200245316897,0.8760419583191941,0.08671605510167049,-0.39265488065023196
1729576593.3189728,-2.7784263270186162,0.18215350565452137,11.126837691711984,0.008120801585854792,0.12202572894971837,-0.000998441823614389,0.9924932126568009,0.9202398619668197,0.0013725157470205335,-0.3718137480579893
1729576593.3269625,-2.7078152578810917,0.14257150646888467,10.487192817663908,0.006740527722072386,0.12599178509900422,-0.0008560930023644745,0.9920080153296976,0.8454443695274316,-0.043873947005301,-0.46104899319206927
1729576593.334965,-2.4080719379317803,0.3019787339594558,10.086407061447954,0.014857797091786695,0.11684736446468237,-0.00174826726525054,0.9930372011384097,0.7388420151518041,-0.08379252650055488,-0.5345975731612327
1729576593.34298,-2.1499355516750835,0.23242315590301724,9.716648718069944,0.011883810106325336,0.1086246461254594,-0.0012986523573418943,0.9940109530651714,0.5782489585745465,-0.20565238833397442,-0.4271810592622475
1729576593.3513036,-1.896652031688644,0.2103222626824353,9.414348536261889,0.011110857471071807,0.09920758792842761,-0.0011078158974605731,0.9950041085782602,0.4491149898956155,-0.3179317910885331,-0.2660995069709752
1729576593.3589408,-1.6230564753608427,-0.02871148980264819,9.171198024345024,-0.0015590583942890015,0.08746736344024411,0.0001368915479985775,0.9961661562864097,0.30522695910017994,-0.42276015814992707,-0.10261723594667288
1729576593.3671808,-1.530964611534865,-0.08330685970190141,9.424181713776935,-0.004404815739528345,0.08043106724122961,0.0003554390738075043,0.9967503773181139,0.12098542648665134,-0.5120499621974094,0.017608009863934154
1729576593.3749254,-1.327029570143575,-0.01454993125082835,9.802942244818896,-0.0007403733594475425,0.06722547818908359,4.9884815884956864e-05,0.9977375328417002,-0.030000048920358832,-0.5673266048717469,0.1280552628818812
1729576593.3829284,-1.2494401163537232,-0.09851252100635638,10.129797352506571,-0.004852820162784694,0.06131951164593826,0.0002981371309360828,0.9981063464091501,-0.17848518252340123,-0.6349734854547741,0.29393508907476484
1729576593.390931,-1.1114279406618432,-0.42158964395147003,9.511881852666052,-0.02210602983930616,0.05805595369091792,0.001285871306428831,0.9980677212598176,-0.285880935328094,-0.7142994093976351,0.41602455804798266
1729576593.3989606,-0.7528086039967152,-0.5898179599548664,8.651757733425802,-0.033994195666713876,0.04325822444823886,0.0014727607695345479,0.9984843271951116,-0.37756255094447966,-0.8121263910158716,0.48800116924752734
1729576593.406963,-0.23453107182185728,0.10244406045286149,7.95085089371759,0.006441203983357784,0.01474246479426094,-9.497151489007919e-05,0.9998705724259747,-0.44321377185086186,-0.8882758725067568,0.5856754638343942
1729576593.4149666,-0.12778995412827063,-0.3307037956618769,8.081452012060632,-0.020447168891366385,0.007897370965842159,0.0001615176857100347,0.99975973049938,-0.46174569138305166,-0.9165122688813445,0.6885518069785654
1729576593.4229639,-0.33836021393204047,-0.07919103472134485,10.397194134482474,-0.0038076819837327574,0.016264660726961463,6.193929804081642e-05,0.9998604695320598,-0.45754000088973235,-0.8308628018937476,0.7498519228036062
1729576593.4309626,-0.11826138958969303,-0.28525884568632254,12.382556201148468,-0.011516148579857097,0.0047735757074445105,5.497747934259173e-05,0.9999222911178292,-0.5009911132316403,-0.7364784254935243,0.7385290153534212
1729576593.4389565,0.2807513901231373,-0.033967552284840385,11.84851172483947,-0.001433301079112031,-0.011844983808622608,-1.697863664274616e-05,0.9999288183257427,-0.5721849271517603,-0.5589518221981733,0.7010855864580439
1729576593.4469347,0.36645131136880427,-0.19539667272832612,12.209953671866572,-0.007999827724547999,-0.014998787963293389,-0.00012000506028446671,0.9998555019175497,-0.61021862482775,-0.3387766138106002,0.6756396986905833
1729576593.4549325,0.40685793647948576,-0.018596895238558155,12.759373450678536,-0.0007286574063951973,-0.015937395686081716,-1.1614379613031365e-05,0.9998727260717913,-0.6496407558303631,-0.19177233662688525,0.6386619728955433
1729576593.4629226,0.28649213127245704,0.9831538123197556,12.164145216647356,0.040310487956288145,-0.011725848742239978,0.00047309181717499496,0.9991182838964227,-0.674571104616317,-0.006086746241851057,0.6271175889550701
1729576593.4709337,-0.0237109968712914,0.6720134043352127,11.768461629500132,0.02851660119946451,0.0010053467960560677,-2.8680752078108435e-05,0.9995928130550283,-0.6844210331503449,0.1815231289908731,0.632535970373185
1729576593.4789252,-0.7008836342555873,0.2978631695542526,12.003427464760625,0.012399075403845045,0.02914670795647122,-0.00036157367647602343,0.9994981748902328,-0.708635662913629,0.4256272831222754,0.5259589633668499
1729576593.4869251,-0.8799774791373367,0.37887316052161407,10.823286489842703,0.017479699128016116,0.04052079985447796,-0.0007089822673442378,0.999025536331125,-0.7338066923081503,0.5610218340031039,0.27258068181244477
1729576593.494935,-0.7274234857734176,0.4928408604242966,9.821672781356794,0.025048039655411622,0.03689779780929605,-0.0009251383384179405,0.9990046508126477,-0.7323073975478438,0.6311906229335882,0.060105724152193174
1729576593.5029557,-0.7850498531828005,0.2643404745065311,9.491967604360951,0.013908068972182778,0.041227867626514744,-0.0005739436654055462,0.9990528009755563,-0.6671286214108932,0.6758460366606509,-0.07631874173466044
1729576593.5111365,-1.3128312156206179,0.007530159948059289,9.597489848505242,0.0003913557890078208,0.06792029743259831,-2.6642527895908386e-05,0.9976906731685374,-0.5982230514263807,0.6979566942208062,-0.12369252628834805
1729576593.5189586,-1.906748585329402,0.19389944728719494,9.898068579513302,0.009747309425747487,0.09498780136819758,-0.0009301259065297563,0.9954302800377295,-0.529635545502103,0.6946211763598802,-0.1623333584956494
1729576593.5269623,-2.121601689039438,0.4848073038703638,9.187054540041967,0.026181809363041382,0.11304355690718036,-0.002979826850919664,0.9932405487756674,-0.5135987555737963,0.724972310314439,-0.26980448998951245
1729576593.534961,-2.3793216005818656,0.757753706052687,8.77768436831229,0.04265421953007474,0.13138029410712318,-0.005658255557507696,0.9903978089740768,-0.5112134126616669,0.7695757744978202,-0.3802616955237297
1729576593.542962,-2.3388261122045884,1.1542379487292684,8.638843659317452,0.06576984384519054,0.13042317519032692,-0.008671244456897827,0.9892365402336396,-0.507228066545617,0.8295416778018874,-0.5048555572645583
1729576593.5509446,-2.2369566853891594,1.4955580060539673,8.969496700961564,0.08189089170539703,0.11990293793493534,-0.009924629494400606,0.9893526515149514,-0.5180332507813101,0.8787176116896507,-0.5736522134485871
1729576593.5589411,-2.6829269409209955,1.2950116993843335,9.377381171211704,0.0678819003873108,0.13732488235549029,-0.009433641112582677,0.98815228112939,-0.605397473000512,0.9601573595206765,-0.5595904991689402
1729576593.567147,-2.822898145753769,1.697098717628647,9.926654304533663,0.08374087177129161,0.1357350129034737,-0.011514732314302976,0.9871326575525743,-0.6986822522323881,1.049887454119647,-0.4881513415047714
1729576593.5749316,-2.653574333008902,1.5983742928330473,10.717341424272933,0.07340165200352813,0.11946450448367553,-0.008856734774754162,0.9900818086909549,-0.743585178173501,1.0692446159006048,-0.44103094629164985
1729576593.5829284,-2.835214101758466,1.6045013432779534,10.605892549876257,0.07435093490533311,0.1284818164389321,-0.009660226496963875,0.9888736225359047,-0.7709526237996307,0.9263334206584619,-0.34124277883815557
1729576593.5909312,-3.008362567500392,1.0608630740331781,10.847635819232396,0.04826457277709904,0.1340875806245664,-0.006538557190285153,0.9897718418942639,-0.7831161905606883,0.7686450831260929,-0.1906978952746463
1729576593.5989366,-3.3854300563693758,0.9745791188339694,11.02476408309217,0.043565727130926345,0.1477344067736821,-0.006514028043942984,0.9880456163120327,-0.7465682542867335,0.6114556415717529,0.03584985453130937
1729576593.606962,-3.2494278385091255,1.073643450304288,10.725223860011551,0.04930950025302353,0.1456959370753038,-0.007270913488209725,0.9880730746870867,-0.6816447963146954,0.43626086496136285,0.2258411422205608
1729576593.6149752,-2.823540309062506,1.0014009578778853,9.873926160489354,0.05001043061147027,0.1379688093194186,-0.0069755744797779665,0.9891485762238726,-0.6265144991959154,0.27537860094360267,0.3811278507959287
1729576593.6229582,-2.388442666882816,0.9793638571974344,8.85318258716275,0.05456818021580659,0.1304200425149761,-0.007189180018340828,0.9899299176754842,-0.5534214551472164,0.09413692030200232,0.5939187832119803
1729576593.630971,-2.1877179634109396,0.7633527161739293,8.285747434377729,0.04552373529620657,0.1280619195315748,-0.005884563719436937,0.9907033391487087,-0.49381509644390187,-0.03972380170921774,0.7590540680702701
1729576593.6389601,-2.1812471403512514,0.6859396277512325,8.076728013849294,0.04196913917351716,0.13093939406892205,-0.005548198746068439,0.9904860846718502,-0.42569883655079876,-0.18304236401233048,0.8521755781247755
1729576593.6469355,-1.8876662456365318,0.6988679758694895,7.724585464315435,0.044764276949606434,0.11896351702627332,-0.005368941176661937,0.9918744958897572,-0.3414086943458096,-0.3528944435022183,0.8586684370278831
1729576593.654929,-1.5350650464541848,0.4777393060295062,7.875782065942777,0.030142502893614708,0.09588406412756943,-0.0029049084093020583,0.9949317751850235,-0.27210424631848673,-0.49482055697358196,0.8191437661006205
1729576593.6629226,-1.1805704878334484,0.4111420699458287,8.206638453432852,0.024959570247782184,0.0712665629841295,-0.0017838786536114222,0.9971433771682106,-0.19859482289244065,-0.6587288864268761,0.729447004017648
1729576593.6709356,-1.137383230200069,0.3809999551022628,8.183688632362445,0.023201572102185743,0.06890147106477848,-0.0016028662816992827,0.9973523475466328,-0.14597536760757238,-0.7894263287699669,0.6683922157230098
1729576593.678932,-1.4576724356786352,0.4318676940086233,8.275263612767077,0.025964536271634666,0.08692415991230819,-0.0022662963859726858,0.9958739363897569,-0.10163299259279046,-0.9150963909981069,0.5679058335269223
1729576593.6869228,-1.2552815253720249,0.5284683031727521,8.705619421322355,0.03022977469656782,0.07137911443572487,-0.0021642918461930805,0.9969887153749389,-0.056297204879591924,-1.0377500251572764,0.3130736461211213
1729576593.6949327,-1.0016870475474338,0.5325591313177137,8.399519575156694,0.03159634744602048,0.05916525242397053,-0.001873628512006659,0.9977462769912385,-0.021859001206818267,-1.1428432702009683,0.06013716923406329
1729576593.7029598,-0.2109967780890071,0.7085932485660189,7.492571345924095,0.04712388423847059,0.013998148750531693,-0.0006604457876918999,0.998790746441515,0.040095856958662995,-1.290611539458128,-0.22954829681186972
1729576593.7114444,0.29358432450401756,0.6880392914247676,7.2869425231306275,0.047043659380797825,-0.02002105905265974,0.0009430977135405589,0.99869172514504,0.10195879542274958,-1.4197130568513168,-0.43017805031153755
1729576593.7189913,0.6609764308840511,0.8617363861341575,7.371142513390096,0.0580967473645266,-0.0443251947915019,0.0025820615484295688,0.9973231061248495,0.1684491727420817,-1.552513675277294,-0.5539614229030345
1729576593.7269592,1.4035870767921494,1.0844676251375258,8.081265064918822,0.06639787890866078,-0.08494273453797589,0.00567317797025002,0.9941548514076465,0.19301855692104786,-1.587922279940829,-0.6184405750443059
1729576593.734966,1.5529907189756802,0.9442096986176717,9.016585288951294,0.05195065981625586,-0.08460996680786416,0.004417413648282642,0.9950491288967032,0.1894555147855602,-1.5061504478651384,-0.6494656452227522
1729576593.7429614,1.2322667397350175,1.0788849744440405,9.578256263702807,0.0559358710454367,-0.06343445753884988,0.003561042780401661,0.9964108424246778,0.15879645538631146,-1.2693580315149682,-0.6800000090507569
1729576593.750935,1.5181938438898386,0.8879482515121274,10.10823150236231,0.04366997812977706,-0.07411860213122232,0.0032488189281311454,0.9962875142266064,0.15104327128331302,-1.112383429553695,-0.7055573583924142
1729576593.7589421,2.0414583302596845,1.153585441385792,11.33960457890762,0.050462317099237895,-0.08838321750534021,0.004483347022816323,0.9947973969687761,0.267713028338193,-1.0173472882540069,-0.712377966768168
1729576593.7671607,2.728673060899951,0.5245571486205377,12.063344954375822,0.021586859751183032,-0.11086966423792437,0.0024087497541289433,0.9935975659000351,0.40284546197481175,-0.7764274969225965,-0.7547824373252031
1729576593.7749264,2.856331321891533,0.45096436363521325,12.73030558102393,0.01759191638826924,-0.11005091608187782,0.0019481466907136627,0.9937683457787329,0.46689731969830184,-0.4522344161867729,-0.7823535699667343
1729576593.782928,2.5977380460646073,0.25501630739011233,12.743578968731546,0.009951603332792212,-0.10035200270685293,0.0010037808800154998,0.9949017205572496,0.4844696213207562,-0.00017608056074958078,-0.6975820149236894
1729576593.7909315,2.3355612663594676,0.09961908741258302,12.041183368787754,0.004116755292288301,-0.09564228675057579,0.0003955525930298441,0.9954071774149161,0.5073580140766278,0.31064809653083325,-0.571797631080545
1729576593.798935,1.9443416963391178,-0.0015201100524501873,11.027181097932809,-6.865265405648679e-05,-0.0871536454161532,-6.006183321611264e-06,0.9961948791985503,0.5330103714510877,0.5384345387476,-0.3737282630735933
1729576593.8069615,1.5719433588679237,0.16955509217165488,9.97273996613273,0.008473006065761351,-0.07807538602719959,0.0006635828737947532,0.9969112307134889,0.5590440374123143,0.701073497826844,-0.17953950139064268
1729576593.8149605,0.9304767465219261,0.10628203845728978,9.159552481876904,0.00579368308973616,-0.05059320580659039,0.0002935018208556288,0.9987024955506765,0.5801982077880568,0.805467914257783,-0.04514726179946696
1729576593.8229673,0.4977127459112025,0.1604949701446864,8.486807623159345,0.009450072297960285,-0.029278465508442954,0.000276814664479678,0.9995265834207091,0.6137495230251417,0.863847663501726,0.0031356372841240647
1729576593.830968,0.19663465682406528,-0.09428147006162568,8.038867977215919,-0.0058633428591335635,-0.012226451729423514,-7.169446997620943e-05,0.9999080607478507,0.6466510140112537,0.8890846416344651,0.014226394152873356
1729576593.83895,-0.14921211117899832,-0.45975244160728795,7.9127986085951765,-0.029013156584576753,0.009407442018400904,0.0002730666400039169,0.9995347228657339,0.7047040141345038,0.910612179436039,0.008535836491724014
1729576593.846935,-1.1381875938558363,-1.3333703382553883,8.869057902950075,-0.07438736231798494,0.0628983956956116,0.004701257859983434,0.9952327417849681,0.8004094929975243,1.0286741472981051,0.009378402509654726
1729576593.8549378,-1.9274185792627205,-1.8869897566641705,9.707612183176295,-0.09538495183278135,0.09565232659956499,0.009208591043558192,0.9907913732118082,0.8897595349249889,1.141228954038624,0.016269293042343626
1729576593.862923,-2.213970020848648,-2.2806923903754552,11.009689845306168,-0.10145332816848204,0.09655379167040269,0.009893707716839558,0.9900942894821788,0.9936009873339875,1.164064381629422,0.039985570189210416
1729576593.8709357,-2.5949146907318448,-2.426652568014336,11.130136784380966,-0.10642812304638338,0.1111084474049404,0.01196843811035298,0.9880206091116147,1.075061911545178,1.1449875034513244,0.0448501551251658
1729576593.8789246,-2.9999341550152785,-2.1136787368535233,11.03193778962272,-0.09367261630703035,0.12953924550070114,0.012293315340331708,0.9870632701236776,1.1413917585918356,1.1526974293102572,-0.049714117988066214
1729576593.886924,-3.1186867674232297,-1.7887066830300824,10.436956641058789,-0.08386032224478213,0.1422076904548389,0.012092410481404763,0.9862039306032253,1.1556482631321083,1.120714039539882,-0.1651979103377658
1729576593.8949318,-2.9325616564012034,-1.7759221970739087,9.100739472916523,-0.09503606440760698,0.15185185721772068,0.014670318410187433,0.9837143598012514,1.0462860188312892,0.9303966009699203,-0.3196261980399918
1729576593.9029567,-3.0636586381278312,-1.4790319449533296,9.933530645419834,-0.07299445872183823,0.14710064413050383,0.010885968746077184,0.9863643876259707,0.8878682388520749,0.7608664298378792,-0.4173914513988718
1729576593.9115064,-3.2598721286774803,-0.4717857587688727,11.17875974589448,-0.020867432335960612,0.14124717977410264,0.0029779905904618563,0.9897499260144501,0.8162305242449579,0.6472290054377177,-0.44795505935770574
1729576593.9189606,-3.8020921773529723,-0.11595617938241735,11.942417197634343,-0.004794672486884233,0.15349340384027155,0.0007447854242710843,0.9881377593169601,0.8464665860521572,0.501145269550069,-0.40839937577416985
1729576593.9269602,-3.7453096215973303,0.2826133565795339,11.342613955055215,0.012290509343749196,0.1587302374296203,-0.001976083351613477,0.9872435110955123,0.8646082231364768,0.36624343119519426,-0.3910513165459787
1729576593.9349666,-3.397599670663476,0.13485208987545474,10.678428978501877,0.006235963207850533,0.1534001956806516,-0.0009680754837730959,0.9881439953558722,0.815470906720922,0.20059000595132515,-0.41384630580310255
1729576593.9429615,-2.7817199977105855,0.3648635708198041,9.972502499405813,0.018108620797755187,0.13548495798409568,-0.0024766999429197147,0.9906108065079059,0.6723292704612268,0.022019599373065774,-0.4347600304022314
1729576593.9509356,-2.5026930166927577,0.8418894144645387,9.64830598084466,0.04314319144355755,0.125983176876075,-0.005484243347982558,0.9910786180980681,0.5298275105309594,-0.12300906004401066,-0.42304393165837284
1729576593.958936,-2.1363186701230763,0.3720160363740357,9.191622987920859,0.02008736480949034,0.1138220426759825,-0.0023018176725420293,0.9932953951425928,0.34897188080530395,-0.28111649595841576,-0.3176798682143285
1729576593.9671414,-1.8233596176011897,0.3218507302228589,8.880024226102124,0.018016799289051182,0.10100511173411038,-0.0018294463367341425,0.9947210742077696,0.21321433903634063,-0.391731489781154,-0.20508138301830614
1729576593.9749255,-1.6231343374552452,0.08704730458879346,8.679418019547994,0.004992114280888156,0.09229980538532986,-0.00046275238601777724,0.995718640269964,0.07003475506296808,-0.48236481957813276,-0.0587696305302169
1729576593.982928,-1.6509608319653346,0.033314189638041704,9.169336298789341,0.0018091049441402362,0.088953384570019,-0.00016156675991789738,0.9960341341585747,-0.10782204859685428,-0.5567522503450355,0.030720181208484756
1729576593.9909606,-1.5726069227631851,0.03555082457384064,9.745563642066573,0.0018178708682062114,0.07990771531645606,-0.00014572815083132302,0.9968005974826243,-0.24731426552532412,-0.6294802528616712,0.07802871732977529
1729576593.9989636,-1.2548103694782236,-0.027032378790851866,8.991643225523147,-0.001499432448645444,0.06927281966919559,0.00010412015386012909,0.9975966205417923,-0.3480371981408873,-0.7399503940211916,0.10683952906401163
1729576594.006964,-0.8579916745677937,-0.4526823899209955,8.472253329112716,-0.02665179489849813,0.05035268774584484,0.00134417389584735,0.9983749204892898,-0.4152819986936177,-0.8151719700076066,0.12242325585870531
1729576594.0149786,-0.3910147789105981,-0.871356949821738,7.831656083160989,-0.0553565444149696,0.024749738082389564,0.0013725870248914016,0.9981589149329608,-0.45903439951695224,-0.8368919622190437,0.15688920556178138
1729576594.0229638,-0.2800986988893276,-0.743559562959449,8.466269962152452,-0.043780485621844736,0.016456100388187518,0.0007212455607829706,0.998905373718437,-0.4554875357086107,-0.7647859452534997,0.23631400386538737
1729576594.0309622,0.14677829897695033,-0.895287969220982,9.006731540279754,-0.04951636356118494,-0.008097550305670576,-0.0004014669302942987,0.9987404058327807,-0.4256895634285737,-0.6959809313864513,0.32142960825620975
1729576594.038961,-0.07689351499859544,-0.0932877937396204,12.40181153647254,-0.0037609565333010277,0.003099937750836148,1.1658869613221875e-05,0.9999881226574474,-0.40227680926154513,-0.6483125721442919,0.3865467429189502
1729576594.0469377,0.6596745404149053,-0.8156528630113503,12.840490505867898,-0.03170221696311264,-0.025597501911253914,-0.0008121723171525534,0.9991691937363033,-0.43931196413677176,-0.629928118074085,0.40050131009033463
1729576594.054931,1.2057631458798026,0.4974982065095961,12.839378024223864,0.019340986324505517,-0.04675762143985239,0.0009054988279417408,0.9987185945786506,-0.5368801979406874,-0.49459594768504767,0.3990831789795386
1729576594.0629253,0.8599273821567878,0.493626359208492,13.46431542903627,0.018312004188862866,-0.03185816455515079,0.0005837812072150847,0.9993244653531035,-0.599678038837657,-0.10221721052288016,0.3569403643512439
1729576594.0709312,-0.41179671401647416,0.9663128602028296,13.41718011923817,0.03593609506323511,0.015290968075114883,-0.0005499172971040301,0.9992369493558063,-0.6365053632529147,0.21409114345220637,0.27631496758420293
1729576594.078928,-0.619615806730197,0.944185208797479,12.94333800440423,0.036390485038001026,0.0238360875544517,-0.0008682290339126365,0.999052961412527,-0.6735009100532405,0.4502763725366197,0.1598293196900533
1729576594.0869257,-0.698817430815462,0.4884601511573937,12.132308370269492,0.020109685021564627,0.028735056313371712,-0.000578208765823185,0.9993845920273255,-0.724645162312854,0.6124206329374452,0.04438909437712615
1729576594.0949337,-0.4224029206474803,0.6057588275108424,10.632464447210522,0.028445871201445566,0.01981195867317809,-0.0005639074347357773,0.9993988196478562,-0.7987520999377494,0.7446137742178272,-0.1419398077126888
1729576594.1029592,-0.4049947174763788,0.4439004722877554,9.874534251822405,0.022455125652923548,0.020468291784155997,-0.0004598304155181678,0.999538195828123,-0.8040527768581798,0.8396801912601515,-0.23628385644663452
1729576594.1114333,-0.8202388507494992,-0.03221666364883113,9.897419365790707,-0.001626075495834916,0.04133048175679382,6.726404784329442e-05,0.9991442051234551,-0.7765834985851716,0.9018283222230905,-0.25670663046272924
1729576594.1189766,-1.6861316783696212,-0.2264284417928143,10.203243036710752,-0.011055191898529817,0.08177092689232966,0.0009070869796862497,0.9965894216980568,-0.6911401416645178,0.9301777095101511,-0.2557639029670631
1729576594.1269605,-2.1350384259670854,-0.2213300643432667,10.195201106450279,-0.010792603989323326,0.1030036653213425,0.0011176889292746498,0.9946217951568103,-0.6249749753609543,0.9373964704687607,-0.27094879874375855
1729576594.134967,-2.44508390274822,0.03623259860107124,9.506113113821339,0.0018900388774556332,0.12554403435813194,-0.0002391758913877512,0.992086219027872,-0.5908098463778225,0.9383222065522304,-0.3119864908194282
1729576594.1429622,-2.390733342137213,0.5422390000786115,8.66337996057796,0.030955564343590872,0.13390867589280764,-0.004184970666559243,0.9905012395637498,-0.5617969677587029,0.9333436774033057,-0.39237450411635616
1729576594.1509345,-2.4696928031338903,0.9341888822249013,8.200356858182712,0.05606222427214188,0.14463246002872662,-0.008208047626231455,0.9878618863332386,-0.5435378604643071,0.9452557120651219,-0.4525266338154498
1729576594.158938,-2.7440387971147087,1.291223676014628,8.088940012126423,0.07798939012131756,0.16041553477138934,-0.012715667092985945,0.9838815086395792,-0.5547182792836952,1.036263874970232,-0.4911720520036782
1729576594.1671185,-2.864593082956325,1.4803054348568236,8.321843952344214,0.08668588693672304,0.1620238260791882,-0.014289994324997253,0.9828680648239855,-0.5925019050620564,1.1355662291668112,-0.5113794724863809
1729576594.1749268,-3.3171248780941074,1.5836988431894847,9.85261748102567,0.07853726997632565,0.15926448813877414,-0.012711260861296824,0.9840249711719089,-0.6598695369825864,1.2304799167861074,-0.49115148010488824
1729576594.1829305,-3.44451301523537,1.5707963762261907,9.870143513517744,0.07770011373514148,0.16467446098533933,-0.013013901489281353,0.9831966500109535,-0.7088039173641452,1.192499245651652,-0.4368713685912515
1729576594.1909318,-3.544648493955675,1.4778213169466519,10.251999810503223,0.07050935946584275,0.1636956316628943,-0.01173072812470806,0.9839179642733772,-0.7458269666993969,1.0662681580357052,-0.34513238313984707
1729576594.1989374,-3.52141156341442,1.0545263265449443,10.44615824445623,0.04959800141087065,0.16089448306189208,-0.00809588590232282,0.9856913615365361,-0.7535673342108389,0.8449435044461223,-0.09001466298184954
1729576594.206966,-3.773225789367011,0.913316230497279,11.011566116107332,0.040781801247098806,0.16365429482071764,-0.006771276694443887,0.9856511889536294,-0.7369270516446025,0.6989523203870497,0.12861223857810183
1729576594.2149353,-3.7655787548702064,0.7943530891284455,10.870773406236664,0.03593864705997966,0.16544269084027496,-0.00603298784847168,0.9855459059590516,-0.6775628349752649,0.569214293866865,0.29384358443103514
1729576594.222938,-3.2957971516037645,0.6284042387309736,9.83651798173028,0.031461825889759404,0.16056343501707943,-0.005120693527010625,0.9865106767516513,-0.6010780590733074,0.3772865414829296,0.49812783712391695
1729576594.2309387,-2.697414730171243,0.6983444060315529,9.006232661596762,0.03825946064598058,0.14447344177598045,-0.005590350944495572,0.9887529450114413,-0.5347540705819553,0.2063644920010423,0.6854032780818748
1729576594.2389402,-2.583072686979699,0.6543566668122912,8.234883060092823,0.039163735362468005,0.15083074225546714,-0.005980261257324489,0.9877654202787307,-0.4617558526931057,0.030592571740440444,0.8714129232895811
1729576594.247085,-2.5455920826468037,0.6181477964740935,7.481417217647491,0.04063419895226548,0.16260060107038646,-0.006702099651164814,0.985832129861531,-0.4098688107920172,-0.09572939342756019,0.9821673302912808
1729576594.2549312,-2.383761183425973,0.4951477440465655,7.41360707863537,0.03292102373177927,0.15451660206525775,-0.005151610162323434,0.9874281172801359,-0.34851259128755996,-0.21792278922772207,1.0026454478544011
1729576594.262922,-1.910054722750896,0.40195467914278304,7.461745876819893,0.02668603780402822,0.12475396333482,-0.0033566358996045243,0.9918230875584687,-0.2967997074337145,-0.3750997688158394,0.9327741365301012
1729576594.2709332,-1.413225738923975,0.4758045701809823,7.823183766326311,0.03024217631879575,0.08903858652991155,-0.002704715289832471,0.9955652793239925,-0.25853524607655265,-0.5187860036983054,0.8380657821142294
1729576594.278925,-1.463245270014541,0.39537659830976124,7.6919295786434425,0.025557665965836588,0.09370283478024588,-0.0024062090279251248,0.9952692071106384,-0.2134406860662299,-0.6735338445231722,0.711427599384933
1729576594.2869222,-1.6376273487763027,0.43163513379054425,7.914128214715363,0.027092531843646666,0.10166131967080316,-0.0027696445153220163,0.9944462277420286,-0.17574169852348548,-0.7863899819068078,0.6128831164898676
1729576594.2949314,-1.611772605554844,0.46727662470792025,8.508570636104608,0.027303566813740177,0.09329682393655603,-0.0025594663943304913,0.9952606025631554,-0.1271552122486549,-0.894544220175882,0.41668422696205415
1729576594.302932,-1.1698524439481406,0.6902532990435022,8.11465386847917,0.04230416821756381,0.07121073138486934,-0.00302291197675263,0.9965592060134877,-0.08778675900866778,-1.0011543891606056,0.10527591528014171
1729576594.3111439,-1.0064539175407592,0.57839421331282,7.797379791790626,0.03693389104343822,0.06392162432350308,-0.0023673408798215727,0.9972684239127373,-0.05267205540520067,-1.0898105141162377,-0.18160623617258315
1729576594.3189366,-0.3582272601924243,0.5392909212982389,7.4061418264903915,0.0363252353027995,0.024083676479869323,-0.0008756776415482541,0.9990493916699401,0.010114392780158701,-1.208134768493308,-0.48144254548282756
1729576594.3269367,0.05632669198024859,0.794274599165662,7.540345523140328,0.05245034788403587,-0.0037092802665173955,0.000194822552972377,0.9986166252826562,0.07077352501032402,-1.2978596838238792,-0.6634727813762843
1729576594.334943,0.47049839800064913,0.8507784789818191,7.520790111735759,0.05626435577233635,-0.030987468435098173,0.0017471005275859004,0.9979333879118657,0.1122772850859676,-1.3470120423461398,-0.753534870146567
1729576594.3429399,0.6416687079898425,0.3364086266957321,8.777504904443798,0.019139326967469335,-0.03644554331746068,0.000698135118054985,0.9991521011051743,0.11504365793532809,-1.3390427320508373,-0.8075721234087365
1729576594.3509364,1.1171480924696866,0.2540387722088455,9.788431618203388,0.012951438994008897,-0.056764591061758816,0.0007364326359200152,0.9983033101700848,0.1060612301083936,-1.3189363036610227,-0.835737574751418
1729576594.358937,1.076824297376343,-0.6831531160692239,12.737474550756016,-0.026763088242113122,-0.042081873944847664,-0.0011276448058449638,0.9987550157121748,0.13515266839065748,-1.2387620367932088,-0.8211357810088364
1729576594.3669336,1.340652480037134,-0.19130125806926868,14.615836485824703,-0.006536777515860532,-0.04571421701937568,-0.0002991428134784133,0.9989331265983677,0.23731985359096008,-1.1361691488053804,-0.7889617513828758
1729576594.374924,1.4805140368504053,-0.5577080619704674,13.556708110977244,-0.02052484140084372,-0.054305115623506484,-0.0011164876277621923,0.9983127960503986,0.3986573291547191,-0.8655995958348259,-0.7611435323780589
1729576594.3829584,1.3139974772860243,-0.43470246657681166,13.915303615365643,-0.01559589494092602,-0.04702861951496427,-0.0007343555544871005,0.9987715142761271,0.5210012181806964,-0.3418470018712284,-0.641009916039895
1729576594.3909597,1.3871883215766927,-0.6594560563621026,12.85171781130923,-0.025592627327438663,-0.053647332401881326,-0.00137540931187406,0.9982309799850262,0.6297398266976313,0.05711687673787447,-0.4671898215475711
1729576594.3989348,1.058804469996797,-0.7054833286414802,11.608551569353896,-0.030311860405424516,-0.04535889166607949,-0.0013769643132850735,0.9985098227032455,0.7435116588144639,0.3765249354581981,-0.21986590420093416
1729576594.4069402,0.8907439991367498,-0.5765189034348881,10.62275281783304,-0.02708153461892344,-0.04173971564705486,-0.0011317780706160355,0.9987607850225128,0.8215656294981901,0.6094617066522093,-0.03273375819990712
1729576594.414943,0.6625361883004094,-0.31095599782265165,9.734392561061153,-0.01595634549137211,-0.03395016289863735,-0.0005421021708007397,0.9992959959906536,0.8730806025845083,0.7517779097373882,0.18809649507352716
1729576594.4229422,0.004393800382589347,-0.3879259583127316,9.01031911451755,-0.02151181415569776,-0.00024353841367471513,-5.24016585527733e-06,0.9997685644754551,0.889090434285128,0.7997069061798368,0.36146089293794276
1729576594.4309413,-0.42592581693841514,-0.23347383548568582,8.506682618612874,-0.013714631245068151,0.02499953013704877,0.000342998826288795,0.9995933246748618,0.8897568420147972,0.8352753450286985,0.43355277704693973
1729576594.438946,-1.0248124835712522,-0.5310574323949271,8.359644988648194,-0.03165410627130311,0.06080123436418627,0.0019291499873642136,0.997645982218283,0.8735547742555796,0.9332406194011812,0.41508284860034333
1729576594.4469464,-1.7906799254454855,-0.9085657484994561,8.664789743433058,-0.05193499432855633,0.10104448893467813,0.005282017951880389,0.9935113828771055,0.8680904342146692,1.050765012506431,0.3988926107948411
1729576594.4549332,-2.283000953314166,-1.6151081710235018,8.982670149770772,-0.08813953485557013,0.12176790109223519,0.0108565717179933,0.9885778348261545,0.8882247835705348,1.1434155315656067,0.41003728112317933
1729576594.462938,-2.768972022183812,-1.8956209450945698,9.074278444842932,-0.10166113613114665,0.14385633096471742,0.014858609608233245,0.9842507765617481,0.9454285396990296,1.11471921083163,0.4486508379298346
1729576594.470931,-3.3686884171677085,-2.079012079996195,9.236503656261227,-0.10879296148117393,0.16905106710674558,0.018778314739936023,0.9794045145585936,1.0069949573096963,1.0932445177766235,0.46713638133774543
1729576594.4789472,-3.457494626228359,-1.8033408734859984,9.181567557526268,-0.09524033620767729,0.17522585745287275,0.017033276259535955,0.9797627492096341,1.0626651705804258,1.0556696783788218,0.37435933238575625
1729576594.4869273,-3.378378999858109,-1.6477543763865208,8.97023787460365,-0.0892232615977319,0.17572103052498006,0.015994162105650935,0.9802578822940624,1.0739314153468378,0.9765079965656904,0.2471771726889414
1729576594.4949305,-3.265787338879709,-1.4105109583514437,9.570798529205549,-0.0720887442159662,0.16163182269254595,0.0118395707027456,0.9841433795011909,1.0445075069824123,0.8230141621737658,0.06401967144388258
1729576594.5029335,-3.569094179450872,-0.5692974429307881,11.033664786468641,-0.025445321399446164,0.15554421206977825,0.004008000438930678,0.9874930225793761,1.1124168643176255,0.6525908902295973,-0.08163279446596336
1729576594.51109,-3.94644513926232,-0.06624527484050412,11.629826425592121,-0.0028084104982912883,0.1628410671502039,0.00046351329601086646,0.9866482072325882,1.186791993574254,0.5120248215315133,-0.16689582370456077
1729576594.5189493,-3.6815655344851264,0.0902579852421819,11.133032836556445,0.003999758152609323,0.1590002359243374,-0.0006441625291382892,0.9872702324922805,1.1867196146747174,0.3425471680202566,-0.23508124370620048
1729576594.5269365,-3.251374723523107,0.002918875617965389,10.50814815652371,0.0001372603205217354,0.1494734886066793,-2.0749888935178445e-05,0.9887657239876367,1.124099748300077,0.192757598968293,-0.28578336712081104
1729576594.534937,-2.959262573371677,-0.10167818634797077,9.919175720086102,-0.005069124588438603,0.14444923273283564,0.0007400019536393055,0.9894989517608953,0.9592465000981454,0.05137536010020902,-0.2932173778506276
1729576594.5429363,-3.0641168775191,0.34935925274199875,9.28591008415127,0.018553268641508667,0.15855689701356585,-0.0029799788186286036,0.9871710117089065,0.8177655450307832,-0.06580642789175577,-0.235952725376523
1729576594.5509388,-2.825120630661851,0.23044510608855862,8.789353081740762,0.012941247549198951,0.1548090593064312,-0.002028047800438501,0.9878575637664812,0.7132952291631125,-0.16293397455904263,-0.1943572028472057
1729576594.558942,-2.6604144877721105,0.1995586261531352,9.016227884200708,0.010946224163843084,0.14293042417637933,-0.001580877436474971,0.9896709427116904,0.5986788521441422,-0.2735703801192446,-0.23325339854892008
1729576594.5673964,-2.3489856946163914,0.206644695955553,9.178449563772377,0.011163110519289076,0.12490769806083596,-0.0014054551114568493,0.9921045694001247,0.503516242122114,-0.3637908668972396,-0.260848016584569
1729576594.5749187,-2.130046116476866,-0.11806697026846509,9.114652799786864,-0.0064319909559286065,0.11452376730653531,0.0007415102411640396,0.9933994092895484,0.3425503011121614,-0.45793802474146755,-0.1926924651750141
1729576594.582926,-1.8442563625130728,-0.11082334988568841,8.719159853700242,-0.006318886702946727,0.10402384511251778,0.0006609138912744586,0.9945545105783145,0.12933165966559318,-0.5386906529513401,-0.069215262405647
1729576594.5909584,-1.5794086453887028,-0.14119310172828803,8.359759801380303,-0.008405637756765366,0.09321261349095726,0.0007869659027944361,0.9956104331638732,-0.030100589750538087,-0.5875679199387257,0.0244528020832267
1729576594.598934,-1.2684682096941593,-0.06771702924986345,8.54131782540826,-0.0039527915384945265,0.07364644233459508,0.0002919040238339676,0.9972765372566184,-0.1466187524118564,-0.6326448124052522,0.12237126679983001
1729576594.606941,-1.1168592925157144,-0.1510029140831212,8.418733339287924,-0.008946913445788927,0.06588581080563305,0.0005907821165990579,0.9977868828816947,-0.21738103013157145,-0.6839552813885039,0.2198601412228369
1729576594.6149495,-0.8944522710660692,-0.42339577921159144,8.119648851229003,-0.026005107326474958,0.054738494490279226,0.0014261030161812438,0.9981610079761999,-0.2615411570092486,-0.7543307384944238,0.34305835521886985
1729576594.6229422,-0.594371622649407,-0.02682772997812674,7.780744327827246,-0.0017226718041635043,0.038111485775076295,6.570141216830423e-05,0.9992720063812434,-0.28037481202953835,-0.839125018904179,0.4514581785949141
1729576594.6309385,-0.2984438732478474,-0.5490459275376572,8.287521826188534,-0.03306494366193652,0.01794771830777018,0.0005938608269223784,0.9992918673928535,-0.2810327535051613,-0.9151173007762919,0.53309998501756
1729576594.6389704,-0.3959809943588647,-0.6873607047159538,11.05354589234398,-0.031042186660471628,0.01786023460201351,0.0005547767156856218,0.9993583375797158,-0.35081499840884633,-0.9666723307600281,0.5178058695903807
1729576594.6469355,0.35713109576749363,-0.8261344697045724,11.144000563970838,-0.0369853055186269,-0.015962571746938683,-0.0005908602901642068,0.9991881376212566,-0.45228095395574175,-0.9550363426040667,0.466911774310794
1729576594.6549327,-0.8374941318461444,1.1125045733042098,13.359998045902035,0.04150685849720398,0.03116273911498043,-0.0012952142791993338,0.9986512838866807,-0.5625405744134746,-0.6632680985923907,0.47255897236731464
1729576594.6629364,-1.610533007427999,1.6067480552618227,14.230867496974817,0.056093640625492935,0.05587574701613244,-0.0031441598888491628,0.9968558163723381,-0.6708396627728554,-0.21831965321845706,0.5202190575932784
1729576594.670931,-1.735337377698987,2.556671777493031,13.344401490616532,0.09430911187035713,0.06318906422558566,-0.0059981879843564465,0.9935174660374239,-0.7541237884313514,0.09377256052087846,0.5156112839348181
1729576594.6789236,-1.5851650438068923,2.4253643445719906,11.400661167807419,0.10436662844326013,0.06716246169458118,-0.007064314959682877,0.9922433703787901,-0.8649679426155195,0.37723384265489895,0.3872680516084427
1729576594.68693,-1.5613810294579635,2.2773874568408505,9.746239255616091,0.1141662356667052,0.07679125183944972,-0.008851501681673604,0.9904498095272692,-0.9489277276459636,0.6026503199253753,0.24257739244015436
1729576594.6949315,-1.5712920576161842,2.487637111555682,8.698998310449733,0.13828343857650802,0.08503922664758491,-0.01191847277239469,0.98666304813417,-0.9754649552223562,0.748968147885674,0.02124493751717936
1729576594.702931,-1.438374978222054,2.3128357557029404,8.741269628359683,0.12855262870947562,0.07813738249035303,-0.01016093167278839,0.9885674112456777,-0.9777652098014069,0.8329276341086949,-0.16774562354959377
1729576594.7110121,-2.0632382791695605,1.4571333015662953,9.603166479164248,0.07479336471905672,0.10416690359884603,-0.007856101414262826,0.9917124030983981,-0.9272111750504695,0.9003309283009886,-0.3045529135700694
1729576594.7189407,-2.333050806857205,0.8991796782054021,10.077448379930189,0.04418389679002492,0.11296294009404648,-0.005028334544567905,0.9926035831496203,-0.8219573033825893,0.8667028341219714,-0.4083474807169184
1729576594.7269423,-2.4259853156572917,0.5840399578021475,9.97152322961827,0.029031934022030092,0.11879845881660325,-0.003475054385142734,0.9924877817821037,-0.7451828984150762,0.7724559069201675,-0.5059564961063764
1729576594.7349355,-2.4910834074119528,0.10860960700550724,9.266800934841275,0.005807310561837724,0.13091717597520222,-0.0007668903586352014,0.9913760033700101,-0.6901787641438657,0.5784098607468491,-0.6083679816706404
1729576594.742938,-2.5981375896131875,0.013451008343929344,8.999590665885233,0.0007396367366614709,0.14006441444912818,-0.0001046281995064013,0.9901421119190217,-0.6558992133967534,0.4168590865278826,-0.684288335098908
1729576594.750943,-2.385839807185881,0.4902628193618263,8.212223089716687,0.029500977656343016,0.14060128531515004,-0.004191391210732057,0.9896178065924068,-0.6515077052840432,0.31567172138188243,-0.7332460676475647
1729576594.7589436,-2.483994934116216,0.6738780749178771,7.740520804513605,0.04286572446111123,0.153953248461724,-0.006685390348175114,0.9871252364874475,-0.6569609115841957,0.37415251950365114,-0.7098351395554668
1729576594.7669344,-2.736100084249027,0.93440309250932,7.843444741008944,0.058394938123113485,0.16566485312751358,-0.00982726801098461,0.9844026678363267,-0.6529961043194326,0.47054036722724496,-0.6830178808563472
1729576594.774924,-2.8069179985474624,1.1723603796755138,9.170774100464742,0.06281289067343994,0.14654945316493792,-0.009324898232861397,0.9871630284888363,-0.6838210447546131,0.5943550353880162,-0.6707587361900336
1729576594.7829256,-2.7047989668530867,1.2356472568580428,10.329175007153845,0.058994826039306815,0.12661980859672475,-0.007544096844469793,0.9901667138286976,-0.7376482841170702,0.670772286591789,-0.6587206587141632
1729576594.7909577,-2.582475405502477,1.282477929310138,10.801075956440746,0.05863974403745688,0.11608852082561223,-0.0068658807752568895,0.9914825744474398,-0.8384807276299315,0.6604315492010645,-0.598712244607349
1729576594.798935,-2.5155456131745333,1.4571014743829578,10.9542113758664,0.0656420184979054,0.11143404000605332,-0.007376912571320774,0.991574082606219,-0.9279271179170665,0.5946304981619455,-0.3719980486082703
1729576594.8069422,-2.5481714682465166,1.137144226914931,11.299399163166324,0.04981138210100569,0.11000005956768821,-0.005519729582748605,0.9926672885179737,-0.9815949520893474,0.527905703604904,-0.09932302127951098
1729576594.8149452,-3.1284690100983004,0.8529931145180992,10.954887773046279,0.03845533177667023,0.1381396658838232,-0.005367755673088023,0.9896513564718061,-0.9933625296425385,0.4384907797410834,0.20390833527729096
1729576594.8229384,-3.242494612846089,0.9142611677831252,10.847061467538705,0.04157345561120144,0.1441194361833916,-0.006060217070188867,0.9886680482708982,-0.9655164911345664,0.3482324801370563,0.3918068100718406
1729576594.8309371,-2.732470853401013,0.8710556642929219,10.115580521880645,0.042550150853718285,0.13095091443890094,-0.005625653639444701,0.9904593352031523,-0.891766399793871,0.17786411359550547,0.5730819948439575
1729576594.838936,-2.3833609678511545,0.8640465553140343,9.258424924456511,0.04613043991260618,0.12499127589815817,-0.005817869113489206,0.9910677655245367,-0.8138868301339532,-0.02226562046569229,0.7963577322405141
1729576594.8469522,-2.2991117833474113,0.8131541575536548,8.68451594466414,0.04626027762597919,0.12836486732829916,-0.005994365482632048,0.9906293530540149,-0.7492801057565972,-0.1738445254506013,0.9724664907631893
1729576594.854938,-2.122387845154931,0.8539659283700836,8.107454155421532,0.0520055655724125,0.1268256416897747,-0.0066586405568395905,0.990538409283257,-0.673906725844449,-0.3294967577837755,1.0764289856309461
1729576594.8629463,-1.9222613569953024,0.8267382350005656,7.934796702237294,0.05150797863873117,0.11778887947480779,-0.006117949748305079,0.9916830535506284,-0.614634925868913,-0.449280880994326,1.1000686869585554
