Time,Accel_x,Accel_y,Accel_z,Orientation_x,Orientation_y,Orientation_z,Orientation_w,Gyro_x,Gyro_y,Gyro_z
1729503117.5593898,-0.13545229475610315,0.031544954669010826,9.771259253822674,0.0016141237603478598,0.006930614029221121,-1.1187152034664738e-05,0.9999746802137102,-1.8278854344467848e-21,0.01976023586054664,0.004614301635559452
1729503117.5673895,-0.13035251088686503,0.02826435927601587,9.7976259807604,0.0014423708768674587,0.006651773685861993,-9.594546888033567e-06,0.9999768364222396,-1.0967312606680709e-21,0.01951856262264455,0.004471341227183797
1729503117.5753953,-0.12777148089735338,0.024620060878109522,9.7914193616496,0.0012571955427221222,0.006524223566418441,-8.202405841540716e-06,0.9999779267058565,-6.580387564008425e-22,0.01979924874136533,0.0026828047363102784
1729503117.5833974,-0.12263156041341203,0.030334347317881337,9.78266756669679,0.0015503756070857253,0.006267390620068031,-9.7170120612358e-06,0.9999791578107377,-3.948232538405055e-22,0.019967660412597798,0.001609682841786167
1729503117.591388,-0.1240965912773441,0.036635961173931926,9.791063439187996,0.0018708388553291672,0.006336800461267359,-1.1855391299080768e-05,0.9999781721524431,-2.368939523043033e-22,0.020920087538261342,0.0035199500738438898
1729503117.5993853,-0.1333553156062502,0.03682562699732791,9.77958097122764,0.001882725918963267,0.006817512776722287,-1.2835829056890664e-05,0.9999749880361483,-1.4213637138258197e-22,0.021491543813659468,0.005091800474540555
1729503117.6073842,-0.14082591153171886,0.04268551047574049,9.776761633273692,0.002182934176653274,0.007201427422660585,-1.572068714777502e-05,0.9999716865963338,-8.528182282954918e-23,0.021834417578898344,0.005183530592034491
1729503117.615393,-0.12783059696785945,0.036385213756147415,9.774830610335309,0.001861117461526699,0.006538286850896002,-1.216880100893801e-05,0.9999768931824224,-5.1169093697729507e-23,0.0224658318995037,0.0031101183552206947
1729503117.623391,-0.13775050051470003,0.03140793489431345,9.780375761220716,0.0016056133409004438,0.007041619383866654,-1.1306412913651484e-05,0.9999739183970836,-3.07014562186377e-23,0.02114192024601879,0.003994521320442575
1729503117.631386,-0.13173143434202314,0.029618668407291195,9.785139372748056,0.00151341068186064,0.0067307027133810095,-1.0186559789575168e-05,0.9999762032795211,-1.842087373118262e-23,0.020347573253927845,0.004525163099575703
1729503117.639382,-0.12931709546849512,0.033333511835390336,9.784885077506255,0.0017032703874990567,0.00660752208745044,-1.125465872120875e-05,0.9999767194265993,-1.1052524238709572e-23,0.020296655120135308,0.004417858105593548
1729503117.6473796,-0.1400789206111752,0.03340763639810921,9.79095742467758,0.0017059925943511665,0.007152883249352666,-1.2203095793036375e-05,0.9999729624852732,-6.631514543225743e-24,0.020691794301321818,0.004779165170666287
1729503117.6553783,-0.13408616706397072,0.03273385063769365,9.77855968185733,0.0016737083034615763,0.00685559935587934,-1.1474559291089874e-05,0.9999750993531394,-3.978908725935446e-24,0.020928877810033723,0.0054216394711719615
1729503117.6634054,-0.13049051493564806,0.029456537189256816,9.781416103303851,0.0015056999553291484,0.006669845456352582,-1.0043020784483218e-05,0.999976622690936,-2.3873452355612675e-24,0.020645437853798833,0.005381433990013335
1729503117.671399,-0.13144558581685759,0.024138266795975964,9.782172275507701,0.0012337569039142541,0.006718149243258356,-8.288756371741053e-06,0.9999766718508707,-1.4324071413367604e-24,0.0204753738800579,0.005357310701318159
1729503117.6794083,-0.12220240153894268,0.013285859247507454,9.784541340158135,0.0006789066661286069,0.006244294399309793,-4.239376720037833e-06,0.9999802737330478,-8.594442848020562e-25,0.02079902555727537,0.005768526789563085
1729503117.6873946,-0.1317399614311781,0.020421364181316973,9.788835820940584,0.0010430683712643856,0.00672861710476312,-7.018570384847519e-06,0.9999768185667955,-5.156665708812337e-25,0.020993216563605855,0.005589566381048009
1729503117.6954165,-0.13530771587237872,0.019674843655274558,9.789975988413959,0.0010048198975945292,0.006910010976500323,-6.943485798959165e-06,0.9999756207213585,-3.093999425287402e-25,0.021109731167404146,0.005482190135938964
1729503117.703384,-0.1309840240546772,0.026648956486133486,9.786111105743688,0.0013615348085127396,0.006691862428102634,-9.111416087028047e-06,0.9999766822867374,-1.8563996551724412e-25,0.021179639929683122,0.004992074327411505
1729503117.7113965,-0.13150227112225946,0.03586124767097697,9.791932461786056,0.0018311108019361374,0.006714316942437474,-1.2294956038668165e-05,0.999975782121778,-1.1138397931034646e-25,0.020795895125588472,0.004698004842295029
1729503117.7193954,-0.13420742102296504,0.038515580389695554,9.79590411574351,0.0019658429163446098,0.006849632132730596,-1.34656427193822e-05,0.9999746085876137,-6.683038758620788e-26,0.020991338304593717,0.004521563151225144
1729503117.7273993,-0.14061891428370088,0.02574297005998921,9.805469713098448,0.0013126457026485458,0.007169848528157359,-9.411720884131808e-06,0.999973434719524,-4.0098232551724725e-26,0.02068291415053483,0.004415698136583213
1729503117.735396,-0.1384803060897518,0.0209524458543529,9.798519802712585,0.0010691342357163275,0.007065839650535639,-7.554523978661735e-06,0.9999744650764578,-2.4058939531034834e-26,0.0204978596580995,0.0026494188819499273
1729503117.7433808,-0.1400701831655698,0.023105954817299244,9.7979411589713,0.0011790891808602722,0.007147367014772412,-8.42760424167115e-06,0.9999737620670031,-1.44353637186209e-26,0.0203868269626383,0.0015896513291699564
1729503117.7513857,-0.13527802542668563,0.01218763172827017,9.786341224923795,0.0006226699873980815,0.006911071211012542,-4.3034202313384875e-06,0.9999759243893244,-8.66121823117254e-27,0.02032020734536158,0.0026565510433501
1729503117.7593946,-0.13599403327358947,0.005157797542821477,9.78608502914373,0.00026352047416927573,0.006947832658698559,-1.8309404127044351e-06,0.9999758287953535,-5.196730938703524e-27,0.02028023557499555,0.003296690871858186
1729503117.7674162,-0.13187465482743493,0.013150325498349135,9.782340009185456,0.0006721298753739125,0.006739978345059909,-4.530244728026394e-06,0.9999770601932905,-3.118038563222114e-27,0.02068194257423796,0.0036807747689630377
1729503117.775383,-0.13467027141208596,0.01770642210565011,9.797331249163618,0.0009036116628078681,0.006872302899419068,-6.210042233104544e-06,0.99997597716158,-1.8708231379332684e-27,0.021348656835245443,0.003911225107225949
1729503117.783382,-0.1250948935601422,0.018764138907921314,9.80273469066028,0.0009570653761140492,0.006380207796640626,-6.106403059499554e-06,0.9999791882519603,-1.122493882759961e-27,0.0213229953303879,0.0023467350643355694
1729503117.7913961,-0.12701111216147595,0.018201668159205913,9.801427772403981,0.000928499793706279,0.0064787929031289064,-6.0156867221027e-06,0.9999785813178514,-6.734963296559766e-28,0.021307598427473373,0.0014080410386013416
1729503117.7993894,-0.11954171734571369,0.0267227318525548,9.806629125600592,0.0013624529361573122,0.006094576464095243,-8.303735523432022e-06,0.9999804997052533,-4.040977977935859e-28,0.020872670224262625,0.000844824623160805
1729503117.8073852,-0.11362355946016259,0.01890668110372038,9.796821248553714,0.0009649213572572599,0.005798695370201705,-5.59538168469952e-06,0.9999827218644679,-0.0017027602458481264,0.02146309342526024,0.002209655019744609
1729503117.815382,-0.13449352166242567,0.02906110094738848,9.792851883653713,0.0014837502306883678,0.006866399661042564,-1.0188273475046028e-05,0.9999753251641497,-0.002724416393357002,0.022243037407320837,0.003879933380618955
1729503117.8234,-0.13672043184511165,0.032041290695386214,9.7933433067059,0.001635822893961044,0.006979716830308299,-1.1417873984662996e-05,0.9999743034228732,-0.0033374100818623275,0.021859623673633137,0.004030720274219499
1729503117.8314364,-0.14715454426331698,0.03550534570629423,9.786455555556744,0.0018139420769761796,0.0075175766246459745,-1.3636856335327534e-05,0.9999700972878489,-0.003705206294965523,0.021629575433420513,0.004121192410379826
1729503117.8393807,-0.1392892219193183,0.03734435854682341,9.78495652669342,0.001908192993340971,0.0071169131291500334,-1.3580812435894891e-05,0.9999728537128264,-0.002223123776979314,0.02149154648929294,0.004601165753538054
1729503117.8473802,-0.13409118818088786,0.035814144424969045,9.785493630371521,0.0018299071953213342,0.006850989329569678,-1.2536989883052781e-05,0.9999748572977655,-0.0013338742661875883,0.020983039061354365,0.004889149759432991
1729503117.8553874,-0.12809932594564208,0.0375296377780283,9.776957346435802,0.0019192368164960855,0.006550601400998373,-1.2572448282768852e-05,0.999976702725249,-0.0008003245597125529,0.02067793460459122,0.005061940162969953
1729503117.8633864,-0.1309685530869165,0.03544647163166073,9.779257601220857,0.001812278194429151,0.006695736800378044,-1.2134829750646724e-05,0.9999759410151786,-0.00048019473582753175,0.020920561991995365,0.005591304466554162
1729503117.8714194,-0.12718342555332177,0.027971647627433937,9.797157745546967,0.001427503267850003,0.006490389578001687,-9.265256925285136e-06,0.9999779182520487,-0.00028811684149651905,0.02106613842443785,0.005908923048704686
1729503117.8794067,-0.10935003824214931,0.023007912892866612,9.787068277699275,0.001175402644074007,0.005586174476662115,-6.566111235800328e-06,0.9999837063873724,-0.00017287010489791142,0.021153484283903345,0.005248114075070937
1729503117.8873863,-0.11804303930271147,0.017635470391969967,9.78149343732269,0.0009014530937255565,0.006033657033674205,-5.439160016842591e-06,0.9999813909946201,-0.00010372206293874685,0.02163158186104467,0.004851628690890689
1729503117.8953824,-0.11799159628670501,0.027580114022291356,9.789401280899474,0.0014086413624408048,0.006026138897634291,-8.488831064143112e-06,0.9999808504703669,-6.223323776324811e-05,0.021918440407329466,0.004613737460382539
1729503117.903382,-0.116763629647023,0.025167194389937312,9.788399903061169,0.0012855352633887218,0.005964045114900627,-7.667133003879357e-06,0.999981388579892,-3.733994265794886e-05,0.021664865473638314,0.004896692783539682
1729503117.9113839,-0.12512481597180755,0.03066262742497801,9.782771252871857,0.001567135817022425,0.006394730559938133,-1.0021628514793956e-05,0.9999783254680892,-2.2403965594769316e-05,0.021512720513423622,0.005492156038895999
1729503117.919389,-0.11912820012995953,0.023185979775299303,9.792083331557098,0.0011838892794200555,0.00608252439608541,-7.201173683693079e-06,0.9999808004413325,-1.3442379356861589e-05,0.021421433537294806,0.005423743930647758
1729503117.927393,-0.11624849112289758,0.023967234837835832,9.780671746981133,0.0012252093407195072,0.005942429121642876,-7.2808536850510325e-06,0.9999815930031886,-8.065427614116954e-06,0.021366661351617515,0.005808386727160844
1729503117.935378,-0.12122443036709792,0.032576273519888996,9.773824796235555,0.0016664656414469574,0.00620108293850267,-1.0334104699870315e-05,0.9999793844654308,-4.839256568470172e-06,0.020908107978749108,0.005613482343606665
1729503117.9433722,-0.11750622926518062,0.028883150586542772,9.782645314753053,0.0014762118808934795,0.006005493823524154,-8.865550867083135e-06,0.9999808771990694,-2.9035539410821035e-06,0.020207285893566032,0.005496539713474157
1729503117.9513998,-0.1272463169048115,0.02738553732458191,9.780994441049096,0.0013999013348740736,0.006504329346360335,-9.105620871854266e-06,0.9999778667016057,-1.742132364649262e-06,0.01978679264245619,0.005426374135394652
1729503117.9594004,-0.13237210899054314,0.0303176920236554,9.764441606035708,0.0015524112596586334,0.006777765448908507,-1.0522133764377733e-05,0.999975825609842,-1.0452794187895572e-06,0.020811566876176378,0.004958584727084918
1729503117.9673789,-0.12730729859745088,0.025373220194661986,9.782522064451502,0.0012968331405312562,0.00650643455112276,-8.437945654995719e-06,0.9999779919888431,-6.271676512737342e-07,0.021852121477870523,0.004677911082099077
1729503117.9754088,-0.12929623584792366,0.025997839587500314,9.791933818504887,0.0013274794411730652,0.006601720142948759,-8.763846466648572e-06,0.9999773272493144,-3.7630059076424053e-07,0.022050764177424978,0.0028067466492594463
1729503117.9834363,-0.13839046367672295,0.036907098527890814,9.775793635829494,0.0018876186045012995,0.007077626498209712,-1.3360217886995604e-05,0.9999731716004487,-2.2578035445854432e-07,0.021318569674233588,0.0016840479895556678
1729503117.9914167,-0.1244539669267369,0.03770656990775011,9.78622082016957,0.0019264621151339502,0.0063581880846795315,-1.2249078793701589e-05,0.999977930775454,-1.3546821267512659e-07,0.020879252972318754,0.002713189039581527
1729503117.9994125,-0.11968337136697962,0.04058045439582194,9.78673104678924,0.0020731847899298776,0.00611416485608076,-1.2676057762582064e-05,0.999979159148958,-8.128092760507595e-08,0.020189972889707822,0.004182053792521106
1729503118.0074077,-0.12424303917760963,0.038952902764446296,9.78727660292706,0.001989923093341556,0.006346724794335526,-1.2629773614501995e-05,0.9999778793208159,-4.8768556563045566e-08,0.020627784963065325,0.005063372644284853
1729503118.0154233,-0.1255423188678939,0.0398917331137459,9.779703071131236,0.0020394601682919835,0.006418050500860108,-1.3089655172047872e-05,0.9999773242722313,-2.9261133937827338e-08,0.02131616226854186,0.005592163955343101
1729503118.0234065,-0.13350449166253323,0.023935039868247538,9.798143287991241,0.0012213747037534074,0.006812244749637578,-8.320502685185808e-06,0.9999760504612464,-1.75566803626964e-08,0.021303498590365746,0.0063351288034400825
1729503118.031513,-0.14666150114986368,0.012206242426807899,9.784068300675603,0.0006237629600014392,0.007494275285840913,-4.674783524364451e-06,0.9999717229681327,-1.053400821761784e-08,0.021295900383460083,0.003801077282064049
1729503118.039384,-0.13659919439109008,0.01785823276077224,9.77466562762216,0.0009134715066661915,0.006986883847586438,-6.382477765378759e-06,0.9999751741834249,-6.320404930570703e-09,0.02129134145931668,0.0022806463692384292
1729503118.0474055,-0.13918093631238843,0.032502174763885214,9.779079670762748,0.001661771120353756,0.007115669839747445,-1.1824930338292775e-05,0.9999733024534436,-3.7922429583424215e-09,0.020437225981906577,0.003922528190315248
1729503118.0554109,-0.14432128395540178,0.02859927116692488,9.785558819303352,0.0014612538494322798,0.0073735565827237745,-1.0774942362339062e-05,0.9999717472430956,-2.2753457750054527e-09,0.019924756695460517,0.004481967221499307
1729503118.0633826,-0.14405361021699106,0.02027202485835805,9.783460804277324,0.0010360046081224303,0.007361480594559355,-7.62673856641833e-06,0.9999723672380857,-1.3652074650032716e-09,0.01961727512359288,0.004817630640209743
1729503118.0715206,-0.13048547667706964,0.02317654255173358,9.789384600242174,0.0011837290871735341,0.006664174114019438,-7.888757444647581e-06,0.9999770934909428,-8.191244790019629e-10,0.019007096119010265,0.005870408814360067
1729503118.0794148,-0.1386251678421793,0.023003891839633896,9.778573667860147,0.0011762064673898637,0.007087651387637311,-8.33675656826022e-06,0.9999741905002608,-4.914746874011778e-10,0.01949236883918476,0.005650695595926198
1729503118.0873823,-0.12914377258030757,0.028406965230733463,9.77879087307937,0.0014524408845508297,0.006602792083662232,-9.590384348645997e-06,0.9999771464689587,-2.9488481244070666e-10,0.019783532471289455,0.005093177603403845
1729503118.0954218,-0.1220184144270908,0.038352573913830706,9.797595969160122,0.001957193399697188,0.006226535072878937,-1.2186792932083105e-05,0.9999786995263772,-1.76930887464424e-10,0.019532540589090243,0.004758666807890433
1729503118.103381,-0.13498145148828572,0.02013850235611092,9.774163102736308,0.0010301634448852267,0.006904501156587454,-7.112938017706331e-06,0.9999756329913553,-1.061585324786544e-10,0.019807635521232745,0.00285520008473426
1729503118.111381,-0.1353372485785183,0.023575269382416553,9.778059895333191,0.0012054861188819758,0.006919932845543086,-8.342088785498253e-06,0.9999753303272235,-6.369511948719263e-11,0.02039838254198028,0.001713120050840556
1729503118.119382,-0.13650840749672036,0.022046027107965556,9.784946954045617,0.00112649703288523,0.006974897938862616,-7.857397949064741e-06,0.9999750405592325,-3.821707169231558e-11,0.020327140692966768,0.0010278720305043336
1729503118.1273825,-0.1355351616855322,0.018734280083138707,9.790036869937136,0.0009567781962541734,0.006921583300312733,-6.6225816570169785e-06,0.9999755878101432,-2.2930243015389346e-11,0.020710085645020693,0.0006167232183026002
1729503118.1354153,-0.12226194539999119,0.023211576350664474,9.773458365858765,0.0011874535210441262,0.006254405340921161,-7.426966144519243e-06,0.9999797359510877,-1.3758145809233607e-11,0.02093985261625305,0.0003700339309815601
1729503118.143421,-0.11741047778686971,0.020630710458836188,9.783143717025025,0.0010543793692302328,0.006000311042406303,-6.326721582848044e-06,0.9999814420835582,-8.254887485540164e-12,0.02107771279899246,0.0032018507888231574
1729503118.1514044,-0.1286253870139187,0.030574358892489214,9.78512420506853,0.001562246917793676,0.006572030464332994,-1.0267368601072088e-05,0.9999771835870681,-4.952932491324098e-12,0.020734738847174077,0.0049009409035281155
1729503118.1594043,-0.13535433255014812,0.03007620347025915,9.784157716400493,0.001536941124302581,0.006916477861007292,-1.063048608828476e-05,0.9999748997014732,-2.9717594947944587e-12,0.02095464453754508,0.005069014849427027
1729503118.1674194,-0.13220909489141697,0.03288977237512424,9.790999848346155,0.001679545205595681,0.006751053309919934,-1.1338973612960224e-05,0.9999758008464688,-1.783055696876675e-12,0.02151227801322971,0.005169859216966374
1729503118.1754014,-0.1387016581067252,0.027634728903590172,9.80013295099988,0.0014098751074949696,0.007075952556829118,-9.976469047353123e-06,0.9999739711852829,-1.069833418126005e-12,0.02142116803717846,0.004804675776027951
1729503118.183434,-0.15313168334059762,0.031424887635122856,9.783825577484693,0.0016059038068671392,0.00782498778184185,-1.256657860761132e-05,0.999968094731656,-0.0017027602464900263,0.020940811990085677,0.0028828054656167704
1729503118.191391,-0.14814274901803043,0.03441724337208934,9.775238254205659,0.0017603691621191004,0.007576738311461493,-1.3338260001700074e-05,0.9999697465218953,-0.0010216561478940157,0.020652598361830005,0.0038581335866802206
1729503118.1994162,-0.14443112792644328,0.0378885979763786,9.781817448373005,0.001936619210246165,0.007381959865457256,-1.4296461632541999e-05,0.9999708775610371,-0.0006129936887364094,0.020479670184876602,0.0052947105822423535
1729503118.207412,-0.13980995361133472,0.040689671236999035,9.776188158232786,0.0020809913118221054,0.007149909382183411,-1.4879311853789782e-05,0.9999722736404209,-0.00036779621324184566,0.020801603340166595,0.0053052766566555705
1729503118.2154112,-0.12626334155156643,0.031356987556652546,9.77640188663889,0.0016036670285744792,0.006457111439907604,-1.0355285912832502e-05,0.9999778666833992,-0.0002206777279451074,0.02099476323334059,0.0053116163013035
1729503118.2234068,-0.10975566850515861,0.031024621000788403,9.786825190821224,0.001584987791456739,0.005607017655058419,-8.88720539539584e-06,0.9999830243997817,-0.00013240663676706443,0.021110659169244986,0.005315420088092259
1729503118.231505,-0.12139887961872017,0.03082520106726992,9.780150484365782,0.0015758688441749353,0.00620599410012717,-9.780033231604793e-06,0.9999795008793761,-7.944398206023865e-05,0.021180196730787623,0.0048920122987034815
1729503118.2394068,-0.12192046180443523,0.043155397739971325,9.772314937836265,0.0022079829233135045,0.0062376141684637836,-1.3772847079206429e-05,0.9999781081559758,-4.766638923614319e-05,0.02207329939063727,0.005063657686532247
1729503118.2474055,-0.114093125471333,0.039779608272889046,9.78604896270176,0.0020324167135225696,0.005829019081731464,-1.1847221546167518e-05,0.9999809456577113,-2.8599833541685912e-05,0.021757780863622997,0.0051666449192295065
1729503118.2554035,-0.12543787479451854,0.02721964728795218,9.798120100277306,0.0013889903544647161,0.006400695224311416,-8.890694628203023e-06,0.9999785506336605,-0.0017199201459731379,0.02156846974741443,0.005228437258847862
1729503118.2633781,-0.13008994289428924,0.021599032025115057,9.7818996065531,0.0011040031513325495,0.006649062281026388,-7.340752454730125e-06,0.99997728528899,-0.0010319520875838827,0.02145488307768929,0.004839822601156844
1729503118.2713718,-0.12689567960376105,0.022536225855694033,9.788208461441625,0.0011511651397386362,0.0064816387451543086,-7.461598254738067e-06,0.9999783313263957,-0.0006191712525503296,0.020961041014392175,0.004606653806542233
1729503118.2794034,-0.12258491996928789,0.02381680265208829,9.798458118857162,0.0012153067884823157,0.0062549266266645615,-7.601809113451529e-06,0.999979699226198,-0.00037150275153019773,0.021090425837875938,0.004892442591235498
1729503118.2873843,-0.13460309431555711,0.0423022410150811,9.795270526831874,0.0021592515873964315,0.006870254111481152,-1.4834991794454832e-05,0.9999740681742447,-0.00022290165091811863,0.021168056731966194,0.004638225800589426
1729503118.295414,-0.14085631825925612,0.03256394958951741,9.799822316099126,0.0016614046287443717,0.00718607087071442,-1.1939296160496304e-05,0.9999727996188466,-0.00013374099055087118,0.020788945206958315,0.0044856957262017815
1729503118.3033862,-0.13910158880711618,0.03270647888456982,9.794413104014943,0.0016695990000518191,0.007100481576824705,-1.1855272321903057e-05,0.9999733973761545,-8.02445943305227e-05,0.020987168353415624,0.004394177681569195
1729503118.3113804,-0.1406823729620041,0.028482433473320017,9.784703232282013,0.001455413464249698,0.00718829792070098,-1.0462226964020387e-05,0.9999731046559168,-4.814675659831362e-05,0.021106102241290007,0.004764956916251675
1729503118.3193831,-0.12822331415806182,0.03193351037696076,9.77361006558991,0.001633616846699818,0.006559202936020818,-1.071546922540921e-05,0.9999771537580351,-2.888805395898817e-05,0.021177462574014635,0.004561734395599131
1729503118.327384,-0.13870439132686832,0.03280705568906708,9.769827207566836,0.001678947680137756,0.007098023761699943,-1.1917527544370765e-05,0.9999733991718671,-1.7332832375392902e-05,0.020368898650725352,0.004439800883207605
1729503118.335408,-0.14786607962033974,0.024712056899768374,9.785514005204165,0.001262645189986196,0.007554678840067919,-9.539158722876527e-06,0.9999706658016284,-0.001713159945273362,0.01988376029675178,0.004366640775772689
1729503118.3433738,-0.14498338678587572,0.031107805428923527,9.79660202494867,0.0015876322293267768,0.007399022984918868,-1.1747263722103726e-05,0.9999713664624477,-0.0010278959671640173,0.020444057407291702,0.002619984465463613
1729503118.3513684,-0.14181725008910354,0.04069133853079162,9.797508752810998,0.0020765466095114824,0.007236767222413526,-1.5027910359620971e-05,0.9999716580626218,-0.0006167375802984104,0.020780235673615654,0.003700440986588326
1729503118.3594089,-0.14326945039525898,0.033273349261053096,9.791109604713943,0.0016991066641231162,0.007315662904497997,-1.243044217447446e-05,0.9999717965814315,-0.0003700425481790462,0.020556252571947993,0.004348714899263154
1729503118.3673825,-0.14007062775668663,0.036723421177725604,9.798044023326414,0.0018739583186273858,0.007147276767967908,-1.3394064387438834e-05,0.9999727018952174,-0.00022202552890742772,0.020847552772409426,0.00473767924686805
1729503118.3754098,-0.1417426366637776,0.029695498019135364,9.80028931316577,0.0015149852940655223,0.007230945012018926,-1.0955074333685734e-05,0.9999727086944815,-0.00013321531734445663,0.02102233289268629,0.004971057855430988
1729503118.3834336,-0.14537946383420405,0.030267147444293718,9.78535591578032,0.0015465033034068446,0.007427760641534687,-1.1487387000520411e-05,0.9999712178695067,-7.992919040667398e-05,0.020275820841928343,0.005111085020568751
1729503118.3913913,-0.13894243415989743,0.027018834609154354,9.778790079009207,0.0013814617166618337,0.007103703669335054,-9.81375164773512e-06,0.999973814087846,-4.795751424400438e-05,0.020253603672935605,0.005195101319651408
1729503118.3994138,-0.1346013760232822,0.027942888900258235,9.792807089397712,0.00142666536504023,0.006871939534804833,-9.804199600578053e-06,0.9999753701851081,-2.8774508546402627e-05,0.020665963433001998,0.004819821037638971
1729503118.4074087,-0.12625065715693806,0.024187758486639316,9.78397904367769,0.0012360604737263257,0.006451480123516344,-7.974591629405779e-06,0.9999784250148236,-1.7264705127841576e-05,0.02091337928904183,0.004594652868431508
1729503118.41541,-0.1291410913156472,0.03558162970135859,9.774372653257394,0.0018200986802455786,0.006605619293998617,-1.2023161188859676e-05,0.9999765261694799,-1.0358823076704945e-05,0.02106182880266573,0.002756791721058905
1729503118.4234054,-0.11866492334407583,0.026137381141127656,9.788959533116545,0.001335014814919066,0.0060608002146915665,-8.091413901327377e-06,0.99998074199993,-6.215293846022967e-06,0.020725208449378037,0.0033568352784834696
1729503118.4314246,-0.11980124770761735,0.020470832004989094,9.805373106344536,0.0010438359207561093,0.00610860058003327,-6.3764991557277125e-06,0.9999807974980641,-3.72917630761378e-06,0.020097546175943393,0.00414255147440024
1729503118.439373,-0.11928594149566416,0.026168868831899703,9.785293729529378,0.0013371235387666693,0.00609479719858114,-8.14965545123243e-06,0.9999805325511759,-2.237505784568268e-06,0.020146638873344634,0.0046139811919503025
1729503118.447398,-0.12975066523919537,0.0259963884378117,9.782583489914893,0.0013286738198602676,0.0066312510484851615,-8.810971165597889e-06,0.9999771302673772,-1.3425034707409609e-06,0.02060178455324741,0.00489683902248034
1729503118.4554012,-0.12094602902632973,0.030441883355655768,9.787421690628623,0.001555116844864224,0.006178254936973317,-9.608103319496513e-06,0.9999797051366678,-8.055020824445765e-07,0.02087487196118908,0.005066553720798362
1729503118.46341,-0.12212759178103222,0.031193818978237208,9.786972728732643,0.0015936014960158695,0.006238889653347974,-9.942510012367985e-06,0.9999792680807497,-4.833012494667458e-07,0.02018734428303002,0.005594072601251207
1729503118.4714153,-0.13744115956080682,0.0328420811818642,9.797477259065756,0.0016759979052545352,0.007013542848456363,-1.1754988749584996e-05,0.999974000216783,-2.8998074968004747e-07,0.01977482767613458,0.005910583929522914
1729503118.4794064,-0.14255915740640596,0.04652030730286851,9.807131859589845,0.0023716738887424333,0.0072674590497123085,-1.723654653439465e-05,0.9999707790254811,-1.7398844980802848e-07,0.020378697834921383,0.005674800665023906
1729503118.4873877,-0.13006764532274984,0.04251681450867423,9.80191129226758,0.0021687373085454847,0.006634294307744137,-1.4388392068514189e-05,0.9999756409585681,-1.0439306988481709e-07,0.021166709991655493,0.005533330706324502
1729503118.495416,-0.13765620853154054,0.03293211385168891,9.804525035858594,0.0016793842949145046,0.007019466172073353,-1.1788688308348478e-05,0.9999739529728142,-6.263584193089025e-08,0.021213827224233928,0.005448448731104859
1729503118.5033839,-0.13789978346853368,0.028138974121560217,9.805375021515156,0.0014348336367783958,0.007031288795859821,-1.008898945828862e-05,0.9999742507327457,-3.758150515853415e-08,0.020816407502318956,0.005397519545973074
1729503118.511381,-0.13684882760065148,0.03076975410184238,9.776675752655187,0.0015735847730547483,0.006998182742968222,-1.1012517108727477e-05,0.9999742742430839,-2.254890309512049e-08,0.020152265607707942,0.005366962034894002
1729503118.519388,-0.12999332976351588,0.02181373478532418,9.787707770929048,0.001114315757867994,0.00664018233946241,-7.399427539875433e-06,0.9999773328551698,-1.3529341857072294e-08,0.020179470532403366,0.005348627528246559
1729503118.5273876,-0.1380904595280314,0.017876644191507005,9.804861469198054,0.0009115968162757364,0.007041399962781356,-6.419079590721309e-06,0.9999747935006182,-8.117605114243375e-09,0.02019579348722062,0.005763316885720125
1729503118.535412,-0.12738642659572508,0.020063372989513578,9.786662688403597,0.0010250123131620172,0.0065077342283057435,-6.67065247386303e-06,0.9999782991147728,-4.870563068546025e-09,0.02020558726011097,0.006437820561666296
1729503118.5434024,-0.12599183032266942,0.026163813588630024,9.788193268559736,0.0013364662557131843,0.0064354798238452785,-8.600987414179168e-06,0.9999783989584011,-2.922337841127615e-09,0.019785773462383152,0.006416832705771968
1729503118.5513732,-0.1230002910646954,0.039400884588724885,9.787675095657326,0.002012727024471694,0.006282991655057799,-1.2646222329073689e-05,0.9999782361560978,-1.753402704676569e-09,0.019959575245208493,0.005978549930773338
1729503118.5594103,-0.1300639136524891,0.042315303702453684,9.786167091085801,0.002161930972112031,0.006644776163142098,-1.4365898117435794e-05,0.999975586100898,-1.0520416228059414e-09,0.019638166253441662,0.005289890204312129
1729503118.5673814,-0.1216128184063372,0.026107442719519085,9.794839094983512,0.0013326839657796688,0.0062076185069504545,-8.27296039574498e-06,0.9999798444756162,-6.312249736835649e-10,0.0198710109198436,0.004876694368435404
1729503118.575415,-0.13378041321177106,0.01757982695983645,9.805070120808466,0.0008964433789152189,0.006821511972959936,-6.1152439817182735e-06,0.9999763313830358,-3.787349842101389e-10,0.02043640778114679,0.0050544669283714
1729503118.5833783,-0.12839170129620328,0.02826498846105812,9.80785685397922,0.0014408994367774385,0.006544894926071401,-9.430747191649208e-06,0.9999775437829995,-2.2724099052608333e-10,0.021201335959390735,0.00558682052579503
1729503118.5913885,-0.12659499514295633,0.033239564365697374,9.79875498641097,0.0016960675010459832,0.006459298245470138,-1.0955650143586536e-05,0.9999777001019481,-1.3634459431565e-10,0.021234602804875075,0.005480542622787176
1729503118.599398,-0.12336218995686755,0.030238805758090292,9.787068941553612,0.0015447971816746036,0.00630189210938287,-9.735350102710412e-06,0.9999789496098066,-8.180675658939e-11,0.021254562912165677,0.0058424659424444955
1729503118.6073816,-0.12046482618115177,0.02364994727321355,9.795619625430213,0.001207143169931168,0.006148541932256423,-7.422316106799571e-06,0.9999803688985018,-4.9084053953633994e-11,0.021266538976540038,0.005633929872776855
1729503118.6153808,-0.13093683638251918,0.02233025400845938,9.791891489613596,0.0011402133835331167,0.006685512816254467,-7.623086507497548e-06,0.9999770016223934,-2.9450432372180394e-11,0.021273724615164656,0.0055088082309762715
1729503118.6233928,-0.127403815696699,0.019862496887497503,9.795161271941986,0.0010138694465563168,0.006502976469535929,-6.593311955868032e-06,0.9999783414266082,-1.7670259423308237e-11,0.021278035998339426,0.003305284938585763
1729503118.631878,-0.1271993646133319,0.019339523278982876,9.788504015362458,0.0009878460713408802,0.006496958076462239,-6.41813310085207e-06,0.9999784065942122,-1.0602155653984942e-11,0.021280622828244288,0.0019831709631514577
1729503118.6393702,-0.12827379479338977,0.032193848244733474,9.78666444290888,0.0016447380461040457,0.006553032718149509,-1.0778268232304848e-05,0.9999771759809238,-0.0017027602522094198,0.021282174926187204,0.0011899025778908745
1729503118.647372,-0.12436946974712762,0.02242877110504321,9.786518380100796,0.001145875132559496,0.006353716684324873,-7.280717689821839e-06,0.9999791583835471,-0.0010216561513256518,0.021283106184952955,0.0007139415467345247
1729503118.655403,-0.12681527803968282,0.02997725411810405,9.789303784408133,0.0015310841020834396,0.006476791294591886,-9.916731807700809e-06,0.9999778531835878,-0.0006129936907953911,0.020857974878750372,0.0029825052968129044
1729503118.6634111,-0.12780392268318466,0.033788083427893675,9.776370396865584,0.001728002323785043,0.006535901055253482,-1.1294310312725567e-05,0.9999771476777874,-0.002070556460325361,0.021454276217952886,0.004343643546859932
1729503118.6714048,-0.1379739161099108,0.026737194539158078,9.76717384334396,0.0013686879297370507,0.007062582724123011,-9.6667218737367e-06,0.9999741229277738,-0.0012423338761952166,0.021812057021474394,0.0051603264968881485
1729503118.679404,-0.1270770803788371,0.023703762035994846,9.772429818701687,0.0012127581972438623,0.006501379820861818,-7.884774108248122e-06,0.9999781303687647,-0.0007454003257171299,0.0220267255035873,0.0056503362669050785
1729503118.6873894,-0.12963694524878663,0.017574139545815656,9.782766008896793,0.0008981977652817673,0.006625332134246768,-5.950991528794055e-06,0.9999776488399483,-0.0004472401954302779,0.02130414646993098,0.005518652067453205
1729503118.6954143,-0.14051025064536574,0.023473172692333143,9.776039034049013,0.0012005113507660768,0.0071858786769347345,-8.626957871426693e-06,0.9999734605706857,-0.0002683441172581667,0.020019218926813125,0.005439641547782081
1729503118.7033858,-0.14511887255518818,0.01384448344938426,9.792353563251675,0.0007068820468753579,0.007409186176891472,-5.237565761851136e-06,0.9999723017416712,-0.00016100647035490002,0.019673952462404443,0.0049665451745173755
1729503118.711383,-0.14668694487100353,0.02219305969853681,9.793762574962722,0.0011329848812649272,0.007488140289233206,-8.484193049549196e-06,0.9999713216029178,-9.660388221294001e-05,0.019892482645221265,0.004682687350558551
1729503118.7193854,-0.1363750404577584,0.021456121463653336,9.786228276178806,0.0010962109500281744,0.0069671735082104955,-7.637681854342971e-06,0.9999751280689562,-5.7962329327764005e-05,0.02044929081637339,0.004938062717645289
1729503118.7273827,-0.12252645249731127,0.027238882839129498,9.785059579232673,0.0013918284456293146,0.006260496145954248,-8.71371582378123e-06,0.9999794342513527,-3.47773975966584e-05,0.02078337571906467,0.005942668060821395
1729503118.7354138,-0.13097671134213676,0.02927201866832145,9.789386184551324,0.0014950497846058924,0.0066892441360879296,-1.0000987937106093e-05,0.9999765090935935,-2.0866438557995037e-05,0.020983826660679432,0.006545431266727058
1729503118.743408,-0.12503353901231332,0.030970740497867872,9.783123601599934,0.0015828260890472926,0.006389835351329666,-1.0114217253185558e-05,0.9999783320469786,-1.2519863134797022e-05,0.020678407164186258,0.0064813991288084245
1729503118.7514076,-0.1334386439152005,0.026483309777236348,9.785830396311523,0.0013531093377696342,0.006817445464000399,-9.224971942286616e-06,0.999975845431961,-7.511917880878213e-06,0.020495155466290355,0.006017289784595213
1729503118.7594047,-0.13058084137841716,0.02259375051477931,9.795594758783007,0.0011532318410405488,0.006664817691328584,-7.686255800705142e-06,0.9999771248395554,-4.507150728526927e-06,0.019959514386090782,0.0036103738707571275
1729503118.767382,-0.13461224384072218,0.01666871246707071,9.793313090621366,0.0008510033760124233,0.0068721617888097926,-5.848373101688213e-06,0.9999760242882821,-2.704290437116156e-06,0.019638129737971036,0.0021662243224542764
1729503118.7754111,-0.13080616100169892,0.014310790468523675,9.787395106570084,0.0007310651394400366,0.00668192222094382,-4.885030760537501e-06,0.9999774084624771,-1.6225742622696938e-06,0.020296679072023253,0.0012997345934725659
1729503118.783378,-0.1354656961127381,0.01313545743541108,9.789829820289706,0.0006708554637561898,0.006918190644296489,-4.641218106330083e-06,0.9999758439930512,-9.735445573618163e-07,0.020691808672454584,0.0007798407560835395
1729503118.7914078,-0.13993735834147097,0.010275476121402899,9.78793876619726,0.0005248908434787695,0.007147906236024452,-3.75196690025461e-06,0.9999743156261396,-0.0017033443725825435,0.020928886432713383,0.00046790445365012365
1729503118.7993853,-0.14214151534667946,0.01047484866112299,9.799732822706638,0.0005344307807443515,0.007251738584670187,-3.875654774327234e-06,0.9999735629786517,-0.001022006623549526,0.021496823150330694,0.0024091929795002323
1729503118.8073778,-0.13077474075097642,0.029269245134173796,9.796753609639607,0.00149378408422189,0.0066739084703161655,-9.969611407285158e-06,0.9999766134542579,-0.0006132039741297156,0.02183758518090108,0.003573966095010298
1729503118.8154104,-0.1337709028001952,0.0388699418558949,9.797839123791576,0.0019835379087909688,0.006826007024989289,-1.3539985784882125e-05,0.9999747351919087,-0.0003679223844778293,0.021190662276319248,0.0046985200257783685
1729503118.8233812,-0.13197729753949214,0.03481413308228694,9.798969272614789,0.0017763678223904427,0.006733732710164577,-1.19618761826437e-05,0.999975750315007,-0.0002207534306866976,0.02122819859503218,0.005798942445701242
1729503118.831691,-0.12587331089674214,0.03190180748609091,9.794140698090358,0.0016285755242411643,0.006425509117578586,-1.0464656788279953e-05,0.9999780299910757,-0.00013245205841201855,0.02125072038625994,0.006459195897654967
1729503118.839381,-0.1195772970849203,0.02392948781196705,9.797947318024136,0.001221121639826496,0.006101797100592991,-7.45118074924981e-06,0.9999806382518432,-7.947123504721113e-05,0.020838543399534566,0.00387551753859298
1729503118.8473678,-0.12322171394431156,0.017948995177414603,9.79376694550198,0.0009163278717571671,0.006290436667450105,-5.764218909062299e-06,0.9999797951541511,-4.7682741028326675e-05,0.02059123720749934,0.002325310523155788
1729503118.8553684,-0.11990170024158693,0.015557800426761262,9.800835528629312,0.000793681467715107,0.006116559259883413,-4.854692073336174e-06,0.999980978693585,-2.8609644616996002e-05,0.0204428534922782,0.003523636621203631
1729503118.8634114,-0.11886737268401466,0.033516117023634884,9.801006535683445,0.0017097901685834884,0.006063660280272155,-1.036779249132236e-05,0.9999801540701164,-1.7165786770197602e-05,0.02035382326314552,0.003816942218570305
1729503118.8714094,-0.12590822146197128,0.02250387187433718,9.803263921410068,0.001147747579994516,0.0064213317230498975,-7.370224751914837e-06,0.9999787243337105,-1.029947206211856e-05,0.020300405125665912,0.003992925576990309
1729503118.8794045,-0.12965389039671402,0.019487827274992934,9.821377764467133,0.000992088763980292,0.006600148286627334,-6.5480788035372776e-06,0.9999777266317493,-6.1796832372711365e-06,0.02069404430464018,0.004524205653504344
1729503118.8874257,-0.12687346827123153,0.019114721511480137,9.81548665868028,0.0009736796486775744,0.006462502763848431,-6.292541805745378e-06,0.9999786437551418,-3.707809942362682e-06,0.02135591787348677,0.004842973699412764
1729503118.8954082,-0.13238781997641078,0.025594622701809955,9.79806562557926,0.0013060715666072676,0.006755322842731828,-8.823143935701638e-06,0.9999763295761083,-2.224685965417609e-06,0.021327351953332695,0.0029057842196476584
1729503118.90341,-0.14359729647803396,0.01679329461717972,9.785218804058493,0.0008580700304703428,0.007336853683658176,-6.295706031183631e-06,0.9999727167549181,-1.3348115792505654e-06,0.02131021240124025,0.001743470531788595
1729503118.9114044,-0.14337979756455477,0.015582640588667207,9.785172156458533,0.0007962144482621831,0.007325779537424076,-5.8330498849601745e-06,0.9999728491127631,-8.008869475503392e-07,0.021299928669984786,0.0010460823190731568
1729503118.9194098,-0.1379820545641235,0.0148562481715597,9.777961562918088,0.0007596599084002383,0.007055230890553647,-5.359710993581123e-06,0.999974822985648,-4.805321685302036e-07,0.02044237830830744,0.0006276493914438941
1729503118.927414,-0.11965993830488032,0.031179824342388945,9.782254332770385,0.0015936561274482752,0.006115791969773672,-9.746664003036179e-06,0.9999800284274344,-2.883193011181221e-07,0.019927848091301034,0.0025050399421764945
1729503118.9354162,-0.1323692649848813,0.028284701246058367,9.78818187700598,0.0014448005086341643,0.006761189108328243,-9.768802945834264e-06,0.9999760991033246,-1.7299158067087326e-07,0.02004482002255922,0.004482854395540118
1729503118.9434063,-0.13760065933272564,0.021998644233963145,9.792217243879369,0.0011232409080080376,0.007025479228536322,-7.891505400794584e-06,0.9999746901343034,-1.0379494840252395e-07,0.020966383304238195,0.005669543067558291
1729503118.951407,-0.136429932953151,0.01200208571029976,9.792723102675279,0.000612790539671139,0.006965369826883549,-4.268417082026608e-06,0.9999755537475453,-6.227696904151437e-08,0.021945011334707613,0.005955866209307164
1729503118.9593682,-0.1354880769593906,0.01749631856485173,9.793026617952822,0.0008932816682779697,0.006917069050996648,-6.1790412694265405e-06,0.9999756777869271,-3.736618142490862e-08,0.022532188152989262,0.003573519725584298
1729503118.9673803,-0.15287947581430622,0.012652572633051664,9.769984971015834,0.0006475016098905473,0.007823209592164556,-5.065696886756305e-06,0.9999691885791686,-2.241970885494517e-08,0.02245880418249622,0.002144111835350579
1729503118.9753742,-0.15493460931670874,-0.001027582396731502,9.767412730656375,-5.260086852924412e-05,0.007930451794019676,4.1716177106091393e-07,0.9999685520891731,-1.3451825312967101e-08,0.02198908373873836,0.0012864671012103473
1729503118.9834042,-0.16526565572674398,-0.0013348099360857761,9.789811403042261,-6.817089879104552e-05,0.008439794631239301,5.75368879126448e-07,0.9999643819751682,-0.0017027683169433142,0.022132941533945683,0.0024746405065743347
1729503118.9913998,-0.1470434266391714,0.0032692568606141597,9.801335245145669,0.0001667712102790466,0.007500560066788351,-1.250912685174872e-06,0.9999718564962131,-0.0010216609901659885,0.02221925621107007,0.0014847843039446009
1729503118.999411,-0.13323704719444032,0.004116335610509121,9.811362012565917,0.0002097688711286707,0.006789466104575089,-1.4242514987930635e-06,0.999976929306375,-0.0006129965940995931,0.021845354955882676,0.0030193208896769188
1729503119.0074031,-0.13716364799439856,0.0189897928213836,9.81163198903369,0.0009676924172784725,0.0069893202293990426,-6.763680561940539e-06,0.9999751061543327,-0.00036779795645975585,0.02162101420277024,0.004365732902578341
1729503119.0154169,-0.14382917146265475,0.011154455526814535,9.814427596740527,0.0005682521284203627,0.007326839593758281,-4.163604624053486e-06,0.999972996882291,-0.0002206787738758535,0.021060719689440743,0.0047478900488571625
1729503119.0234199,-0.14184298139321785,0.01339643796452622,9.80509163372791,0.000683117745504559,0.007232552805160187,-4.940815547685897e-06,0.9999736114046484,-0.0001324072643255121,0.02115023304290508,0.004977184336624456
1729503119.0313988,-0.13897532618944633,0.02814915672402823,9.802363097912526,0.0014357932843896402,0.0070882977056631645,-1.0177596419518854e-05,0.9999738468728555,-7.944435859530726e-05,0.02120394105498368,0.0046890708478228
1729503119.039374,-0.13462111124101156,0.04322571229613569,9.798092354597125,0.002205752641779565,0.006869191492782776,-1.5152131631802138e-05,0.9999739739782889,-4.7666615157184354e-05,0.021236165862230844,0.004941892816003838
1729503119.0474076,-0.14589495190085694,0.04676498182104079,9.78643194229929,0.0023891869259325947,0.007453212452212928,-1.7807663194371636e-05,0.9999693700773351,-2.8599969094310613e-05,0.02168119080804117,0.005093585996912461
1729503119.055407,-0.15194099579871728,0.04290303938559322,9.78925192172723,0.0021912495111002916,0.007759808878174862,-1.7004230197261692e-05,0.999967491222895,-1.7159981456586368e-05,0.021522515714065334,0.005184601905457635
1729503119.0633776,-0.14814659699094912,0.04657137807471531,9.782085363241416,0.0023803510265203746,0.007571583820492666,-1.8023595029120065e-05,0.9999685018652287,-1.029598887395182e-05,0.0210016205962178,0.0052392114505847385
1729503119.071421,-0.1283922855871476,0.029618768006938558,9.789756436450709,0.0015127038313322784,0.006557020674114476,-9.919054880142827e-06,0.9999773582979818,-6.177593324371092e-06,0.02111477358697131,0.005271977177661001
1729503119.079406,-0.11294839625463231,0.025911546448694384,9.795795601372378,0.0013225587652641534,0.005764834036176193,-7.624465147549579e-06,0.9999825085813828,-3.706555994622655e-06,0.02118266538142342,0.00571732667536879
1729503119.08739,-0.1137377096277794,0.029672717664138506,9.804207503645692,0.0015132327953143658,0.005800128104790452,-8.777101753547405e-06,0.9999820341203324,-2.223933596773593e-06,0.02037202033517062,0.005984536373993463
1729503119.0954134,-0.12402752445830827,0.03456304221957685,9.790340451894446,0.0017651153114943477,0.006333747819038618,-1.118003692548156e-05,0.9999783837071223,-1.3343601580641557e-06,0.020311323368880974,0.005719172131706236
1729503119.1033845,-0.12589185036834433,0.03893375794893361,9.795427750140574,0.001987288987082957,0.006425590270232345,-1.2769793620795184e-05,0.9999773808987348,-0.001703560861942965,0.020700595250569217,0.005134263524871868
1729503119.1113806,-0.1358689920569441,0.029585179085766414,9.805662734068719,0.0015085334146059295,0.0069275500205956825,-1.0450703352073495e-05,0.999974866318365,-0.0010221365171657788,0.020934158379582162,0.004783318360771247
1729503119.1193914,-0.14377063839822896,0.008892561308881722,9.795283732970528,0.0004539077067412421,0.00733817187921209,-3.330942797322591e-06,0.9999729722298347,-0.0006132819102994672,0.0206486061955279,0.004998441323772906
1729503119.1273837,-0.149708727033078,0.015630603924000907,9.792887054967863,0.0007980340266607682,0.007643066305791555,-6.099607083845646e-06,0.9999704728850409,-0.00036796914617968034,0.02090296494655737,0.005127515101573902
1729503119.1354098,-0.14201883241125304,0.01991284965908804,9.794561510324469,0.0010164964813657118,0.00724929186703164,-7.369077115908158e-06,0.9999732068650773,-0.0002207814877078082,0.021055580197175055,0.004779269306792467
1729503119.1433666,-0.14075677796237682,0.014341911455609075,9.791496040716167,0.0007323454260051907,0.007187138831053235,-5.263605608046253e-06,0.9999739039984467,-0.00013246889262468492,0.0215728394090077,0.004570321829923607
1729503119.1513956,-0.1421543267871917,0.01794253334797482,9.784150095132825,0.0009168920262270367,0.007263930708991739,-6.660418665818279e-06,0.9999731969284507,-7.948133557481095e-05,0.021457504874645254,0.004870643405264322
1729503119.159396,-0.14323227624809629,0.015314503163081767,9.795783678905867,0.0007816660740692546,0.007310317389564703,-5.714381532420162e-06,0.9999729737473699,-4.768880134488657e-05,0.021813994215489817,0.005050836350468752
1729503119.1674047,-0.13909064260432652,0.013977105218161558,9.79462354352516,0.0007134898095527586,0.00709981082832629,-5.06577164285059e-06,0.9999745414723475,-2.861328080693194e-05,0.022027887819996553,0.004733262056129377
1729503119.1754134,-0.13971812457626778,0.02203321259378756,9.802307168107282,0.0011238471017282422,0.007126232517661924,-8.00900418339039e-06,0.9999739765182152,-1.7167968484159162e-05,0.02130484385977653,0.004968407540987785
1729503119.1833787,-0.1312360676168544,0.029979339177366286,9.78369358675304,0.0015320661981050134,0.006706385607258878,-1.0274869821741323e-05,0.9999763382499,-0.0017130610269386218,0.02129670754510655,0.005109494831902829
1729503119.191384,-0.13859668207401887,0.03570469579157602,9.780665723585027,0.0018252124377990861,0.007084645194683128,-1.2931328598057778e-05,0.9999732377592928,-0.002730596862011299,0.021717515817766597,0.005194147206451855
1729503119.1993837,-0.1353516054358176,0.022141077972992487,9.79249595514711,0.001130482249059476,0.00691046888998336,-7.812353945287583e-06,0.9999754833837539,-0.0016383581172067796,0.02154431071990059,0.0056706286926433026
1729503119.2073796,-0.12646137463844367,0.01903073076817049,9.801030615080453,0.0009708311695322702,0.006451014558602605,-6.262979280394169e-06,0.9999787207029858,-0.0009830148703240677,0.021014697599718954,0.00553082752289614
1729503119.2153857,-0.13549244612095682,0.011897278792933544,9.80447546987835,0.0006067115433226071,0.006909223220469512,-4.192006313706182e-06,0.9999759469697359,-0.0005898089221944406,0.021122619789072004,0.005446946821047842
1729503119.2233837,-0.13755920668624597,0.016475753750369502,9.78403688715162,0.0008419486300236753,0.007029244115840166,-5.91841076825516e-06,0.9999749400933189,-0.00035388535331666435,0.020761683041221803,0.005396618399938864
1729503119.231438,-0.1306589773808882,0.0232929815470967,9.791885031460893,0.0011893722688012694,0.006671329980411015,-7.934877066801976e-06,0.9999770390798663,-0.00021233121198999862,0.020545120992511684,0.005366421347273477
1729503119.2394037,-0.13537738594025167,0.02163723424075802,9.78055276692341,0.0011061059745311685,0.006920224764330575,-7.654689931778305e-06,0.9999754431785762,-0.00012739872719399917,0.020415183763285612,0.005773993177136276
1729503119.247395,-0.13701133024579162,0.024953348845236062,9.76944384521264,0.0012770762719325414,0.007011692250157033,-8.954693227726887e-06,0.9999746022613766,-7.643923631639949e-05,0.020337221425749966,0.005592846213591924
1729503119.255404,-0.13679459599903748,0.030534320098157257,9.791987752440084,0.001559102960058758,0.006984473331594877,-1.0889791903060246e-05,0.9999743927779614,-4.5863541789839695e-05,0.020716134084690613,0.003355707728155154
1729503119.263407,-0.13810107644707875,0.022869575213191228,9.788994105321471,0.0011680943167804026,0.0070533447023249495,-8.23918243331202e-06,0.9999744425815558,-2.7518125073903816e-05,0.02051779161859297,0.0037161848827412186
1729503119.2713985,-0.14032148571199723,0.030959997081039737,9.785043135556165,0.0015819579362758448,0.007169604985155403,-1.1342319219625328e-05,0.999973046659157,-1.651087504434229e-05,0.02039878613893438,0.004358161236954889
1729503119.279367,-0.14572387409321397,0.018815418414639466,9.800389645982134,0.000959903247514684,0.007433962501179389,-7.136085221015183e-06,0.9999719069735723,-9.906525026605373e-06,0.019901692789677197,0.004743347049483091
1729503119.2874327,-0.133642416496944,0.008895049388627427,9.801936106925218,0.00045372830489838847,0.006816665154120769,-3.0929861054465754e-06,0.9999766633263175,-5.943915015963224e-06,0.020029126841584918,0.004974458537000013
1729503119.2954195,-0.1395616510700414,0.019702239594113956,9.795681378510599,0.0010056314162753075,0.007123071431012132,-7.16336976417176e-06,0.9999741249190048,-3.5663490095779342e-06,0.020531277334191585,0.004687435368048134
1729503119.3034115,-0.13042392301507172,0.02187699072912462,9.785943037311437,0.0011177484140087513,0.006663375652329156,-7.448147573214507e-06,0.9999771747434659,-2.1398094057467603e-06,0.021258257691217614,0.004515221466677007
1729503119.3114085,-0.13212389116255863,0.026054883402318523,9.795662343382956,0.0013298844548345695,0.006743510019411261,-8.968300995752963e-06,0.9999763779207609,-1.283885643448056e-06,0.02169444590543323,0.0044118931258543305
1729503119.3194134,-0.12189112424831641,0.02927987950428174,9.78497393557079,0.0014961302294238346,0.006228087614888626,-9.318221306074079e-06,0.9999794860056723,-7.703313860688336e-07,0.02067908864957651,0.004775586182822757
1729503119.3274128,-0.1361021782110992,0.02091981002678779,9.763956260756535,0.0010712484318365003,0.0069690947261678285,-7.465817383987475e-06,0.9999751417359116,-4.621988316413001e-07,0.020495564357524504,0.005419492078465844
1729503119.3354146,-0.1197291133231439,0.024522894316853925,9.789892302596499,0.0012524325643226,0.006114568238538815,-7.658233549506517e-06,0.9999805215149341,-2.773192989847801e-07,0.020385449782293303,0.005380145554389665
1729503119.3434036,-0.13336845065990197,0.015910837420190477,9.792046398403603,0.0008124163921022151,0.006809554843732542,-5.5323240723414166e-06,0.9999764846794296,-1.6639157939086805e-07,0.020319381037154582,0.005356537639943957
1729503119.3514013,-0.14610103621625367,0.016010846934536162,9.792620595389817,0.0008174710484578927,0.007459116647020661,-6.09778358151435e-06,0.9999718462450571,-9.983494763452082e-08,0.021131119912995412,0.0049166828298145004
1729503119.3594127,-0.13027741128053347,0.007451726666581072,9.792007432917483,0.0003804916227322581,0.006651788125372597,-2.5310058355406096e-06,0.9999778042209008,-5.990096858071249e-08,0.02161816323849991,0.004652769943736827
1729503119.3673964,-0.13514844628003883,0.017878565296823645,9.80384996390088,0.0009117898298685232,0.006892115654091755,-6.284312830286182e-06,0.9999758333787994,-3.5940581148427495e-08,0.02148469917234058,0.004494422212090222
1729503119.3754108,-0.13112788246528895,0.011684819842156687,9.798505633858106,0.0005962410003416851,0.006690763137333819,-3.989397311523357e-06,0.999977438830194,-2.1564348689056497e-08,0.02097893067118295,0.00439941357310226
1729503119.3834064,-0.13350394749675148,0.016587698545919013,9.788116430851973,0.0008473172386232026,0.006819207577734721,-5.7781685572978365e-06,0.9999763899353432,-1.2938609213433898e-08,0.021101159631950403,0.004342408389709482
1729503119.3914042,-0.13971798983594153,0.021205366930285782,9.80007884166548,0.0010818672891771272,0.007127847399261993,-7.71158535751007e-06,0.9999740113098704,-7.763165528060338e-09,0.022025877131334935,0.004308205279673816
1729503119.3994086,-0.1362638102589868,0.017751043644499594,9.782117170721945,0.0009072971472833939,0.006964423621520524,-6.318957531991097e-06,0.9999753364836441,-4.657899316836203e-09,0.021303637446579562,0.0025849231678042894
1729503119.4074028,-0.12892405886047018,0.01615729000505913,9.780916974796448,0.0008259403804876144,0.00659015102527747,-5.443191902463285e-06,0.9999779436079196,-2.7947395901017215e-09,0.020018913512802276,0.0032537141465307
1729503119.4154367,-0.15037758595104772,0.032439289774519854,9.777802655580993,0.0016587652527408985,0.007689008503487297,-1.2754654721010695e-05,0.9999690632631533,-1.6768437540610328e-09,0.019248079152535902,0.004506368856690609
1729503119.4234118,-0.14768739141437862,0.026167338513149414,9.77042740023336,0.0013390658324693972,0.007557196379685535,-1.0119881518547268e-05,0.9999705473578525,-1.0061062524366197e-09,0.019636958659300142,0.004832271621324524
1729503119.43138,-0.1417637117040959,0.021207066926249022,9.788028902298219,0.001083285081017748,0.007241097631648967,-7.844383294550948e-06,0.9999731961092696,-6.036637514619719e-10,0.02072166648628275,0.0046021232186428404
1729503119.4394088,-0.15664485666112943,0.019428004804186914,9.793083139718775,0.0009918903868373328,0.007996942450250228,-7.932347888172801e-06,0.9999675319739065,-3.621982508771831e-10,0.02052111105954825,0.004464034177033831
1729503119.4473987,-0.1480958715162089,0.02506433217938715,9.793721480510952,0.0012795710870062958,0.007560076562040028,-9.673939764395456e-06,0.9999706034912348,-2.1731895052630985e-10,0.02040077780350755,0.004381180752068425
1729503119.4554021,-0.14943082491167847,0.02270004462013229,9.793386224488211,0.0011589102805019964,0.007628478828925838,-8.840985725529616e-06,0.999970231136685,-1.303913703157859e-10,0.0199028877884211,0.004757158758551213
1729503119.4633799,-0.14520397346263209,0.035646682045516874,9.787199566724178,0.0018210257510670464,0.0074173815119887646,-1.350763672089932e-05,0.9999708326417642,-7.823482218947154e-11,0.019604153779369228,0.004982745562440886
1729503119.471405,-0.13189395512250113,0.02426105121949762,9.793303798872397,0.0012386230374301973,0.0067334007979258925,-8.34034081901195e-06,0.9999765632539116,-4.694089331368292e-11,0.0207019835583242,0.0029896473374645314
1729503119.479405,-0.12725982644264128,0.0320343028508392,9.788347212184766,0.001636306399012322,0.006500122354575192,-1.063643074901328e-05,0.9999775351464704,-2.8164535988209753e-11,0.020934991364235152,0.0017937884024787187
1729503119.4874632,-0.1302254332191004,0.03382521183745664,9.794950066812813,0.001726618470494575,0.006647090123500073,-1.14772592487969e-05,0.9999764171468345,-1.689872159292585e-11,0.020649105986319694,0.0010762730414872312
1729503119.4954305,-0.1200337889841946,0.03705453872356774,9.798911779589641,0.0018907006264801867,0.0061244536811245354,-1.1579746284276168e-05,0.9999794578810898,-1.013923295575551e-11,0.020903264821032448,0.002774214132202497
1729503119.5034122,-0.11894662592957926,0.04042865585132814,9.80392242908191,0.0020618086686067147,0.006065878102549189,-1.2506936737598055e-05,0.9999794767451158,-6.083539773453306e-12,0.021481450183322134,0.004218668848093687
1729503119.5114079,-0.11805490793079443,0.036707042143609384,9.8150691044218,0.0018698879727417266,0.00601358333653786,-1.1244950142475138e-05,0.9999801699073712,-3.650123864071983e-12,0.021828361400695946,0.0042339615547043385
1729503119.5194137,-0.1230265409498829,0.030643351262728127,9.803082336676518,0.001562906981259574,0.006274481848995488,-9.806636504761726e-06,0.9999790938330283,-2.19007431844319e-12,0.021185128008196167,0.004668827240132761
1729503119.5273986,-0.1425295122164141,0.03299064088459,9.797805637357474,0.0016835194737643056,0.007272913886170085,-1.2244433352211047e-05,0.9999721347796946,-1.314044591065914e-12,0.020799187972696302,0.004929746651389815
1729503119.535376,-0.12957101787672345,0.0341595944916915,9.799188600920344,0.0017429332117280757,0.006610829987260795,-1.152250443184846e-05,0.9999766292158686,-7.884267546395484e-13,0.020993314012858415,0.002957847990833889
1729503119.543376,-0.12155650110689344,0.02672068101142115,9.802891421050251,0.0013628669008999858,0.006199646776276742,-8.44946361790533e-06,0.9999798532481874,-4.73056052783729e-13,0.02110978963695568,0.0034774690403484593
1729503119.5513718,-0.1258457573535892,0.03901674454435269,9.790508483001245,0.0019925254303866284,0.006426464586789496,-1.2805183963795305e-05,0.9999773648595008,-2.838336316702374e-13,0.02075398494995201,0.004640621792981265
1729503119.5594087,-0.13248945392387226,0.03873293735161161,9.801035232623013,0.0019759030350198783,0.006758422962551271,-1.3354319505691318e-05,0.9999752093666711,-1.703001790021424e-13,0.020540502137749807,0.005338513444560948
1729503119.5673957,-0.1233075627351827,0.03305598921760759,9.80375997990584,0.0016858413828360948,0.006288371640262645,-1.0601421819015578e-05,0.9999788068797036,-1.0218010740128544e-13,0.020838102511890517,0.005757248435508759
1729503119.5754147,-0.12881175565868774,0.035156484155564556,9.787438315824362,0.0017959511670358245,0.006579982783846565,-1.181760265072185e-05,0.9999767388526166,-6.130806444077126e-14,0.021442352797836975,0.006008489430077445
1729503119.5834088,-0.13091717058271266,0.03402257945818248,9.790095166008289,0.0017375538230143103,0.006685706437556456,-1.1617051954089011e-05,0.999976140765962,-3.6784838664462755e-14,0.02180490296940485,0.006159234026818656
1729503119.5914214,-0.1266737557187682,0.029272093817487615,9.803181444087397,0.0014929520996455543,0.0064604087963109355,-9.645292911250912e-06,0.9999780168179604,-2.2070903198677654e-14,0.021596743010883542,0.005823990723401352
1729503119.59941,-0.13394393360704218,0.03456208807760194,9.783260471677046,0.001766337732070699,0.006845032658162796,-1.2090941584930584e-05,0.9999750124041771,-1.3242541919206591e-14,0.021471847035770757,0.0051971546798889375
1729503119.6074047,-0.1301657546954753,0.024328555336795545,9.788785560349979,0.0012426434141074192,0.0066482517874784305,-8.261595258268931e-06,0.9999771279970666,-7.945525151523954e-15,0.021396909450703085,0.0048210530537814884
1729503119.6154282,-0.12478638519033206,0.0220191583485617,9.804071621854519,0.0011229341170850273,0.006363601602143264,-7.146054545102394e-06,0.9999791215533211,-4.767315090914372e-15,0.021351946899662484,0.004595392078117019
1729503119.623415,-0.12778368780365237,0.025900763807965143,9.80079341012443,0.001321327905868101,0.006518604150118902,-8.613404093634477e-06,0.9999778806645218,-2.8603890545486233e-15,0.021324969369038122,0.00488568555418037
1729503119.6316297,-0.1386800356802383,0.026793206087513458,9.78158823113325,0.0013695337629662536,0.0070882626754191986,-9.707868041140371e-06,0.9999739400680768,-1.716233432729174e-15,0.02173447291212554,0.005485551701280412
1729503119.6394129,-0.12367002946478357,0.034511276435711204,9.788500476521747,0.0017628031786119447,0.006316680841180989,-1.1135304521585304e-05,0.999978495740838,-1.0297400596375044e-15,0.021128794915053924,0.005419781328078405
1729503119.6474073,-0.12328315171207327,0.03363545482627047,9.787859420434533,0.0017181801869589094,0.006297337495262259,-1.08201910346524e-05,0.999978695413177,-6.178440357825026e-16,0.020765388116810952,0.005380319104157202
1729503119.6553993,-0.12831826871279084,0.028560978706309158,9.769518274331032,0.001461701892869306,0.006566817284838322,-9.59894648081028e-06,0.9999773698670306,-3.707064214695016e-16,0.021824414222251266,0.0049309517083424475
1729503119.6633785,-0.129663397751112,0.01402412506558237,9.783892124266588,0.0007166776735540462,0.006625926091200741,-4.748758759084833e-06,0.9999777914803886,-2.2242385288170097e-16,0.022459829885515453,0.005087021332315627
1729503119.671413,-0.13980786164871406,0.021582584170208797,9.78222136708925,0.0011031222326113963,0.007145449049938786,-7.88250973833822e-06,0.9999738624669551,-1.3345431172902057e-16,0.021989699160549905,0.004754973045237502
1729503119.6794028,-0.13727541401071283,0.024681138636890903,9.781697753114878,0.0012615625885471406,0.007016406250308138,-8.851860567043692e-06,0.9999745888895429,-8.007258703741234e-17,0.021281930664108543,0.002852983827142501
1729503119.6874168,-0.13910782775213082,0.015526943680181416,9.784256626722442,0.0007934440831787916,0.007108208161470914,-5.640109972888455e-06,0.9999744215685765,-4.80435522224474e-17,0.02128295962770576,0.0034145505421336268
1729503119.6954188,-0.1356582928426847,0.012668048532327598,9.796326438191668,0.0006465548542211746,0.006923431848681587,-4.476486694399578e-06,0.999975823726863,-2.882613133346844e-17,0.020857886944402056,0.005028560755514397
1729503119.703411,-0.13310973156498584,0.017417055926037185,9.786808913452111,0.000889800577521617,0.006799981314131139,-6.050769590591498e-06,0.9999764839597219,-1.7295678800081063e-17,0.020602843334419835,0.00599696688354286
1729503119.7114103,-0.12008842682961648,0.027927905674762932,9.794745348071267,0.0014256253656055942,0.006129870851215964,-8.739072442813415e-06,0.9999801959035454,-1.0377407280048638e-17,0.021301197291354566,0.005726630437435874
1729503119.7194138,-0.13023215643956676,0.019390365231029636,9.791127503032213,0.000990176606173132,0.006650061398764549,-6.5848840592764895e-06,0.9999773978397315,-6.226444368029183e-18,0.02086882954259134,0.005564428569771683
1729503119.7273831,-0.1446981000160838,0.02025334511518028,9.772915644885733,0.0010361664896848448,0.007402387549531611,-7.670320192195425e-06,0.9999720650891896,-3.735866620817509e-18,0.020609408893333403,0.005467107449173168
1729503119.735405,-0.13757593520496278,0.025559536365983168,9.790958370085736,0.0013052253994296217,0.007025112319883761,-9.16958911756107e-06,0.9999744717238878,-2.2415199724905057e-18,0.020879446565240677,0.004983024715352027
1729503119.7434053,-0.13617567831047767,0.027067309954355523,9.787418795244802,0.0013827216257201354,0.006956131448385874,-9.61863529567916e-06,0.9999748497955638,-1.3449119834943033e-18,0.02104146916838504,0.005118265136521374
1729503119.7514021,-0.14179986865620847,0.03515457908784769,9.784097949510162,0.0017964583608378313,0.007245816524872422,-1.3017170401084569e-05,0.9999721349671694,-8.06947190096582e-19,0.020287302607347592,0.005199409389222982
1729503119.7593937,-0.14230134087145946,0.03258491542145862,9.794315870536174,0.001663407968147625,0.007263860776154621,-1.208309939098648e-05,0.9999722342418087,-4.841683140579492e-19,0.019409112609263094,0.003119645633533789
1729503119.767402,-0.14739062752092255,0.024339352573187666,9.809784009626393,0.0012405258967823646,0.007511765034671556,-9.318809145174648e-06,0.9999710167773479,-2.905009884347695e-19,0.019733578733336456,0.0035745476259683995
1729503119.7754173,-0.14206449370005353,0.03974272897555322,9.780278826185992,0.0020317106321516257,0.007262154353328036,-1.475501575433117e-05,0.9999715661199298,-1.743005930608617e-19,0.02077963853070454,0.0046988689443532294
1729503119.783405,-0.139587073905579,0.04228099016853506,9.768321800106126,0.0021641164057117977,0.007144254422962526,-1.5461428995726746e-05,0.9999721376067768,-1.0458035583651702e-19,0.020981584347663354,0.004947771673922095
1729503119.791419,-0.11679222725350366,0.03997322422807416,9.78892032371602,0.0020417080388194114,0.005965151029007343,-1.2179338886100054e-05,0.9999801239290455,-6.274821350191021e-20,0.021102751837838645,0.004671423250201383
1729503119.7994096,-0.13112747868608657,0.048404791470438246,9.778534522110471,0.0024749728711107107,0.006704308776388606,-1.6593406088369185e-05,0.9999744629128171,-3.7648928101146126e-20,0.02117545233194382,0.004505614195968956
1729503119.8074045,-0.13685558755344882,0.042929244511169196,9.767035797494799,0.002197587828203058,0.007005393625084255,-1.539538271320297e-05,0.9999730470522079,-2.2589356860687674e-20,0.021219072628406926,0.0044061287634295
1729503119.8154056,-0.1292791252371474,0.04155927766373276,9.787669881817191,0.0021229799717204802,0.006603676536904874,-1.4019810318711559e-05,0.9999759418184422,-1.3553614116412603e-20,0.02167093486774682,0.004772127565367858
1729503119.8234043,-0.1290428108356478,0.03666715473300528,9.788558164441879,0.0018729077801256104,0.006591025365166339,-1.2344672477243642e-05,0.999976524948807,-8.132168469847561e-21,0.02236774227281279,0.004991726846530873
1729503119.8314173,-0.13273174485099806,0.03588666246870942,9.78909113401669,0.0018329395204731741,0.006779050188738376,-1.242589539963506e-05,0.9999753420244171,-4.879301081908537e-21,0.021934446592928307,0.002995036107918524
1729503119.8394156,-0.12872018094380197,0.016743594160913155,9.793959898915872,0.0008547717186951746,0.006570968752874913,-5.616801567835381e-06,0.999978045610707,-2.927580649145122e-21,0.022100159246459646,0.004351162033523304
1729503119.8474007,-0.12320078044128119,0.01770760180904789,9.793289855365149,0.0009040483887197292,0.006289674852463263,-5.686285215650841e-06,0.9999798111234183,-1.756548389487073e-21,0.02177389677711642,0.005164837588886173
1729503119.855404,-0.14239463574523745,0.00894861992331936,9.78594464442026,0.0004572052657122939,0.007274885671361343,-3.3262044031997973e-06,0.999973433142476,-1.0539290336922438e-21,0.021578139295510487,0.005227352860641862
1729503119.8634079,-0.13499675581237683,0.014467138262585366,9.791832584992001,0.0007387161119459302,0.0068928338746008936,-5.091969793710943e-06,0.9999759712681875,-6.323574202153462e-22,0.021460684806546927,0.005264862023695275
1729503119.8714025,-0.1375012126671136,0.029270417234894968,9.789619265350668,0.001494928849903398,0.007022248251944651,-1.0498032076970642e-05,0.9999742262213627,-3.794144521292077e-22,0.02139021211316879,0.004861677460065291
1729503119.879368,-0.13756736578386192,0.02809673764562448,9.773207803106883,0.001437395353660009,0.007037425078854094,-1.0115823058984513e-05,0.9999742038875438,-2.276486712775246e-22,0.02049654837421784,0.002917006476039175
1729503119.887389,-0.1309032930054734,0.024998328231905936,9.779880917215692,0.0012780158085814214,0.0066920019827387935,-8.552682819196612e-06,0.9999767915866385,-1.3658920276651476e-22,0.019960350130847272,0.001750203885623505
1729503119.8954139,-0.12882021066656527,0.03056130773015919,9.780532903356757,0.0015623129640849763,0.0065850729522668825,-1.0288180465962568e-05,0.9999770976810264,-8.195352165990886e-23,0.020064321246286963,0.003178572638684261
1729503119.903384,-0.1321193444175173,0.02815301144473614,9.793613363840226,0.0014372763751236142,0.006744683586301114,-9.694204890795444e-06,0.9999762214102716,-4.9172112995945314e-23,0.02055239397701281,0.004035593890520715
1729503119.9113815,-0.12643737935558852,0.028383974835591682,9.796673236809996,0.0014486178241480368,0.006452640412279903,-9.347614325935549e-06,0.9999781321862651,-2.950326779756719e-23,0.020419547553986284,0.002421356334312429
1729503119.9193819,-0.128295443970775,0.03283211585838626,9.800903362252011,0.0016749092004172514,0.006544616173494836,-1.096188798130267e-05,0.9999771810187216,-1.770196067854031e-23,0.02033983970017037,0.0035812641078976156
1729503119.9273832,-0.12677666091371498,0.03478273997401613,9.77351391676527,0.0017793914420965867,0.00648526518976163,-1.1540086331724031e-05,0.9999773872285016,-1.0621176407124187e-23,0.020717705049342856,0.004277208772048728
1729503119.93541,-0.12107698775916649,0.03715021527347218,9.767854156943926,0.0019016086443231178,0.0061973139584104425,-1.1785113420142376e-05,0.9999789883019422,-6.372705844274512e-24,0.020944424258846347,0.004269085509077363
1729503119.9434085,-0.12460036868089051,0.03426113746486456,9.774513948023777,0.0017525299022567219,0.0063733000318064266,-1.1169642887760952e-05,0.9999781545418306,-3.823623506564707e-24,0.02065476572308641,0.004689901612756576
1729503119.9513652,-0.13174222072025307,0.028936388289465605,9.767735915200985,0.0014811830037473048,0.00674324702084237,-9.98822092636724e-06,0.999976167024375,-2.294174103938824e-24,0.020480970601630444,0.004516701213502072
1729503119.959369,-0.11280357584035496,0.029093421108444987,9.785216910448716,0.0014865701168510568,0.005763660254993274,-8.568236885317836e-06,0.9999822849712579,-1.3765044623632944e-24,0.02122807365168093,0.002710020728101243
1729503119.9673939,-0.10862299389288485,0.03230010295803574,9.796663188261418,0.00164849268055439,0.005543583901054402,-9.13871032626518e-06,0.9999832753930928,-8.259026774179766e-25,0.022102025543173254,0.003754462744170904
1729503119.975416,-0.13173260248807467,0.03015396924552457,9.804249215447085,0.0015377594969227704,0.006717643730610063,-1.0330365749133705e-05,0.9999762539439233,-4.955416064507859e-25,0.021775016555144584,0.005232508076736763
1729503119.983407,-0.13123315768425103,0.049695843461377245,9.789407798311219,0.0025381618273461986,0.006702254318408871,-1.7011842961431743e-05,0.9999743182863181,-2.9732496387047157e-25,0.02115312110086535,0.005693645214814247
1729503119.9914174,-0.11130103718867562,0.03460590939713885,9.79750177981681,0.0017660199383081757,0.00567975316582843,-1.0030734773382131e-05,0.9999823105820108,-1.7839497832228294e-25,0.02077998382829781,0.005544637436198706
1729503119.9994106,-0.11562233618039287,0.03512875559922081,9.803794689716257,0.001791548704450806,0.005896460605449161,-1.056399696021242e-05,0.9999810108166904,-1.0703698699336975e-25,0.020981791526219318,0.00502954270756735
1729503120.0074058,-0.12396119955979822,0.03711840448257936,9.79536000718913,0.0018946435805552737,0.006327110142313561,-1.1987880085948328e-05,0.9999781886917536,-6.422219219602185e-26,0.020677186083510192,0.004720485870388536
1729503120.0154097,-0.12680973609330082,0.03112958883212574,9.798200063151366,0.001588495491166584,0.0064706257825571595,-1.0278788033296328e-05,0.9999778035428603,-3.853331531761311e-26,0.02134580294080878,0.004535051768081248
1729503120.023413,-0.12684291685129298,0.03471890442232232,9.805410760547069,0.0017703483747668362,0.00646754977136447,-1.1450073646842445e-05,0.9999775180150215,-2.3119989190567865e-26,0.0213212829937259,0.004423791306696875
1729503120.031424,-0.1251868841439789,0.042379157594799634,9.80710355715832,0.0021605748837857995,0.006381995155611663,-1.378909144473497e-05,0.9999773006743035,-1.3871993514340717e-26,0.02088088096401414,0.005208415152790314
1729503120.0394344,-0.1285028275078717,0.03189183903930166,9.80141547047663,0.0016268568540030225,0.0065548540199714105,-1.0664052401267987e-05,0.9999771932958429,-8.32319610860443e-27,0.020616639746187083,0.005679189460446378
1729503120.04737,-0.13575963717855113,0.02799364956615912,9.808297685606291,0.0014269992536017073,0.006920119999679656,-9.875252585904682e-06,0.9999750374458353,-4.993917665162658e-27,0.020032404954028818,0.005110273922115953
1729503120.0553954,-0.12479083235595881,0.027809517376414218,9.783457174596196,0.001421217699427064,0.006377223673240486,-9.063616617698343e-06,0.9999786553103637,-2.9963505990975947e-27,0.020533244201657926,0.0030661643532695717
1729503120.0633805,-0.12156143178662215,0.026980777564520404,9.794649666085842,0.0013772907403684022,0.00620511394137979,-8.546418615681133e-06,0.9999797995750462,-1.7978103594585568e-27,0.020408057688773355,0.003968148919271901
1729503120.0713763,-0.12632755609345764,0.021455710191055993,9.80136516097963,0.0010945010203890252,0.006443965048895245,-7.053076986108734e-06,0.9999786384379514,-0.0021284503073101583,0.02033294578104261,0.00493502972033533
1729503120.07941,-0.12631418868537145,0.02077429159314922,9.797014752105357,0.0010602111053636413,0.006446145265934334,-6.834420635172037e-06,0.9999786613307872,-0.0029798304302342212,0.020713568697866197,0.004663778078049324
1729503120.0873969,-0.12822152956864474,0.02180196143049891,9.782912338812041,0.0011142609300028596,0.006552898980589268,-7.301800618608113e-06,0.9999779086980941,-0.0017878982581405326,0.02094194244796035,0.004501027092677721
1729503120.0954351,-0.13750621974313998,0.016911899514549345,9.805096672086053,0.0008623804986556383,0.007011446632595243,-6.046685722463944e-06,0.9999750476284053,-0.0010727389548843196,0.02065327663655481,0.0027006162556066325
1729503120.1034093,-0.1363732691993996,0.011344240538807731,9.812421767900068,0.0005780402790798571,0.006948502714795312,-4.016612085112672e-06,0.9999756917862179,-0.0006436433729305917,0.020480077149711486,0.0016203697533639795
1729503120.1114106,-0.13569349887315538,0.019974653454144013,9.800536254099415,0.001019032229649654,0.006922243322144178,-7.054161720375757e-06,0.9999755217358787,-0.00038618602375835504,0.02037615745760549,0.0026749820978665137
1729503120.1194131,-0.13025781319108073,0.032335506183814526,9.79579914747918,0.0016504335375094894,0.0066481707259074,-1.0972621362051871e-05,0.9999765386121511,-0.00023171161425501302,0.020313805642341892,0.0037334395660300664
1729503120.1274278,-0.13872798991660157,0.028499270018882465,9.810673975792195,0.0014524200478226745,0.007069690515987768,-1.0268427682792056e-05,0.9999739545841043,-0.0001390269685530078,0.020276394553183735,0.004368514046928198
1729503120.1354065,-0.14069763379371095,0.028591729980079476,9.791107873024144,0.0014600426993936983,0.007184375473251052,-1.0489776860678982e-05,0.9999731260960666,-8.341618113180468e-05,0.020679637961150875,0.004323868674005045
1729503120.143402,-0.15217448725864846,0.032238508447032056,9.799479505308629,0.00164485099060896,0.007763662304166816,-1.2770469781146909e-05,0.9999685094290524,-5.0049708679082805e-05,0.021347274067393188,0.0042970814502511535
1729503120.1514006,-0.1423011877165172,0.03777845785142236,9.807614946837521,0.001925912371340776,0.007253987681628635,-1.3970938112316873e-05,0.9999718347678926,-3.0029825207449682e-05,0.02089647560821451,0.004281009115998819
1729503120.1593955,-0.1368560483232697,0.025300696537025286,9.80411650594431,0.001290273964577406,0.0069789807085383505,-9.005023906669585e-06,0.9999748141529744,-1.801789512446981e-05,0.020625996532707306,0.002568605469599291
1729503120.1674097,-0.12377273788068058,0.017814039748387044,9.803453962404477,0.0009085394114378897,0.0063123203900036,-5.735108479039778e-06,0.999979664360501,-1.0810737074681886e-05,0.02131508921032705,0.0015411632817595746
1729503120.1754127,-0.1264572389198146,0.02313827248184473,9.796352671632139,0.0011809355831871456,0.006453876316476783,-7.6217762413931835e-06,0.9999784761751367,-6.486442244809131e-06,0.021302854755436862,0.0009246979690557447
1729503120.1834066,-0.1271102588792325,0.038543240588716214,9.786345813184361,0.00196918093527647,0.006493791896206311,-1.2787745622801736e-05,0.9999769761498144,-3.891865346885478e-06,0.02129551408250275,0.002683269088743605
1729503120.1913936,-0.13612119683144575,0.03174507032979222,9.791115605586398,0.0016210689845690158,0.006950711406664966,-1.1267869680475117e-05,0.9999745294852883,-2.335119208131287e-06,0.02086541961728025,0.004164101822018353
1729503120.199395,-0.12500776814769557,0.03245457149475033,9.804511968332307,0.0016550417023105928,0.006374580029596724,-1.0550424596112746e-05,0.9999783124923752,-1.401071524878772e-06,0.020607362938146752,0.004626911400521169
1729503120.2074037,-0.1329443410643986,0.03838693601208457,9.796508634856805,0.0019591569576255545,0.006784758244420373,-1.3292737788331692e-05,0.9999750639805391,-8.406429149272631e-07,0.020452528930666652,0.00490459714762286
1729503120.2154374,-0.13339672182613915,0.03428490940998512,9.80559300440041,0.0017481822596792135,0.006801549165452191,-1.1890640800463366e-05,0.9999753410191421,-5.043857489563579e-07,0.020785318587640624,0.002942758288573716
1729503120.223416,-0.12840090663083975,0.012191239835444196,9.814156088284777,0.0006210906684397848,0.006541191144256917,-4.06276048180657e-06,0.9999784132911519,-3.026314493738147e-07,0.020984992381825007,0.0017656549731442294
1729503120.2316568,-0.14000804764061323,0.020961693364157142,9.814026694963053,0.0010679155270399338,0.007132493560143414,-7.617098715913602e-06,0.9999739931788334,-1.8157886962428881e-07,0.020679106596873602,0.0027621532297346643
1729503120.239402,-0.13188886178749293,0.025505704983338037,9.803893411997363,0.00130076078893431,0.006725866385480636,-8.748948559416862e-06,0.9999765350577935,-1.0894732177457328e-07,0.020921265187364792,0.0016572919378407985
1729503120.2473671,-0.140903719904527,0.023683128800549694,9.81576995466912,0.0012063466686052977,0.007176834899447867,-8.657980148413758e-06,0.9999735184961552,-6.536839306474396e-08,0.02191794046458357,0.0026971354085526056
1729503120.2554033,-0.1352993071380287,0.03240580989751732,9.797756762840535,0.0016536884161848316,0.006904065462309282,-1.1417460808581852e-05,0.9999747992146382,-3.922103583884637e-08,0.022090255569452807,0.0033210414909796895
1729503120.2633777,-0.13624622246641097,0.03739999838968226,9.788385368739476,0.0019103687887698463,0.0069590170833702895,-1.3294635217470795e-05,0.99997396085877,-2.3532621503307822e-08,0.021767954570912317,0.00369538514043594
1729503120.2714124,-0.12532220369469033,0.03488984766662186,9.792578759085483,0.0017813968964789475,0.006398391908756476,-1.1398326898250627e-05,0.9999779432948296,-1.4119572901984692e-08,0.02114888391032599,0.004345681391571722
1729503120.2793994,-0.12331677558595483,0.025722311920285613,9.79054581013879,0.0013135996399863048,0.006297345949982555,-8.272362538728553e-06,0.999979308696705,-8.471743741190814e-09,0.02035175145251216,0.004735859142253191
1729503120.2874184,-0.1410277118359479,0.020940050970530744,9.785734738280539,0.0010698966542827858,0.0072051986709168086,-7.709022473094932e-06,0.9999734698349915,-5.0830462447144885e-09,0.020299162039285897,0.0028415154853519147
1729503120.2954159,-0.14040152578320936,0.028365761539349697,9.79697388496051,0.0014476365590592771,0.007164966446704562,-1.0372544491893716e-05,0.9999732833914218,-3.049827746828693e-09,0.019841918329888106,0.003407669537059275
1729503120.303407,-0.12781538568476936,0.026835683730250443,9.801323171308336,0.0013689485911505886,0.006519866480837718,-8.925560106121363e-06,0.9999778083743465,-1.8298966480972158e-09,0.019567572104249434,0.002044601722235565
1729503120.3114185,-0.12313674361789287,0.021847494222525264,9.7850185500018,0.00111634962888494,0.0062917125578770446,-7.023894380092055e-06,0.9999795838252199,-1.0979379888583294e-09,0.01982865443032826,0.0012267610333413388
1729503120.3194094,-0.1313428860144857,0.019094000683905783,9.792474029171,0.0009749082260234048,0.006705849509891648,-6.537737954280292e-06,0.9999770402832054,-6.587627933149977e-10,0.02041099388743759,0.0028645069273149615
1729503120.3274097,-0.12764744547587895,0.023666828877140344,9.796229056174475,0.0012079267757248756,0.006514693189830877,-7.86944507732545e-06,0.9999780495708986,-3.952576759889986e-10,0.02118608762316522,0.004272844525161167
1729503120.335376,-0.12973974414099612,0.036705592931752955,9.776215996937108,0.0018772375034190579,0.0066349819658783745,-1.2455733101752513e-05,0.9999762261366631,-2.3715460559339915e-10,0.020799763741677732,0.004692157022406858
1729503120.3434038,-0.12333367802756641,0.0385433472141299,9.774263808367342,0.001971622903194032,0.006308665227838307,-1.2438580555079019e-05,0.9999781564071549,-1.4229276335603948e-10,0.020142279351323206,0.004518054459292241
1729503120.3513944,-0.13313698782239922,0.03270281496910294,9.790809587510639,0.0016700300341267334,0.006798560817629431,-1.1354078986886118e-05,0.99997549492054,-8.537565801362369e-11,0.01974778871711049,0.004413592921423471
1729503120.3594005,-0.1562572256524239,0.03949356276075864,9.797624592838414,0.002015387306571686,0.007973398855865713,-1.6070030318928348e-05,0.9999661808613549,-5.122539480817421e-11,0.019511094336582865,0.004350915998702209
1729503120.3673725,-0.15025749457114185,0.031118162802939556,9.799798234706953,0.0015876395373315086,0.007665632478651548,-1.2170634131943182e-05,0.9999693581961786,-3.0735236884904525e-11,0.02022045783119035,0.0043133098450694515
1729503120.3753777,-0.134926067787607,0.029444805152466856,9.803257201322218,0.0015017447735595523,0.0068811682116282575,-1.0334014714613098e-05,0.9999751967823435,-1.8441142130942713e-11,0.02022038586649281,0.004716436214351829
1729503120.3834045,-0.1396135813463923,0.02413122757390199,9.784742447014033,0.001233069448867544,0.007133677453105725,-8.7965502416428e-06,0.9999737947108164,-1.1064685278565628e-11,0.020220342687674284,0.004958312035921255
1729503120.3914623,-0.1385953668254135,0.025252644015044314,9.790871846382249,0.0012895645910361232,0.0070772235515999945,-9.126773053998105e-06,0.9999741245885657,-6.6388111671393765e-12,0.020646006841845203,0.005529127590324943
1729503120.3994305,-0.1173943038354825,0.025446653547698463,9.806041653971926,0.0012974713000724384,0.005985468203980707,-7.766118864452387e-06,0.999981245163274,-3.9832867002836254e-12,0.020901405334347756,0.0058716169229671555
1729503120.407404,-0.12574264065089888,0.023408277773150327,9.797665866406595,0.001194556275947073,0.006416550024187533,-7.665093366244071e-06,0.9999787002043279,-2.3899720201701753e-12,0.021054644429849285,0.006077110522552482
1729503120.415436,-0.1307516427401487,0.033677420277171445,9.803653721504112,0.0017175480466754605,0.006668022029496219,-1.14529197216352e-05,0.9999762934088748,-1.433983212102105e-12,0.020720897825688173,0.005349026559379615
1729503120.4234192,-0.11891299370072983,0.02906499830888099,9.810358896720826,0.001481309087015445,0.006060216129325083,-8.977227922790818e-06,0.999980539522277,-8.60389927261263e-13,0.020520649863191503,0.003209415935627769
1729503120.431448,-0.11109154377903165,0.018875519981422343,9.8119878001907,0.0009618427809500151,0.0056607259066450465,-5.4448181040570735e-06,0.9999835153696427,-5.162339563567578e-13,0.019974811024231473,0.0019256495613766613
1729503120.4393735,-0.10472273266390336,0.014916614479087778,9.785192403014811,0.0007621914204333087,0.00535084434954854,-4.078427226237487e-06,0.9999853936495032,-3.0974037381405465e-13,0.020072997782317484,0.0011553897368259966
1729503120.4474118,-0.10784463080927952,0.023075758482374538,9.803112828283496,0.0011769398108054572,0.005500261256688999,-6.473578849515721e-06,0.9999841808233182,-1.8584422428843278e-13,0.020983289960093153,0.002395994087943724
1729503120.4554021,-0.12049167716720834,0.028689505382393475,9.7923172685033,0.0014648651397876319,0.006151975422642003,-9.011994546314678e-06,0.9999800034437215,-1.1150653457305966e-13,0.021529465266758557,0.0035660467600763927
1729503120.4634058,-0.13382598896634063,0.03373369468451421,9.791346596453543,0.001722578456848597,0.0068333615423158,-1.177129367871573e-05,0.9999751685691644,-6.690392074383579e-14,0.021857170450757798,0.003842388301893962
1729503120.4713945,-0.1391929542196481,0.033168905775552274,9.806087083848688,0.0016911890807457008,0.0070966860828033575,-1.2002157413686708e-05,0.9999733880369435,-4.014235244630147e-14,0.021628103499695312,0.004008193226984503
1729503120.479404,-0.149835158518117,0.03235119209814387,9.819959199772104,0.0016471596676425708,0.007628395390137209,-1.2565567878702108e-05,0.9999695466817514,-2.4085411467780883e-14,0.02149066332905782,0.004107676182038828
1729503120.487416,-0.1425735316343077,0.03593070671396444,9.797636688076153,0.0018335817961141522,0.007275275560348752,-1.3340188306290929e-05,0.9999718536865712,-1.445124688066853e-14,0.021408199226675324,0.004593056016533455
1729503120.4954076,-0.13845597567003773,0.04047261714361304,9.795974769193348,0.002065711076238874,0.007066378346415275,-1.459749162433826e-05,0.9999728990936345,-8.670748128401116e-15,0.020933030703783793,0.005309973978692263
1729503120.5034077,-0.14316804707194453,0.04367660373343345,9.794259357365618,0.002229625712998881,0.0073080971587952724,-1.6294796988621316e-05,0.9999708096837513,-5.20244887704067e-15,0.020222239528586844,0.005314434694525516
1729503120.5114079,-0.1450376092490261,0.04535957552131007,9.775513017983824,0.0023199760144510715,0.007417702101993285,-1.7209410733092575e-05,0.9999697970992197,-3.1214693262244016e-15,0.02064714494639274,0.004891421062563435
1729503120.5194035,-0.14448340539316562,0.043735736767864165,9.783658247802013,0.0022350621902402427,0.007383219187274552,-1.65024450663211e-05,0.9999702457068949,-1.8728815957346408e-15,0.020902088197076278,0.004637612883386187
1729503120.5274084,-0.1415172612534775,0.03366346720720287,9.774898436230036,0.001721879801671553,0.007238187258690902,-1.2463633417045434e-05,0.9999723214268555,-1.1237289574407844e-15,0.020629364086024365,0.005336708098803902
1729503120.5353727,-0.1378222134415396,0.0314508281270561,9.778979935761459,0.0016080355173321444,0.007046290044250643,-1.1330980603618383e-05,0.9999738816039128,-6.742373744644706e-16,0.020891419680855252,0.005756165228054531
1729503120.543401,-0.13297156292820503,0.018391656544202408,9.778795213654142,0.0009403607352646108,0.006798488314603379,-6.393182043445913e-06,0.9999764478413734,-4.0454242467868233e-16,0.021474343099215816,0.005582149444142877
1729503120.5514052,-0.1303005927862199,0.023245422393318324,9.795443792010843,0.001186512788254631,0.006650616953306322,-7.891222139024924e-06,0.9999771804492702,-2.427254548072094e-16,0.020972717027308088,0.005903430035257916
1729503120.5593646,-0.14019017866977881,0.01610203493013162,9.778139040099084,0.0008233462561041741,0.0071679864548732245,-5.9018884335715804e-06,0.9999739706793838,-1.456352728843256e-16,0.02067174138416345,0.0060961983899269385
1729503120.5673645,-0.13343466140108604,0.015167884776438345,9.789782844225465,0.0007746599230654481,0.006814511036054235,-5.279052753592759e-06,0.9999764808801629,-8.738116373059537e-17,0.02049115599827667,0.005360479279804289
1729503120.575396,-0.12267758639143285,0.017241016510394256,9.79700854686731,0.0008798933370419782,0.006260591471181379,-5.508762813088488e-06,0.9999800151762034,-5.242869823835722e-17,0.020382804766744603,0.003216287567882573
1729503120.583382,-0.14184129914931282,0.02470981986717405,9.780274993843044,0.0012632101446273711,0.007250795473309843,-9.159526486807853e-06,0.9999729147238128,-3.145721894301433e-17,0.020743484089287396,0.0019297725407295438
1729503120.5913858,-0.1380166361790408,0.03350066486952318,9.783642391325357,0.0017120234818573821,0.007052860330836254,-1.2074980523656746e-05,0.9999736626486451,-1.8874331365808598e-17,0.021811271805737133,0.0028606237702858525
1729503120.599382,-0.1306940149105495,0.02943778539632328,9.796436737285449,0.0015024342766130194,0.006670004566277227,-1.0021477722130993e-05,0.9999766265417909,-1.1324598819485159e-17,0.022451944435606976,0.004696204692405732
1729503120.6073806,-0.1301311648057047,0.032506721530762714,9.788072193738458,0.0016604822482087643,0.006646949516816527,-1.1037400724170244e-05,0.9999765300940818,-6.794759291691095e-18,0.02241065795206685,0.005797553245677661
1729503120.6154041,-0.12452621109045406,0.030756780721192003,9.771082459309481,0.001573828551612418,0.006371753429769963,-1.0028263464068036e-05,0.9999784616287264,-4.076855575014657e-18,0.022811576123404804,0.006032672316178786
1729503120.6233807,-0.11038933139060056,0.0443114463624027,9.782915273925532,0.0022646813774850143,0.00564160286911511,-1.2776669050334405e-05,0.999981521515314,-2.446113345008794e-18,0.022626436964745547,0.006599433819941492
1729503120.63139,-0.11818777485975096,0.041430918110410365,9.781635256884616,0.002117736558823389,0.006040911210623462,-1.2793320641689065e-05,0.9999795110000723,-1.4676680070052764e-18,0.02208966340808796,0.006088110599275054
1729503120.6394157,-0.12214858044319434,0.04544868514358997,9.782064347490145,0.002322996174274546,0.0062430478309016295,-1.4502897993078408e-05,0.999977813669994,-8.806008042031659e-19,0.021341909212631377,0.0053556266054131585
1729503120.6474097,-0.11566651765068221,0.03995847988498211,9.799560053806587,0.002038739847391033,0.005901248266908576,-1.2031344492320358e-05,0.9999805091420402,-5.283604825218995e-19,0.02131894675681946,0.005341826270558053
1729503120.6553993,-0.11608684296345619,0.04576232303841114,9.792579805477311,0.002336519755593904,0.0059268928070008355,-1.3848583175898655e-05,0.9999797060067283,-3.170162895131397e-19,0.020879479221870275,0.005759236131107022
1729503120.6634133,-0.11945150030932372,0.04158318361796856,9.776899488510997,0.0021265481322813888,0.006108453104368471,-1.2990191269125996e-05,0.9999790819937023,-1.9020977370788382e-19,0.020190108639438736,0.006009682047436403
1729503120.6713777,-0.12123087455082861,0.023034548842656134,9.77443448314566,0.0011782799463449323,0.006201047300313344,-7.3067152365714995e-06,0.9999800791092587,-1.141258642247303e-19,0.020627866412903872,0.005734259535772
1729503120.6793704,-0.11655241511135653,0.018848552791921803,9.785884168891302,0.000963028924731403,0.005954798943806546,-5.734747960184355e-06,0.9999818062904653,-6.847551853483818e-20,0.020890521076982957,0.005569006028773358
1729503120.6873965,-0.11422417977970455,0.017294635825543705,9.782219493034,0.0008839665195118845,0.00583804713349059,-5.16072816849751e-06,0.9999825677391714,-4.10853111209029e-20,0.020622423813968373,0.0058955439860362046
1729503120.695415,-0.11258781841469774,0.014446924317591849,9.787682132832119,0.0007380023090351074,0.005751212467894343,-4.244479433712817e-06,0.9999831893035629,-2.465118667254174e-20,0.020887255517621654,0.00566577669893188
1729503120.703384,-0.11807034607811552,0.023272784717508235,9.796226960363335,0.0011878193566275434,0.006025967899779025,-7.157896324621858e-06,0.9999811381945218,-1.4790712003525044e-20,0.021046154539813625,0.005527916326669286
1729503120.7113798,-0.12279638367225994,0.026413519463317436,9.786509806589093,0.0013494548763263946,0.006273358835529424,-8.465788967563352e-06,0.9999794117224553,-8.874427202115026e-21,0.020715803891666773,0.005019510041849698
1729503120.7193828,-0.12084360290843409,0.04864867442213109,9.791214001629237,0.0024842302915451743,0.006170574786620394,-1.5329467951219178e-05,0.9999778759410973,-5.324656321269015e-21,0.020943283564240696,0.004714466270957945
1729503120.7273996,-0.12158729577826359,0.041878473452106775,9.790684636329106,0.002138632188000447,0.006208905660030729,-1.3278851821367695e-05,0.9999784375508011,-3.194793792761409e-21,0.02193115149070911,0.002828679762574767
1729503120.735378,-0.13017379714469252,0.029436647059545313,9.794437159971292,0.0015026831557184278,0.006644814732663634,-9.985282891404812e-06,0.9999767938711359,-1.9168762756568454e-21,0.02209818218512813,0.0033999681033929866
1729503120.7434087,-0.1367622189606436,0.025802273880258436,9.79142143050426,0.0013175590778764699,0.006983236410254785,-9.201058862491005e-06,0.9999747488625177,-1.1501257653941072e-21,0.02177271054031751,0.004168431169345951
1729503120.7514017,-0.12587122175724555,0.03655033893753006,9.796315757472478,0.0018654647675862808,0.006423962748865737,-1.1983944304468853e-05,0.9999776260497968,-6.900754592364643e-22,0.020726047430507075,0.004203818947455697
1729503120.7593896,-0.12244908559340983,0.02456382518868991,9.791112068008877,0.001254365574316823,0.006252682128943581,-7.843308703147198e-06,0.9999796650290859,-4.1404527554187857e-22,0.020523739626082844,0.004225051614321545
1729503120.767393,-0.12470536688338967,0.03125828656829207,9.776737106527982,0.0015985653163489411,0.00637722796664327,-1.0194635773587088e-05,0.9999783874906799,-0.0017027602458481264,0.019976664881966276,0.004663481275903085
1729503120.7754025,-0.13180521964175254,0.02593757692144399,9.791814726074993,0.0013244173077249827,0.006729890765589668,-8.913393479440756e-06,0.9999764769281474,-0.0010216561475088757,0.019648420035496335,0.004500849011389977
1729503120.7833765,-0.14516309760536403,0.02394225196341327,9.79535463398484,0.0012220851494459909,0.007409155029802273,-9.054873633788005e-06,0.9999718050263423,-0.0006129936885053254,0.020302853250538433,0.002700509406833986
1729503120.7913976,-0.13761551359251528,0.03711026694953234,9.790056553584263,0.0018952451241419286,0.007027747069967744,-1.3319656219485896e-05,0.999973508968926,-0.00036779621310319523,0.020695513179563692,0.0016203056441003916
1729503120.7993827,-0.14290318999144666,0.0299276054822194,9.784244083517747,0.0015293297274217616,0.007302093213419822,-1.116761902027798e-05,0.9999721698430271,-0.00022067772786191713,0.020931109136978848,0.0009721833864602349
1729503120.8073792,-0.12764044304760236,0.03136409258620664,9.794403550940725,0.0016010816504265681,0.006515531870549522,-1.0432133328380992e-05,0.9999774918832739,-0.00013240663671715028,0.02149815677288997,0.0027117603391862994
1729503120.8154113,-0.14601611397309266,0.040366270493130234,9.783500399607403,0.0020629039946604023,0.00746166299287159,-1.53931556747465e-05,0.9999700334387728,-7.944398203029017e-05,0.02183838535443665,0.004181196572283969
1729503120.82338,-0.13669080241705872,0.04097917391697189,9.789887197772254,0.0020928671311631437,0.006980637844852044,-1.4609935469190412e-05,0.9999734448419119,-4.7666389218174096e-05,0.02161683244190262,0.004637168250680539
1729503120.8314283,-0.12702547266117273,0.034164310990808126,9.771932041563744,0.0017480373312555068,0.0064990451091004875,-1.1360830756181596e-05,0.9999773530681032,-2.8599833530904456e-05,0.021058210632920172,0.00448506119625645
1729503120.8394115,-0.11955033364553176,0.034145536057375504,9.783664443444104,0.0017449861234084525,0.00610930245461799,-1.0660863191601784e-05,0.9999798154629388,-1.7159900118542672e-05,0.021148727608992737,0.004393796963601996
1729503120.8473704,-0.12990930052911592,0.03868325425161281,9.786633741750057,0.001976274103246955,0.006636574573466193,-1.3116004923490702e-05,0.9999760247358784,-1.0295940071125602e-05,0.021628727856098304,0.004764728485471356
1729503120.8554037,-0.13923714281746954,0.03039255753143643,9.802301690362533,0.0015502303361117752,0.007101687798679435,-1.1009542724232682e-05,0.9999735809985707,-6.177564042675361e-06,0.021491037942899617,0.004987287398592972
1729503120.8634076,-0.1407637053682161,0.04145929062237748,9.791351745418691,0.002117067142390548,0.007187527505947429,-1.5216905483374761e-05,0.9999719282277436,-3.7065384256052164e-06,0.021408423994980403,0.002992372439155783
1729503120.8714185,-0.13425761775217968,0.03924078433436399,9.789091341440667,0.0020042508075557193,0.00685695923265998,-1.37434167822356e-05,0.9999744821243692,-2.2239230553631297e-06,0.02093316556476684,0.0017954234634934697
1729503120.8793693,-0.12963570468451094,0.03695199989749339,9.802818569512839,0.001884711155119347,0.006611672551710715,-1.2461387518805647e-05,0.9999763664680503,-1.3343538332178779e-06,0.020648010506638705,0.0010772540780960818
1729503120.887387,-0.1297355988360972,0.03486046873732416,9.790225351912781,0.0017803220066602914,0.006625283076220759,-1.1795414834279896e-05,0.9999764676924056,-8.006122999307267e-07,0.020902607533223858,0.0027748027541678075
1729503120.8954134,-0.12907727482900208,0.03959105419161325,9.789133765835167,0.002022135848003557,0.006592388243351285,-1.3331021531602749e-05,0.9999762253204548,-4.80367379958436e-07,0.020203985626250885,0.0037933319598108424
1729503120.903381,-0.13107648208490125,0.022796951850905443,9.791591276346804,0.0011640791497118754,0.0066928462889010165,-7.791182598148213e-06,0.9999769250675656,-2.882204279750616e-07,0.0197848124820671,0.004404449483196664
1729503120.9113834,-0.1234174602958626,0.02804338107148076,9.7856437575073,0.0014328497733658917,0.0063056385943589905,-9.035221733195699e-06,0.9999790926723463,-1.7293225678503694e-07,0.020810378779942924,0.004771119997228157
1729503120.9193833,-0.12384987070876756,0.033585440263982205,9.775371481555162,0.0017178166019796417,0.00633436300028675,-1.088150828877485e-05,0.999978462184609,-1.0375935407102216e-07,0.02142571855866842,0.004565432244185021
1729503120.9273844,-0.13392554376315116,0.0323616926251862,9.786446367937003,0.0016533464218811385,0.006841871885002308,-1.1312264635980731e-05,0.9999752272465309,-6.225561244261329e-08,0.02051785224151762,0.002739259346511012
1729503120.9353774,-0.12416921663875007,0.029233242381752345,9.793091299766107,0.0014925079794723837,0.006339215906651924,-9.461530973911655e-06,0.9999787931111838,-3.735336746556797e-08,0.020398822512689173,0.0033463158537547335
1729503120.9433806,-0.11735773970004691,0.03645413854428578,9.783191889234665,0.0018630559065340377,0.005997551229646373,-1.117399360608592e-05,0.9999802789440794,-2.241202047934078e-08,0.020753094736854136,0.003710549758100966
1729503120.9514134,-0.1149467946989344,0.03671653341954022,9.799278898189236,0.0018733870018115286,0.00586470988864869,-1.0987079506759776e-05,0.9999810475595763,-1.3447212287604468e-08,0.020965658071353116,0.004354780162170738
1729503120.959364,-0.11421848819631376,0.040944113166958514,9.800551397751432,0.002088817284981705,0.00582678569654738,-1.2171323851604099e-05,0.9999808424478218,-8.06832737256268e-09,0.020667506010590468,0.004315628343150569
1729503120.9674098,-0.1176122269509914,0.04587486267556573,9.799399536160625,0.00234063457384136,0.006000585201717828,-1.404546853312404e-05,0.9999792568897384,-4.840996423537608e-09,0.020914304835594914,0.004292137251738467
1729503120.9753792,-0.13185889867059483,0.03351042175573006,9.802060301530359,0.0017093083307876714,0.006725575270264588,-1.1496358647031838e-05,0.9999759220952013,-2.9045978541225646e-09,0.02106238413059758,0.004278042596891207
1729503120.983378,-0.12604169174141938,0.022021614381563036,9.812036466562747,0.0011221472995407182,0.006422392383331838,-7.207023443450593e-06,0.9999787465789317,-1.7427587124735386e-09,0.022002611830523246,0.004695275865444882
1729503120.9913888,-0.14242324136321102,0.02422629626565657,9.805093476617335,0.0012353567291906833,0.007262114906249798,-8.97154593911972e-06,0.9999728673820862,-0.001702761291503354,0.02214105838901661,0.004945615826577088
1729503120.9993842,-0.13190145702495787,0.028661567554315818,9.793266237337587,0.001463291152364783,0.0067337993351697595,-9.853742946053806e-06,0.9999762570323462,-0.0010216567749020123,0.021372746201188564,0.004670129741794379
1729503121.0073798,-0.12702490741809971,0.027492007671261365,9.801732204560755,0.001402370817279502,0.006479277393867872,-9.086549203163852e-06,0.9999780258775584,-0.0006129940649412073,0.020060378765567675,0.002802077845076627
1729503121.015382,-0.12888738097429733,0.038761280042209946,9.804657003400516,0.001976621018806454,0.006572273306657411,-1.2991199518465427e-05,0.9999764487347487,-0.00036779643896472437,0.019698648365657174,0.0016812467070459762
1729503121.023381,-0.13455384826231276,0.04097386031048222,9.798750437391872,0.0020907047114713845,0.0068653072551447415,-1.4353699863085884e-05,0.9999742478204492,-0.00022067786337883461,0.020332990248634938,0.0010087480242275857
1729503121.031405,-0.13316532531480954,0.0387101059812112,9.799994901106997,0.0019749474790325228,0.006793616168231301,-1.341737092448763e-05,0.9999749727777131,-0.00013240671802730076,0.020713595378421594,0.0006052488145365515
1729503121.0393693,-0.13472641320646386,0.036633592885601717,9.80792418431654,0.0018674952038744625,0.006867697191187442,-1.2825716400616467e-05,0.9999746731955038,-7.944403081638046e-05,0.02094195845629359,0.0020659095345700574
1729503121.047369,-0.14715523391020646,0.03299348336807978,9.795204082123128,0.0016841086123564747,0.00751090720530725,-1.2649558260471395e-05,0.999970374506727,-4.7666418489828275e-05,0.021504666364478817,0.0029423059665901604
1729503121.055406,-0.1510212238422176,0.03080941765756662,9.810077516412548,0.0015702401236378566,0.007696517861817133,-1.2085754023401695e-05,0.999969148430436,-2.8599851093896963e-05,0.021416601047927922,0.0017653835799540962
1729503121.0634131,-0.14041212883658055,0.01992217159063372,9.794580720052606,0.0010169709697500058,0.007167276994417133,-7.289103627594486e-06,0.9999737975854172,-1.7159910656338176e-05,0.020938071796535354,0.002761990393820584
1729503121.071379,-0.13883507515351085,0.027515613745395857,9.775226995263985,0.0014073745068715186,0.007100801195450987,-9.993748431375515e-06,0.9999737985664949,-1.0295946393802905e-05,0.021076644307161843,0.003785644543602509
1729503121.0794022,-0.13333985978937213,0.028719796714034393,9.780613592177923,0.0014681599344417593,0.00681602681247491,-1.000726072667483e-05,0.9999756927969566,-6.177567836281743e-06,0.021159787813537737,0.003974146972009632
1729503121.0873916,-0.13530997422323263,0.01795013852646751,9.785760911654409,0.0009171320425624508,0.006913105215474187,-6.34038448199905e-06,0.9999756836068044,-3.706540701769046e-06,0.02078398385590124,0.004087248429053905
1729503121.0954134,-0.13457668155542393,0.019389209092443006,9.7811878580278,0.0009911221269866823,0.006878857703013356,-6.817952736985398e-06,0.9999758491819423,-2.2239244210614276e-06,0.020984191542781378,0.004155109303280469
1729503121.1033833,-0.13222134462661372,0.024562214420309553,9.787302571994413,0.0012547672633710415,0.006754249966075927,-8.475211739705716e-06,0.9999764025189202,-1.3343546526368565e-06,0.021104316154909458,0.00462151588927844
1729503121.1113806,-0.12721683997909325,0.038679345253748235,9.805815450667351,0.001972210956878984,0.006486333284162466,-1.2792711567590495e-05,0.9999770185863348,-8.006127915821139e-07,0.02117639092218631,0.004901359840877222
1729503121.119383,-0.12708717918276843,0.06007831271865519,9.7814889933008,0.0030709099944309093,0.006495746162708686,-1.9948366742238655e-05,0.9999741868646702,-4.803676749492683e-07,0.02121963578255242,0.005069266211836491
1729503121.1274114,-0.12820648353505168,0.04634205476986499,9.783173690169933,0.0023683843217733535,0.006551883584665386,-1.5517754954601473e-05,0.9999757313737152,-2.8822060496956096e-07,0.020394202575848022,0.004744319972950021
1729503121.1353767,-0.14467979710345288,0.03642435883848149,9.78921233177774,0.001860371107783426,0.007389087656557423,-1.3746844264349505e-05,0.9999709696856051,-1.7293236298173656e-07,0.01989894265182538,0.004975042291080171
1729503121.1433718,-0.14259277694371233,0.04316301007847952,9.776554945453363,0.002207398279534617,0.0072919176311807155,-1.6096633604333174e-05,0.999970977114333,-1.0375941778904194e-07,0.020878856881797893,0.005113475681958261
1729503121.1513665,-0.1468472286662274,0.043375478166228346,9.787156446275924,0.0022158575744224795,0.007501312155463786,-1.6622347843066316e-05,0.9999694095395387,-6.225565067342515e-08,0.021892495481243432,0.005196535716485115
1729503121.1594107,-0.15275178202395517,0.049488463169268256,9.799742271085867,0.002524884110542296,0.007792829057558544,-1.9676650461833172e-05,0.999966447631288,-3.735339040405509e-08,0.022074988579448722,0.005246371737201227
1729503121.1674032,-0.13881684191945123,0.04788901051874845,9.79101319468277,0.0024454736566894074,0.00708835241443245,-1.7334866435417943e-05,0.9999718869139,-2.2412034242433055e-08,0.021333104315447833,0.004850583288168862
1729503121.175409,-0.13093471818878014,0.0452533977663272,9.774283580872162,0.0023148488638111554,0.006697378549526606,-1.5503808382137058e-05,0.9999748928622828,-1.3447220545459832e-08,0.0208879737570473,0.005464490341673507
1729503121.1834147,-0.13027558677264306,0.03265870247815569,9.794412753503766,0.0016671655621573968,0.006650017869345079,-1.108694133844545e-05,0.9999764985730443,-8.068332327275898e-09,0.021046585483469014,0.005407144512314262
1729503121.1914356,-0.12317634327452334,0.03300275078376842,9.79978649243429,0.0016838087600004703,0.006284227393007383,-1.0581661080676826e-05,0.9999788363571307,-0.0017027650868475226,0.021141752519322043,0.005372737014698715
1729503121.1996105,-0.11843795684362027,0.04134946541166729,9.790321466993777,0.0021116978828440054,0.006048327303668317,-1.2772502067155692e-05,0.9999794789423143,-0.00272441929795664,0.020773162679371827,0.005352092516129387
1729503121.2075715,-0.12445347112765652,0.04563923369035976,9.793261577706032,0.0023300666279148976,0.006353564894119564,-1.4804568535976531e-05,0.9999771011295561,-0.0016346515787739838,0.020126318713939665,0.00533970581698779
1729503121.2155545,-0.1378790065047189,0.036960346854840856,9.801011148283775,0.001885478877553206,0.007033332986781275,-1.3261552373543875e-05,0.9999734881588764,-0.0009807909472643902,0.0201639023961424,0.005332273797502832
1729503121.2234178,-0.13468157992822197,0.033189535749623265,9.794647562993703,0.0016942200801656586,0.006874727469447054,-1.1647593288937422e-05,0.9999749334882722,-0.0005884745683586341,0.020612142666926073,0.0057535046472738886
1729503121.2314208,-0.13228428365029254,0.03571545240680521,9.793223613479816,0.0018234254951750553,0.006753350037730696,-1.2314531932398104e-05,0.9999755333162326,-0.00035308474101518046,0.020029706706472215,0.005580553095674491
1729503121.239482,-0.12438156140111303,0.02358405293822375,9.798594168087888,0.0012034128230399997,0.006346502061305886,-7.637621308714328e-06,0.9999791366077744,-0.00021185084460910827,0.0196802451301999,0.005051092103252821
1729503121.2474232,-0.13017441535629282,0.028994482055903,9.781226366575389,0.001482110622154559,0.006653820827913266,-9.86192767191332e-06,0.9999767646896782,-0.00012711050676546495,0.01947056818443651,0.005159105569261851
1729503121.2554078,-0.12862230424307258,0.03248015969252618,9.77846713098039,0.0016607559455046894,0.006576341232344614,-1.0921949044463118e-05,0.9999769964886174,-7.626630405927897e-05,0.019344762016978476,0.005223913648867269
1729503121.2634141,-0.13870436521185917,0.028586062124109458,9.7938104214105,0.0014593515854956821,0.0070806555092305145,-1.0333435888350278e-05,0.9999738669103956,-4.575978243556738e-05,0.019694968377965687,0.006114178619554583
1729503121.2714212,-0.1428382404650061,0.034150469061575046,9.79511553019005,0.0017431835977612209,0.007290662681760811,-1.2709320693640922e-05,0.9999719032988269,-2.7455869461340426e-05,0.020330782256020044,0.005371267417580875
1729503121.2794123,-0.13981190179853492,0.04299577704241377,9.80523598193239,0.0021924169321725696,0.007128821981300868,-1.5629784743617543e-05,0.9999721860936255,-1.6473521676804256e-05,0.02113796064431469,0.003222760450548525
1729503121.287531,-0.13895377926271468,0.03274065103990139,9.80651984965748,0.0016692802470293791,0.0070841824090734145,-1.1825798985715967e-05,0.9999735135108341,-9.884113006082553e-06,0.020770887554367415,0.0040621065776392734
1729503121.295757,-0.13436876291895694,0.02467221411026896,9.791009599003472,0.001259908445335796,0.006861332298991462,-8.644860864795424e-06,0.9999756670414829,-5.9304678036495315e-06,0.020124953638937015,0.004565714253893722
1729503121.3034356,-0.12371688763418667,0.026774336766942623,9.772366062136458,0.0013698680258248492,0.006329525093430256,-8.670795870480803e-06,0.9999790300293806,-3.5582806821897188e-06,0.02016308335114081,0.0044421887981843594
1729503121.3114164,-0.12115648511957451,0.03330285401329058,9.785121956617811,0.0017016673814039876,0.006190451385622323,-1.0534306300051035e-05,0.9999793910520325,-2.134968409313831e-06,0.020185961178463087,0.004368073524758742
1729503121.319406,-0.1253663275951822,0.040332426519302474,9.779607384175764,0.002062010578882033,0.006409115696563872,-1.3215963903054115e-05,0.9999773353300059,-0.0017040412268937146,0.021051067997780518,0.004749294422165403
1729503121.3274171,-0.13196237590281243,0.03928292637056585,9.767200674401943,0.002010901451311662,0.00675485301767601,-1.3583681104784953e-05,0.9999751637173526,-0.0010224247361362287,0.021570132089370975,0.004978026960609399
1729503121.3354154,-0.10958378662567184,0.034822503625073886,9.779628522316946,0.0017803216985091646,0.005602347718738082,-9.974153540901103e-06,0.9999827218783355,-0.0006134548416817372,0.021030190421401185,0.005115266483675798
1729503121.3434157,-0.11722560766876249,0.04411725827855995,9.772959441271027,0.0022570489697721595,0.005997046819530776,-1.3535906234098135e-05,0.9999794702773511,-0.00036807290500904226,0.021131915482081345,0.005197610197515637
1729503121.3514056,-0.13354228842938248,0.03389238011362034,9.777098278288006,0.0017332036845031484,0.0068288126184539505,-1.1836016945834162e-05,0.9999751812835751,-0.00022084374300542533,0.02161864057995147,0.0048213263643575085
1729503121.3594024,-0.13638911207130136,0.03302469686700033,9.777187378838038,0.001688814941351329,0.006974305746169589,-1.1778615012731397e-05,0.9999742530809066,-0.0001325062458032552,0.021484985577211513,0.004595556064462631
1729503121.367364,-0.1438432902408277,0.03202524658699707,9.77771967950009,0.0016376117292398586,0.007355020301727078,-1.2045009466984036e-05,0.9999716104765691,-7.950374748195311e-05,0.021830482637029573,0.004885783945987737
1729503121.3753767,-0.1540618811269185,0.03334093774712012,9.768222833090679,0.0017065393932346486,0.007885077645789391,-1.3456633553709637e-05,0.9999674560168137,-4.7702248489171864e-05,0.021612090811458377,0.005059920674902801
1729503121.3834064,-0.1403211618792761,0.02958136928889707,9.781199498194251,0.0015121088421330621,0.007172409256087764,-1.0845754830890566e-05,0.9999731346164668,-2.8621349093503117e-05,0.02148105571611566,0.005164402712251839
1729503121.3914192,-0.14189295713733127,0.03786011551865074,9.773183766299363,0.0019368747208247383,0.007258658764242939,-1.4059509431162792e-05,0.9999717796976024,-1.717280945610187e-05,0.020976744597447996,0.005227091934661261
1729503121.39941,-0.1485821182765394,0.032532296117831074,9.760952302015946,0.0016663938008167477,0.007610332152967985,-1.2682195195450472e-05,0.999969652447205,-1.030368567366112e-05,0.020674157926247397,0.005264705468106915
1729503121.4074013,-0.1437370688174861,0.029335604477339267,9.77851312071152,0.0014999561400849783,0.007349001525743993,-1.102349004511758e-05,0.9999718706976887,-6.182211404196672e-06,0.020918295984989073,0.005287273588174307
1729503121.4154232,-0.13795699714986664,0.031966572647341054,9.795513956411288,0.0016316459234684427,0.0070412751990410445,-1.1489168086766144e-05,0.9999738786804138,-3.709326842518003e-06,0.020639088758772045,0.004875124398752711
1729503121.4234147,-0.14406576078992,0.020137624252467134,9.791109827704194,0.0010283321285592673,0.007356351211634044,-7.564980995732503e-06,0.999972412905804,-2.2255961055108016e-06,0.02047156442304183,0.004627834885099753
1729503121.4313796,-0.12546494353449886,0.026687204678433402,9.788946190811968,0.001363096696899552,0.0064080765245288305,-8.73501540629257e-06,0.9999785389928877,-1.3353576633064809e-06,0.02079673988306573,0.0049051512383700095
1729503121.4394114,-0.13273980596444931,0.026307389945731917,9.79339409266101,0.0013430834248164686,0.0067765098893130225,-9.10163530099703e-06,0.9999761371941803,-8.012145979838885e-07,0.020566155097618038,0.005071541050332164
1729503121.4474068,-0.12297893362749772,0.036135148078767276,9.78648602712981,0.00184612850512447,0.006282674086900477,-1.1598872404572246e-05,0.999978559610818,-4.807287587903331e-07,0.020427804226349423,0.005597064998971488
1729503121.4553921,-0.11855893122142049,0.031497315653900994,9.781862347479057,0.001609948628892647,0.006059767981731702,-9.756106925508122e-06,0.9999803433979282,-2.8843725527419987e-07,0.020344793703588254,0.005912379368155082
1729503121.4633906,-0.12308953475824293,0.02823577586694997,9.78483422367298,0.001442799451172192,0.006289406020146338,-9.074540480618445e-06,0.9999791805929312,-1.7306235316451993e-07,0.020720677451393586,0.005675877928203207
1729503121.4713783,-0.126047317046352,0.018617406682279358,9.77919532424285,0.0009518666269419647,0.0064442510558029974,-6.1341976677160035e-06,0.9999787825452228,-1.0383741189871195e-07,0.020946207700076783,0.005108287002770051
1729503121.4793673,-0.13835647372390494,0.013085805337492614,9.788740673549617,0.000668393269313729,0.007066585989387813,-4.723377503763633e-06,0.9999748079779719,-6.230244713922717e-08,0.021507215910748733,0.0030649722016620304
1729503121.4874868,-0.14430544673434295,0.020780172167339316,9.790637160477425,0.0010611949942225913,0.007368942586107021,-7.820101712479744e-06,0.9999722858605596,-3.73814682835363e-08,0.021418130775689874,0.0035417435668453445
1729503121.4954274,-0.13350962057966825,0.031861136747669216,9.77812810317122,0.001629158336138376,0.00682642939151498,-1.1121608246794583e-05,0.9999753724873369,-2.2428880970121777e-08,0.020938989633192524,0.004253496447417364
1729503121.5034108,-0.14786167933022282,0.02294740470485153,9.781875416590232,0.0011729180170823009,0.007557267758062348,-8.864314745650407e-06,0.9999707555167711,-1.3457328582073065e-08,0.020225814886232082,0.004254858114298545
1729503121.5114162,-0.14306538528368057,0.03148553510806717,9.781490182815466,0.0016093936969659704,0.007312433025453002,-1.176891351947271e-05,0.9999719686254556,-8.07439714924384e-09,0.021500670283903945,0.004681365175889286
1729503121.519428,-0.13085022238114583,0.03277769069374655,9.782934983712718,0.0016752023067140972,0.006687181673952217,-1.1202648370746795e-05,0.9999762373041631,-4.844638289546303e-09,0.022265583522507064,0.004937269412843729
1729503121.5274174,-0.1302248892880625,0.03307414371312293,9.774464477776458,0.001691818446510206,0.0066609935863474355,-1.1269457959691524e-05,0.999976384115038,-2.906782973727782e-09,0.02144746128128284,0.004665121893554364
1729503121.5353773,-0.12434302561385313,0.04091346083724876,9.782789703511579,0.0020910361244931867,0.006354738172159702,-1.328828444362644e-05,0.9999776220966702,-1.7440697842366692e-09,0.020956587936548303,0.004501833381980744
1729503121.5434082,-0.13733389886440564,0.03699792513516176,9.777729191979994,0.0018918900824809186,0.0070222087807496674,-1.3285598497293758e-05,0.9999735542299347,-1.0464418705420014e-09,0.021087753991169612,0.0027011000291884465
1729503121.5514073,-0.14034001949442462,0.04542251118461268,9.765355498586434,0.0023256154534568377,0.007184953708369602,-1.6709915886037776e-05,0.9999714834302775,-6.278651223252009e-10,0.02201783374686646,0.0037491103248232264
1729503121.5594056,-0.13160920456774852,0.03898509484553323,9.772296492511234,0.0019946152431351417,0.006733266093298042,-1.3430606358680553e-05,0.9999753419246734,-3.767190733951205e-10,0.02257588160028457,0.004803606563666126
1729503121.5674012,-0.13546868192033662,0.01860265358700744,9.777418769530179,0.0009512819584135209,0.006927115824547667,-6.589801397115161e-06,0.9999755547439965,-2.260314440370723e-10,0.022059330189411377,0.005010614245509834
1729503121.5754182,-0.14137567082212385,0.027442163441266963,9.763493303954435,0.0014053030715747517,0.007239409816113562,-1.0173841502008917e-05,0.9999728076129292,-1.3561886642224336e-10,0.021323709281425428,0.004709128793154027
1729503121.5833788,-0.12337204922178993,0.032745869353822676,9.778840621044536,0.0016742810027998518,0.006307691595534625,-1.0561073111963531e-05,0.999978704622415,-8.137131985334602e-11,0.02130802679809589,0.004528237521740542
1729503121.5913875,-0.14130029618346457,0.03904055505955923,9.780387565986096,0.0019957932320884375,0.007223018006229293,-1.4416055227352233e-05,0.9999719219120274,-4.882279191200761e-11,0.020872927246636135,0.004419702758892452
1729503121.599394,-0.13505841257336,0.040902005154876166,9.77604848929869,0.0020918841597060084,0.006907047877245719,-1.4449120330009428e-05,0.9999739579116582,-2.929367514720456e-11,0.02061186751576028,0.004354581901183597
1729503121.6073782,-0.1349045848975316,0.037230471891753825,9.788528513745229,0.0019016827042265107,0.00689040019746992,-1.310368964616661e-05,0.9999744525818169,-1.7576205088322736e-11,0.02130661180015883,0.004315509386558284
1729503121.6154118,-0.13098156563578459,0.03526697209989604,9.793861746919012,0.0018004124226024324,0.006686418671744911,-1.2038599867165613e-05,0.9999760248003583,-1.054572305299364e-11,0.021723458370797963,0.0042920658777830965
1729503121.6233842,-0.13126137590490825,0.03983495620915638,9.789879081842814,0.002034436673533671,0.006703411193538424,-1.3638000215357038e-05,0.9999754622788485,-6.3274338317961846e-12,0.02154787625171941,0.002575239526669858
1729503121.6314518,-0.12759853941013244,0.03299894003408758,9.763308046029515,0.0016899019208587345,0.0065341304390123455,-1.1042291075218247e-05,0.999977224365121,-3.796460299077711e-12,0.021442526980272276,0.0015451437160019148
1729503121.6394138,-0.11630287120467322,0.032488632819280674,9.782081348613803,0.0016605822581626966,0.0059443333598206685,-9.871242527001378e-06,0.9999809534536294,-2.2778761794466263e-12,0.02180500747886603,0.0009270862296011488
1729503121.6474,-0.12652430206850707,0.03361896948649028,9.776825338709296,0.0017192742735720617,0.0064701688693422936,-1.112424417489855e-05,0.9999775901924132,-1.3667257076679757e-12,0.02202249577802228,0.0005562517377606892
1729503121.655405,-0.12643223627040112,0.031663549660644164,9.778699556252922,0.0016189646161190033,0.006464227796733117,-1.0465588450794071e-05,0.99997779605501,-8.200354246007854e-13,0.022152988757516034,0.00033375104265641353
1729503121.6633992,-0.1299682992817719,0.026180734776855244,9.784373069933393,0.0013378508691681945,0.006641157193332953,-8.885081815661073e-06,0.9999770522903216,-4.920212547604712e-13,0.021805594483750253,0.002754390994366038
1729503121.6714172,-0.1368783404089069,0.024566987008691272,9.78538297648152,0.001255255118253681,0.006993479944456775,-8.778823094746469e-06,0.9999747574292998,-0.0017027602461433392,0.022022847980952817,0.004632465026853844
1729503121.6794016,-0.13695422226292225,0.04011872980287102,9.787904281738522,0.0020493383961987925,0.006995508279460134,-1.4336544624498392e-05,0.999973431082303,-0.0010216561476860035,0.022153200079274356,0.004907929323422464
1729503121.6873806,-0.1362814908772846,0.03245094369226948,9.795881409375143,0.0016563080139378949,0.006955508164287588,-1.1520758402746413e-05,0.9999744383819077,-0.0006129936886116021,0.022657101399729308,0.004647517839901605
1729503121.6954165,-0.14282103686035513,0.040060700492705444,9.807371450605556,0.00204230796106434,0.007280655783820509,-1.4869766395753547e-05,0.9999714099955257,-0.0003677962131669613,0.02295944219200228,0.004916961011251121
1729503121.703382,-0.13549201664746308,0.029782504279998265,9.801097366212943,0.0015193023918506213,0.006911548825796321,-1.0500995599605648e-05,0.9999749607379176,-0.00022067772790017675,0.02314084666736606,0.005078626914060831
1729503121.7113817,-0.1382772095001966,0.019545443730108334,9.801642478565656,0.0009970221316456238,0.007053233547637831,-7.032408368880995e-06,0.9999746285751138,-0.00013240663674010604,0.023249689352584334,0.005175626455746657
1729503121.7193828,-0.13372340089543047,0.021543493044705625,9.811067512285879,0.001097889391064667,0.006814430902613116,-7.481669616668953e-06,0.9999761787734662,-7.944398204406363e-05,0.0220379247793292,0.005233826180758152
1729503121.7273915,-0.13530067872085202,0.016996238649089,9.793498776414497,0.000867708169473069,0.006907170989017207,-5.9935539265758744e-06,0.9999757687241918,-4.7666389226438176e-05,0.020885175973914087,0.0048430559543030174
1729503121.7353866,-0.12379719678329244,0.013310205347656524,9.804744769999088,0.0006787489444562621,0.006312742293136646,-4.2848535332559515e-06,0.999979844079995,-2.8599833535862906e-05,0.02019352669066502,0.004608593818429937
1729503121.7433705,-0.12575365376333483,0.01828119034726579,9.780367744567812,0.0009345647332154106,0.006428469109237348,-6.007947283064885e-06,0.9999789004461922,-1.7159900121517744e-05,0.02020422718217761,0.002765156291057962
1729503121.7513716,-0.128364048947454,0.036586671972031345,9.77867021827389,0.0018706868940927565,0.006562990130930754,-1.2277585525999371e-05,0.9999767134990427,-1.0295940072910646e-05,0.019784957415623135,0.001659093774634777
1729503121.7594097,-0.11771985759112866,0.03488069214806255,9.782679525983864,0.0017827359683251745,0.0060163746667810415,-1.0725818684168216e-05,0.9999803122928436,-6.177564043746388e-06,0.01953339555569045,0.0031239065720910244
