Time,Accel_x,Accel_y,Accel_z,Orientation_x,Orientation_y,Orientation_z,Orientation_w,Gyro_x,Gyro_y,Gyro_z
1730103295.3386607,-1.0167506547488163,-0.016335079425851953,9.75213887802071,-0.000836336786539073,0.05191851941232631,4.348002341013374e-05,0.9986509730593062,2.8458552671207896e-10,0.0024830201303463334,0.0013093941217818923
1730103295.3465714,-1.0208953977321022,-0.016744232469964298,9.756465654693285,-0.0008568960122270882,0.052105510055996104,4.470975465314501e-05,0.9986412166299099,1.7075131602724737e-10,0.0014898120782078,0.0007856364730691353
1730103295.354594,-1.0387051341470739,-0.003582194999556702,9.748766653558159,-0.0001834564287715407,0.053048520444204106,9.745815009079121e-06,0.998591919017693,1.0245078961634842e-10,0.0008938872469246799,0.00047138188384148117
1730103295.36278,-1.0393353290234004,-0.014599165632546521,9.728106101754035,-0.0007492544336599123,0.0531921423901853,3.991096188506144e-05,0.9985840139982469,6.147047376980905e-11,0.000536332348154808,0.0019855893761530153
1730103295.37054,-1.0346856224628684,-0.015223843861949787,9.73606048478289,-0.0007806876617887404,0.05291326901256435,4.136669904525617e-05,0.9985988057162771,3.688228426188543e-11,0.0003217994088928848,0.0033198039330019674
1730103295.3785338,-1.0455427479894397,-0.025654297772247998,9.735326450781843,-0.0013156239584310467,0.053467616193033925,7.044410246459378e-05,0.9985687148062785,2.2129370557131255e-11,0.00019307964533573087,0.00454602272857337
1730103295.3866,-1.0226083428854607,-0.04962966240358317,9.736322551377308,-0.0025450331431343155,0.05229857143821669,0.00013328443171793634,0.9986282413726754,1.3277622334278753e-11,0.00011584778720143852,0.004430373882992149
1730103295.394743,-1.0023833553406514,-0.05060735188550928,9.73739905206662,-0.0025950262821280694,0.051266786523888025,0.00013321428637657744,0.9986816132742522,7.966573400567251e-12,6.950867232086311e-05,0.002658224329795289
1730103295.4025328,-0.9698976487024377,-0.0631649738754462,9.741396834804423,-0.003237888581436807,0.04959708689935481,0.00016078856864964742,0.9987640458064498,4.779944040340351e-12,4.170520339251786e-05,0.0015949345978771734
1730103295.4106493,-0.9554340482058374,-0.07979751337800209,9.753372311087732,-0.004085592260452374,0.04880247735739167,0.000199626561036388,0.9988000732323254,2.86796642420421e-12,2.5023122035510716e-05,0.000956960758726304
1730103295.4186604,-0.9589663163746744,-0.09049529757758251,9.761754697687795,-0.004629269488113383,0.0489392710459762,0.00022682730793001555,0.9987910022436463,1.720779854522526e-12,1.5013873221306429e-05,0.0005741764552357824
1730103295.4266288,-0.9483964084771483,-0.08326701863444014,9.74499689454041,-0.004266951873774906,0.04848670002436864,0.000207135935280744,0.998814692591753,1.0324679127135155e-12,0.002137458631242942,0.0003445058731414694
1730103295.4346273,-0.9434909847347265,-0.08515497558496096,9.73877293530823,-0.004366530015835238,0.04826817285906317,0.00021101239772615648,0.9988248456952983,6.194807476281093e-13,0.0034109254860559234,0.00020670352388488163
1730103295.4426503,-0.9501245371298983,-0.0800628254388672,9.736235660599,-0.0041064284566900994,0.048617990229308565,0.00019988436388028262,0.9988089849003332,3.7168844857686556e-13,0.005026385721867775,0.0026781624831031187
1730103295.4506433,-0.9562594500611421,-0.07245855219691408,9.750993867062526,-0.003710752170864732,0.04885652141193766,0.000181512457953654,0.9987988975199557,2.2301306914611933e-13,0.006421351924816918,0.005438108043020156
1730103295.4586618,-0.9654470616382478,-0.06957192941385157,9.75170850529611,-0.0035625825563588478,0.04931906825748458,0.00017591845242322243,0.9987767050569616,1.3380784148767158e-13,0.008535401830972497,0.008371145563356473
1730103295.466567,-0.9644952841020892,-0.05658720794127969,9.741363380765556,-0.0029007668569847786,0.0493232703967774,0.0001432502675961037,0.9987786441591393,8.028470489260294e-14,0.011080901959051941,0.010982348198482325
1730103295.4746506,-0.9852326123557847,-0.05142999688390843,9.744733112687848,-0.002635350799470218,0.050358675937755275,0.00013288184097697128,0.9987277111537339,4.8170822935561766e-14,0.012608202035899607,0.012974759841019869
1730103295.4826088,-1.007970076446674,-0.04235016609909506,9.758247119809974,-0.0021669639958336703,0.051441251098723155,0.0001116193837084764,0.9986736651647284,2.890249376133706e-14,0.013524582082008206,0.013318826703618333
1730103295.490565,-1.0220913952332387,-0.03690226762820704,9.747441330968016,-0.0018902245975738925,0.05221358827379217,9.883039672959388e-05,0.9986341464636077,1.7341496256802233e-14,0.013223029986749303,0.013099576759715379
1730103295.498534,-1.0384650519836933,-0.02645092356520547,9.742873218990965,-0.0013554563295269555,0.05306793502161981,7.203283602722847e-05,0.998589981835363,0.002128450307320563,0.011339338483745832,0.012116646670449545
1730103295.506659,-1.0418249015515442,-0.029038663269982657,9.749709158445361,-0.0014870078089522867,0.053201115515675156,7.922275602991697e-05,0.9985827075607804,0.003405520491702496,0.008932053397557657,0.010249818432503948
1730103295.514643,-1.0572483405891295,-0.03657681124323959,9.747585797801591,-0.0018733415651723928,0.0539933777245661,0.00010129597834516835,0.9985395312617309,0.003746072540869624,0.007487682345844753,0.00870403142827456
1730103295.5226514,-1.055489076374962,-0.02793159089633438,9.741283957929001,-0.0014314953684025345,0.05393907917586738,7.732619087633672e-05,0.9985431991553144,0.0022476435245217742,0.004492609407506852,0.005222418856964736
1730103295.5306299,-1.0467720725339615,-0.023223299020222504,9.737263433839432,-0.0011907157674645868,0.05351942770828705,6.381793520172618e-05,0.9985660964508106,0.0013485861147130645,0.002695565644504111,0.003133451314178841
1730103295.5386348,-1.0504004163719396,-0.015609920574242877,9.734611699219675,-0.0008005691575327474,0.053717945125473766,4.306712645535031e-05,0.998555826985023,0.0008091516688278386,0.0016173393867024667,0.0018800707885073046
1730103295.5466409,-1.0530562630067575,-0.010084212842592602,9.733020658447819,-0.0005172588145829996,0.05386136517743235,2.7900769764284866e-05,0.9985482887702973,0.00048549100129670315,0.00097040363202148,0.002830802718952509
1730103295.5546489,-1.0501007878333515,-0.006529368037586811,9.739488059131192,-0.00033469804543213887,0.053676169176303065,1.79912461863938e-05,0.9985583390649193,0.0002912946007780219,0.000582242179212888,0.004252622000143695
1730103295.563096,-1.0464121414011827,-0.0003263183323177121,9.74695980203145,-1.6714602462407476e-05,0.05344860355782067,8.94650973256772e-07,0.9985706016589616,0.00017477676046681313,0.00034934530752773275,0.00595709369178247
1730103295.5706382,-1.0485085165301626,-0.024856068099000005,9.740190099968869,-0.0012740434065909524,0.05359144893863603,6.837614813861483e-05,0.9985621306352239,0.00010486605628008787,0.00020960718451663965,0.007831156829689798
1730103295.57905,-1.0428231567930977,-0.024969287832056253,9.740437841719602,-0.0012798347733952672,0.0533019911162235,6.831491176183966e-05,0.9985776159613592,6.291963376805273e-05,0.00012576431070998378,0.008955594712434196
1730103295.5867426,-1.0379754199547648,-0.023840118841811878,9.732685621291527,-0.0012229450854971216,0.053098223634068964,6.502799584188858e-05,0.9985885433067936,3.775178026083163e-05,-0.002052991720884168,0.007927497196232706
1730103295.594632,-1.0137583830763743,-0.019571314957430877,9.722527625216323,-0.001005079305729485,0.05192330446234331,5.225755680462801e-05,0.9986505682862489,-0.0016801091776916274,-0.0042116254627647225,0.006884948625049781
1730103295.6030717,-1.0128751104122309,-0.013418730136567901,9.71212326458292,-0.0006898534658537199,0.05193362580271945,3.587501226494698e-05,0.9986502998177902,-0.0010080655066149764,-0.005932495769355086,0.004130969175029868
1730103295.610798,-1.0144999283078855,-0.01906456571865949,9.735568748788813,-0.000977745605588701,0.051891943570715145,5.080559427286884e-05,0.9986522255644235,-0.0006048393039689858,-0.008242088137695398,0.002478581505017921
1730103295.6186407,-1.0193055417015282,-0.03274713420658632,9.750593719976413,-0.001676862487460558,0.05205583015330049,8.740910357824513e-05,0.9986427644753141,-0.00036290358238139146,-0.009627843558699587,0.0014871489030107525
1730103295.626641,-1.0181187669154481,-0.042153776129420534,9.742609870901862,-0.002160307616935351,0.052037736143774244,0.00011257030085324049,0.9986427761797301,-0.00021774214942883488,-0.009607916688378036,0.0008922893418064515
1730103295.6351714,-1.0013655509207533,-0.050670803275308575,9.732791737970805,-0.002599513640266247,0.05123919084219341,0.00013337262488206865,0.998683017810163,-0.00013064528965730092,-0.008744580443261043,0.0005353736050838709
1730103295.6426513,-0.9810185541852644,-0.06080884304916951,9.739829547177013,-0.0031175236783284334,0.05016961503061447,0.00015660293488586814,0.9987358340669047,-7.838717379438055e-05,-0.006949508511804751,0.00032122416305032254
1730103295.6506793,-0.9795842636146743,-0.058272540936923585,9.749319476353081,-0.0029846080740305748,0.05004851988890298,0.00014956331982573335,0.9987423168177004,-4.703230427662833e-05,-0.0058724653529309764,0.0018954947436783198
1730103295.658632,-0.9911735379051326,-0.06393336465004477,9.74160590456185,-0.00327702046808451,0.0506756689028127,0.00016627974289355217,0.9987097726913217,-2.8219382565976994e-05,-0.005226239457606712,0.0053941974608273085
1730103295.6666389,-0.9741850858778451,-0.06589333788182374,9.74679398829375,-0.0033758384808663705,0.0497872125544237,0.00016828324732624293,0.9987541283325744,-1.6931629539586196e-05,-0.004838503920412154,0.008770489275502797
1730103295.674663,-0.9721323003060041,-0.07042120414510986,9.753976981355155,-0.003605170263612599,0.049646562971561246,0.00017920647006105755,0.9987603263133364,-1.0158977723751717e-05,-0.004605862598095418,0.01122195442577012
1730103295.6826499,-0.9826322170976649,-0.06667357942065966,9.755892575531844,-0.0034125568034841175,0.05016915921505756,0.00017142197325435357,0.9987348900154757,-6.095386634251031e-06,-0.00531765792762944,0.013118523577392545
1730103295.690621,-0.9949176713230521,-0.06346732392192704,9.74531034390309,-0.0032518675019720085,0.050846449659980614,0.00016556095198004572,0.9987011747786702,-3.6572319805506183e-06,-0.005744735125349854,0.013405084945441938
1730103295.6985767,-0.9900785153914875,-0.07159921759534371,9.737524483929745,-0.003671477500057499,0.050640822007941025,0.00018616676308039483,0.9987101645328653,-2.194339188330371e-06,-0.005149601321058038,0.011448571458961415
1730103295.7065308,-0.9811895176821582,-0.0513392363677531,9.751767161060972,-0.002628835880113989,0.05011767955649279,0.0001319173898103682,0.9987398510200693,-1.3166035129982225e-06,-0.004792521038482949,0.008571903121224975
1730103295.7146862,-0.9751378585585135,-0.056421499584323735,9.750496540533067,-0.002889489678635002,0.049817138293966,0.00014412566366490457,0.9987541653527108,-7.899621077989335e-07,-0.004578272868937895,0.0051431418727349845
1730103295.7225697,-0.9858720730452644,-0.05683723568809424,9.738242000247574,-0.002914350355587653,0.05042425095195139,0.000147141741681468,0.9987236253474969,-4.7397726467936006e-07,-0.002746963721362737,0.0030858851236409907
1730103295.7306664,-0.9729195682900492,-0.053734795026137795,9.745254486037217,-0.002753392373094946,0.049731285113757726,0.00013709990550768683,0.9987588294052724,-2.8438635880761605e-07,-0.0016481782328176423,0.0018515310741845942
1730103295.7386189,-0.96131734278067,-0.0439724651504483,9.759517624483658,-0.0022499587932788565,0.04907155335506493,0.00011054242804746692,0.9987927253024629,-1.7063181528456962e-07,-0.0009889069396905852,0.0011109186445107564
1730103295.7465806,-0.9498070243207458,-0.061099403162534593,9.751794936262462,-0.0031288409477000676,0.04852571504121153,0.00015200906771231906,0.9988170213944627,-1.0237908917074176e-07,-0.0005933441638143511,0.002795001494016612
1730103295.7546337,-0.9517593793873693,-0.06371412065728639,9.762963054286773,-0.0032589944596850247,0.048569424775415516,0.00015847536201511728,0.9988144796796133,-6.142745350244506e-08,-0.00035600649828861064,0.004656831326644188
1730103295.7628548,-0.9562826747515621,-0.049720640363121835,9.773973488089643,-0.0025403525708001264,0.04874453715144977,0.0001239760847638919,0.9988080402843368,-3.685647210146703e-08,-0.00021360389897316637,0.008328069594992923
1730103295.7706618,-0.9463073831712496,-0.05138019915927935,9.75448295027566,-0.0026304415850229384,0.048335288149320116,0.0001272923774502085,0.9988276950972278,-2.2113883260880216e-08,-0.0001281623393838998,0.011382192678926227
1730103295.77864,-0.9640248046586092,-0.058122018421348856,9.753323114891957,-0.002975801541204333,0.049239318964635036,0.0001467050450898038,0.9987825652016139,-1.326832995652813e-08,-7.689740363033988e-05,0.011937596344900115
1730103295.7869675,-0.9684303332346186,-0.04732305968562182,9.749754171669549,-0.002423770989514492,0.04948103492529288,0.00012007813910507376,0.9987721151985336,-7.960997973916878e-09,-4.613844217820393e-05,0.011845148483022417
1730103295.7955513,-0.9749043730364743,-0.04682918859457621,9.756231931712666,-0.002396847428749177,0.0497765600942775,0.00011945524374583486,0.9987574955503608,-4.7765987843501265e-09,0.002100767242003236,0.010938299642971733
1730103295.802895,-0.999618351360947,-0.0355195383032301,9.74455627694752,-0.0018200474260226202,0.05108965674874737,9.310734468402404e-05,0.9986924079673805,-2.8659592706100756e-09,0.002963220591050068,0.008691430093093198
1730103295.8106382,-1.0118131165294588,-0.032564470784672436,9.73012885894195,-0.001671040784074326,0.051784082489091346,8.6649692790713e-05,0.9986569025022015,-1.7195755623660453e-09,0.0034806926004781673,0.005214858055855919
1730103295.8185732,-1.0085954883258785,-0.03390389243174096,9.737992399593686,-0.0017383867027848624,0.05157934050608396,8.97844880220611e-05,0.9986673828574631,-1.0317453374196272e-09,0.0037911758061350267,0.003128914833513551
1730103295.8266633,-1.0171993987084176,-0.03039798243170082,9.737922120664415,-0.0015586006646314697,0.05201624150362759,8.118254935777903e-05,0.9986450194104,-6.190472024517763e-10,0.002274705483681016,0.0035801091459562572
1730103295.834661,-1.0137426189613787,-0.03236457925394237,9.73141560882443,-0.001660555683522985,0.05187523780900495,8.62579804231076e-05,0.998652189111225,-3.714283214710658e-10,0.0013648232902086096,0.004276515794883912
1730103295.842807,-1.0104714502830772,-0.03569931884142792,9.75312965948411,-0.0018276019848023218,0.05159490830423135,9.442087470917454e-05,0.9986664189772086,-2.2285699288263947e-10,0.0008188939741251657,0.005545739907164568
1730103295.8505592,-1.0070722280800024,-0.05374131371696613,9.751314039586951,-0.002751768326565476,0.05143167645003445,0.00014171615606066435,0.9986727143289472,-1.3371419572958369e-10,0.0004913363844750994,0.007158654497457026
1730103295.858555,-1.0148489215647982,-0.05762332582783593,9.766744659103733,-0.002945826661686514,0.05174428805467042,0.0001526348429559469,0.998656010577015,-8.02285174377502e-11,0.00029480183068505966,0.008552093313094531
1730103295.8666356,-1.0171207359955194,-0.058516012098264056,9.768341585501302,-0.002990955219183265,0.05185074533020081,0.00015529284767742564,0.9986503543681897,-4.8137110462650124e-11,0.0001768810984110358,0.009388156602477035
1730103295.874639,-1.0127377406695774,-0.0454046743976303,9.763074817023437,-0.0023220781874502463,0.05165718307180509,0.00012011270847062063,0.9986621695863495,-2.8882266277590072e-11,0.00010612865904662147,0.010315484637568569
1730103295.882679,-1.0180088089525277,-0.048072359081937556,9.753929251786328,-0.002460769284524148,0.051972087514526796,0.00012806478063179477,0.9986454978285951,-1.7329359766554043e-11,6.367719542797288e-05,0.010020501335699426
1730103295.8906274,-1.0194955087601885,-0.06236223869135003,9.753469736130391,-0.0031923690840421756,0.05204926829401447,0.00016638686061708267,0.9986394017687774,-1.0397615859932426e-11,3.820631725678373e-05,0.008992131231653877
1730103295.8986497,-1.0244576714670506,-0.05297965400582564,9.738110556277844,-0.002716307334600175,0.052382715437427015,0.00014248370024489928,0.9986233787050355,-6.238569515959455e-12,2.2923790354070236e-05,0.005395278738992326
1730103295.9066503,-1.034856994237652,-0.03825213688591726,9.737035334010846,-0.0019613857853599303,0.05291627872415329,0.00010393505564267956,0.9985970206290888,-3.743141709575673e-12,1.3754274212442142e-05,0.003237167243395396
1730103295.9146326,-1.036068764413685,-0.043541416408894106,9.761529318082289,-0.002226997453560068,0.05284575382570316,0.00011785232927799617,0.9986001967232749,-2.245885025745404e-12,8.252564527465285e-06,0.0019423003460372374
1730103295.9226332,-1.036556406353289,-0.04001121947424271,9.75132601125953,-0.002048574362735158,0.05292537613595433,0.00010857396713214818,0.99859636295935,-1.3475310154472423e-12,4.951538716479171e-06,0.004570900699318595
1730103295.9306333,-1.0392431931772077,-0.0343017988232175,9.729881136540873,-0.0017601011989605386,0.05317751010595552,9.373056680314392e-05,0.9985835196303218,-8.085186092683454e-13,-0.001699789322618239,0.006999441034211474
1730103295.9385715,-1.0324755594610122,-0.03183382709666487,9.742871589639368,-0.0016313244944276832,0.05276431776368344,8.619591066738622e-05,0.9986056569645457,-4.851111655610072e-13,-0.003574013962343133,0.009733635419533296
1730103295.9467673,-1.024344836409029,-0.042084632195498926,9.735342970873464,-0.002158332372979658,0.052392115737818254,0.00011323538293352534,0.9986242511513682,-2.9106669933660433e-13,-0.005124238807640101,0.01222553217365045
1730103295.9546216,-1.0221000244040113,-0.06427626637784624,9.729149858451812,-0.00329852410991357,0.05231043571757505,0.00017278474170494046,0.9986254093498557,-1.746400196019626e-13,-0.00562868365335625,0.013720670226120744
1730103295.96266,-0.9982476415955317,-0.09219587701420774,9.731658915315228,-0.004730311376805542,0.05108481020081867,0.00024196570671851898,0.9986830867565655,-1.0478401176117755e-13,-0.005505660499323908,0.015043443119064952
1730103295.970675,-0.9944706992151314,-0.09625837459719652,9.74393825690398,-0.004932575419453975,0.0508291428391069,0.0002510461578525663,0.9986951511416283,-6.287040705670653e-14,-0.005431846606904503,0.01626279691629351
1730103295.9789455,-0.9783181641579851,-0.09773819248292727,9.74268673588067,-0.005009257706926384,0.05001607430081205,0.0002508605387173906,0.9987358192824324,0.0017027602458104041,-0.00538755827145286,0.015291648948782516
1730103295.987133,-0.9705420044518221,-0.09216173873194386,9.73666857961434,-0.004726482959470029,0.04965225012759056,0.00023497297205483648,0.9987553550313527,0.002724416393334369,-0.005786675331643906,0.013857580045351856
1730103295.9951723,-0.9658763086281245,-0.07612659768252569,9.736409568178761,-0.0039043192075923624,0.04941748510306582,0.00019317913847588348,0.9987705598081242,0.0016346498360006213,-0.006026145567758533,0.012145758580369398
1730103296.003278,-0.9779209414268747,-0.06626609288685915,9.726198514344755,-0.003402071175265792,0.05008172418379973,0.0001705966590403834,0.9987393141912839,0.0009807899016003728,-0.0057441376479652785,0.009415905455531797
1730103296.010657,-0.9801198976197966,-0.05220950436492799,9.723663184534587,-0.0026811113045752543,0.05020702646290067,0.00013478109409082275,0.9987352241560237,0.0005884739409602236,-0.0060006229575513565,0.007352303519167205
1730103296.0186503,-0.9912554981421904,-0.04042366892755054,9.741535020095752,-0.00207202300626339,0.050681006790015255,0.00010514756461004942,0.9987127370847945,0.0003530843645761342,-0.006580204204765035,0.007816902603196577
1730103296.0266597,-0.9924301946372672,-0.042928974305749074,9.76111666757503,-0.0021960279100482006,0.05063952965774735,0.00011134895116211205,0.9987145753912233,0.0002118506187456805,-0.006502262891631211,0.00852135211507623
1730103296.0346968,-0.996008054526501,-0.043953317200636936,9.760415807429784,-0.0022485667562939147,0.05082427460561708,0.00011442995266161984,0.9987050735648344,0.0001271103712474083,-0.003901357734978726,0.010646782068052148
1730103296.0426636,-0.9780434765147287,-0.03930067928522591,9.766938476157089,-0.0020093066657397695,0.04988152177298624,0.00010035240201611513,0.9987531158408115,7.626622274844498e-05,-0.0023408146409872356,0.012773420162761763
1730103296.0506473,-0.9612792255572747,-0.0393821385281668,9.773006858887612,-0.0020123123445886615,0.04900250423235235,9.872715009924769e-05,0.9987966236581579,0.0017485199794971935,-0.0014044887845923414,0.014049403019587531
1730103296.0586388,-0.9643887841136617,-0.026741745275103205,9.759409636572801,-0.0013683175686470378,0.049228134463201824,6.744155343428858e-05,0.9987866208234575,0.0027518722335464424,-0.0008426932707554048,0.014389302672220963
1730103296.0666547,-0.9643391579193689,-0.025143013473655672,9.759870429160477,-0.0012864538995588334,0.04922333906721829,6.340046339556076e-05,0.9987869662284442,0.0016511233401278653,-0.0005056159624532428,0.013741862340876957
1730103296.0747008,-0.9616757603766212,-0.030887539041224654,9.75104893840449,-0.0015818102886048372,0.04913235638750036,7.781214009031431e-05,0.9987910208733825,0.0009906740040767192,-0.0003033695774719457,0.010373567711836333
1730103296.0826652,-0.9574441000248007,-0.02691222923528167,9.761318354741913,-0.0013767970096563327,0.04886669048049146,6.736005180224274e-05,0.9988043584476899,0.0005944044024460315,-0.00018202174648316742,0.0062241406271018
1730103296.0906847,-0.9570598853078491,-0.021175161027497127,9.768677105374444,-0.001082483772901349,0.04881077491762818,5.289995733046612e-05,0.9988074557603265,0.0003566426414676189,-0.00010921304788990045,0.0037344843762610797
1730103296.098996,-0.9654484824542406,-0.029943348569623274,9.76567033060748,-0.0015311516400924655,0.04925041195863425,7.550156187767089e-05,0.9987852856325398,0.00021398558488057133,0.001637232417114186,0.0005379303799085216
1730103296.1066601,-0.9704816407420757,-0.03472542076286771,9.772245971557846,-0.0017744654221259885,0.04947212210001079,8.789433509799905e-05,0.998773924710679,0.0001283913509283428,0.003536479819040701,0.00032275822794511296
1730103296.1146402,-0.9847542835175112,-0.04381958839522062,9.76398092766127,-0.0022409765130344908,0.050236179207535835,0.00011272070681809542,0.9987348455005155,7.703481055700568e-05,0.00467602826019661,0.00019365493676706778
1730103296.1226509,-0.9981062725030848,-0.0313195765234605,9.764528565141683,-0.001601572903512911,0.050909542389623565,8.164131560278208e-05,0.998701980969603,4.622088633420341e-05,0.006211137447814218,0.002244643269370399
1730103296.1306684,-0.9948647180916945,-0.030044493716810672,9.75073135783501,-0.0015385516410725594,0.050816754971868876,7.828544002536692e-05,0.9987068058966889,2.7732531800522044e-05,0.007132202960384784,0.0034752362689323977
1730103296.1385987,-1.0001023904253292,-0.04651769598594578,9.746283756107257,-0.002383168252472867,0.0511049118697542,0.00012195130614696029,0.9986904393353048,1.6639519080313225e-05,0.006407772083541029,0.00506497219159366
1730103296.1465771,-1.0075545568137914,-0.03868452506227059,9.749600699220993,-0.001981156424445388,0.05146555240319244,0.00010209681266835865,0.9986728000257626,9.983711448187935e-06,0.005547423495972743,0.006018813745190418
1730103296.1545749,-1.0194478817933528,-0.03877302582837797,9.74704188193494,-0.0019861439489567306,0.05208171126215242,0.00010358256029699586,0.9986408462780165,5.990226868912761e-06,0.003328454097583646,0.0036112882471142503
1730103296.1625836,-1.009824465159996,-0.04026264728413616,9.739281667246901,-0.0020641419296438673,0.05163474749567452,0.00010672404155857813,0.9986638978050278,3.5941361213476567e-06,0.0019970724585501873,0.00216677294826855
1730103296.1706035,-0.992558247211232,-0.04379004198376295,9.743484084576655,-0.002244117290622866,0.05073693353740188,0.00011400675273496089,0.9987095245942473,2.1564816728085938e-06,0.0011982434751301124,0.00130006376896113
1730103296.1792889,-0.9886628609243956,-0.04877952079572651,9.745526694642479,-0.0024993131290476003,0.05052867381463711,0.00012644889878231057,0.9987194754119363,1.2938890036851563e-06,0.0007189460850780675,0.0007800382613766779
1730103296.1867735,-0.9820160661640124,-0.0532097290789984,9.745076319519862,-0.0027264725292998134,0.05019369414595393,0.0001370249591350627,0.9987357711825936,7.763334022110938e-07,0.00043136765104684045,0.0030221633255981964
1730103296.1952238,-0.984013493458173,-0.06831770268177403,9.739299430627932,-0.003502633771700883,0.05032401597725919,0.00017649130902887145,0.9987267863752327,4.6580004132665624e-07,0.00025882059062810425,0.006070198609979234
1730103296.2029128,-0.9945493363092788,-0.0570317727321113,9.739424599783009,-0.002923902905534105,0.050858506198626204,0.00014889866742027335,0.9987015775336645,2.7948002479599375e-07,0.00015529235437686253,0.010027470087918013
1730103296.2106228,-1.0121235898226766,-0.06366774405918865,9.736387239117851,-0.003264964955613135,0.05176580146965284,0.0001692413433704588,0.9986539005878917,1.6768801487759624e-07,9.317541262611752e-05,0.01197614291321925
1730103296.218645,-1.018358578942434,-0.050171654736294445,9.732649461390633,-0.0025738246734255247,0.052102474977754755,0.00013428547635934573,0.9986384177945258,1.0061280892655774e-07,5.590524757567051e-05,0.013571036669862023
1730103296.2266498,-1.0225784127463198,-0.043271101972636034,9.7349557779086,-0.0022192790852428946,0.052304537742700365,0.00011623776257918364,0.9986287080895716,6.036768535593464e-08,3.3543148545402304e-05,0.014527972923847686
1730103296.2346725,-1.02080075004037,-0.042722072804675375,9.732508845163128,-0.0021916811048622313,0.05222739016163174,0.00011462249525264648,0.9986328069478405,3.622061121356078e-08,2.012588912724138e-05,0.012973684368928928
1730103296.2426727,-1.0230860347410187,-0.0292245461730396,9.73894155099436,-0.0014982545387547445,0.05230939753551318,7.848032607665508e-05,0.9986297992768127,2.1732366728136468e-08,1.2075533476344828e-05,0.009486970867205484
1730103296.250656,-1.0227812643992986,-0.026872114178433132,9.714789015069272,-0.0013810696304512482,0.05242292919221935,7.249947361488246e-05,0.9986240152757242,1.3039420036881881e-08,-0.0016955149257623194,0.00569218252032329
1730103296.258634,-0.9907555201141885,-0.03791050361448175,9.731661535262266,-0.0019451743846291732,0.05070670304530852,9.876061432481339e-05,0.9987116885313946,7.823652022129129e-09,-0.0027200692013055177,0.003415309512193974
1730103296.2666736,-0.9741736953692944,-0.031126007979235922,9.734363022231578,-0.0015966957599899984,0.049850839127275434,7.969581331377486e-05,0.9987553945033458,4.6941912132774775e-09,-0.0016320415207833107,0.002049185707316384
1730103296.2746613,-0.9649428610204048,-0.038308058400822805,9.746039561385821,-0.001962814513256423,0.049323048942464774,9.693015956050562e-05,0.9987809443550423,0.0017027630623628544,-0.0009792249124699864,0.0012295114243898303
1730103296.282659,-0.9744878308700554,-0.04764511214010306,9.752087804214305,-0.002439644193097749,0.049776410980694095,0.00012158781713296115,0.9987573991027525,0.0010216578374177127,-0.0005875349474819919,0.0024404671004820246
1730103296.2906342,-0.9706380061392207,-0.05181082338757746,9.7511677667571,-0.002653219543100201,0.04958572359013055,0.00013172431409179047,0.998766338585159,0.0006129947024506276,-0.0003525209684891951,0.0040184206290614045
1730103296.29864,-0.9723982541229855,-0.03395953602473398,9.742954298970274,-0.0017405242241928616,0.049717046756082316,8.664100116178889e-05,0.9987618226237001,0.0003677968214703765,-0.00021151258109351704,0.006242262930595127
1730103296.3066378,-0.9844677305499633,-0.015347898128512264,9.739223319128259,-0.0007869023216975364,0.05034892176328125,3.9670009679767274e-05,0.9987313779431892,0.0002206780928822259,-0.00012690754865611023,0.008002258372977394
1730103296.3145788,-1.001046802880759,-0.016870184189607357,9.746082697531643,-0.0008643056843134647,0.05115446858228358,4.427107634370367e-05,0.9986903781251826,0.00013240685572933554,-7.614452919366614e-05,0.009058255638406752
1730103296.3225648,-1.008360624453065,-0.022571959146576916,9.743255139759219,-0.0011567338943618331,0.05154000938122981,5.9697457935623294e-05,0.9986702588121336,7.944411343760132e-05,-4.568671751619968e-05,0.009266163936202335
1730103296.330669,-1.0108335560683233,-0.03963997358364927,9.748501789910218,-0.002030297423090098,0.051637456010587696,0.00010497966483275311,0.9986638273254912,4.766646806256079e-05,-2.741203050971981e-05,0.008965218853417653
1730103296.3385465,-1.0013039874007597,-0.052274983906048934,9.736566309541834,-0.0026807732082526066,0.0512163040993731,0.00013748022307131478,0.9986839764152596,2.8599880837536474e-05,-1.6447218305831884e-05,0.007081891557898718
1730103296.3466287,-0.9929526243740495,-0.05387048594909811,9.746403853107912,-0.002759873445594025,0.05074152310527604,0.0001402213487510587,0.9987079959975761,1.7159928502521884e-05,-9.86833098349913e-06,0.004249134934739231
1730103296.3549197,-0.9795621007474766,-0.060813291325318236,9.747757396093263,-0.0031152347541522772,0.05005525660310717,0.00015613035266574335,0.9987415792997388,0.0021387462644116713,-5.920998590099478e-06,0.0025494809608435386
1730103296.3628066,-0.9660211227531734,-0.06210593255886282,9.74162633707002,-0.003183560448279035,0.04939919474046756,0.00015745836204032632,0.9987740283511229,0.0012832477586470028,-3.552599154059687e-06,0.0015296885765061232
1730103296.3706555,-0.9734588467476071,-0.06934586178141144,9.739144802486152,-0.0035555010450900666,0.04978900201268664,0.00017724580079747401,0.998753414149271,0.0007699486551882017,-2.131559492435812e-06,-0.0012106371614064844
1730103296.379726,-0.9731330778239549,-0.05118432370947186,9.739810663229973,-0.002624168598640389,0.049769799969213,0.0001307668554910766,0.998757259623288,0.00046196919311292095,-1.2789356954614872e-06,-0.0007263822968438906
1730103296.3868966,-0.9846692046045291,-0.047470005846776867,9.755293650135249,-0.0024298159856355785,0.05027615527605475,0.00012231685570803698,0.9987323912057328,0.0002771815158677526,-7.673614172768923e-07,-0.0004358293781063344
1730103296.39534,-0.9937456621670143,-0.0550576419358005,9.75883735829404,-0.00281710184571157,0.05071749438866505,0.00014306103078155614,0.9987090563490791,0.00016630890952065155,-4.6041685036613534e-07,-0.00026149762686380063
1730103296.403295,-1.0087683433451304,-0.049554576616558425,9.742288810240096,-0.002539727503522773,0.05156510000565854,0.00013113618628146797,0.9986663972763452,9.978534571239093e-05,-2.762501102196812e-07,-0.00015689857611828038
1730103296.4107823,-1.0297529603527813,-0.04314027526681006,9.73235968140773,-0.0022131137575491545,0.05268241167060046,0.0001167545922238979,0.998608858360685,5.987120742743456e-05,-1.6575006613180872e-07,-9.413914567096822e-05
1730103296.4186656,-1.0210353357819815,-0.04479835827532041,9.739809733405183,-0.002296475474051186,0.05220039455051776,0.00012004090382070331,0.9986339822974926,3.5922724456460736e-05,-9.945003967908523e-08,0.0029233469428316403
1730103296.4266493,-1.0246633071820794,-0.04603262824644224,9.753617151078265,-0.002356391552277453,0.0523107683784004,0.00012343399590355385,0.9986280667468557,2.155363467387644e-05,-5.967002380745113e-08,0.005585218718857268
1730103296.434656,-1.0287554513502633,-0.054434635541615345,9.756394937863755,-0.0027856550244369353,0.05250283927321606,0.00014645736631272534,0.9986168787601056,1.2932180804325864e-05,-3.580201428447068e-08,0.007608031845934678
1730103296.4426925,-1.0338443596773454,-0.04846251228200046,9.750639584788566,-0.002481466213860326,0.05279148646000671,0.00013118362367179595,0.998602465485455,7.759308482595518e-06,-2.1481208570682406e-08,0.008821719722181123
1730103296.4506786,-1.0397707466657822,-0.042963876998106526,9.758199700580171,-0.00219818354900165,0.05305094968646531,0.0001167804576363477,0.9985893806208705,4.655585089557311e-06,-1.2888725142409443e-08,0.00954993244792899
1730103296.4587405,-1.0311161503920474,-0.0640855527613639,9.745497518102008,-0.003283154353016988,0.052680277774792575,0.00017319891946650104,0.9986060180237246,2.7933510537343865e-06,-0.002554148102007275,0.009135479960453646
1730103296.4667416,-1.0220926699715565,-0.07388551622713085,9.73572142712097,-0.0037890790232056612,0.05227458969708216,0.00019834516860238254,0.9986255408366801,1.6760106322406318e-06,-0.004938009352900618,0.008035428345044376
1730103296.4745839,-1.032001472344262,-0.08575099845698164,9.738474898508908,-0.004396184210878616,0.052761714147180054,0.00023227599872621777,0.9985974269606825,1.0056063793443791e-06,-0.0072197062263606865,0.004821257007026626
1730103296.482634,-1.0152018379964012,-0.0765897165058296,9.725282931048705,-0.003932031062739559,0.05198015493829804,0.00020466585655657763,0.9986403560522673,6.033638276066275e-07,-0.008588724350436727,0.0028927542042159753
1730103296.4906166,-1.0170930656884656,-0.07803613214959151,9.729338758873363,-0.004004598699436064,0.05205459621609584,0.00020874245349314404,0.9986361893245326,3.620182965639765e-07,-0.009410135224882352,0.0017356525225295852
1730103296.4986558,-1.0043414326747981,-0.0592715279225674,9.73823660005058,-0.003039016659484045,0.051361438676638296,0.00015629528181230597,0.9986754941253911,2.1721097793838587e-07,-0.011180051933935823,0.0010413915135177511
1730103296.5066748,-0.9940568310404256,-0.045379143560181065,9.73591385944441,-0.002327347019965989,0.050852101121015264,0.00011850412943610166,0.9987034761250199,1.303265867630315e-07,-0.012242001959367905,0.0006248349081106507
1730103296.514659,-0.9802246247473022,-0.041113855765014896,9.749843105705708,-0.002105670792397196,0.0500788800210727,0.00010558234772024032,0.9987430404156601,7.81959520578189e-08,-0.012879171974627155,0.00037490094486639043
1730103296.5225766,-0.9719253009714282,-0.03831526292189956,9.754130510640222,-0.001961523505650984,0.04963642565294117,9.748336647493864e-05,0.9987654219940386,4.691757123469134e-08,-0.012835783922320671,0.00022494056691983424
1730103296.530643,-0.9602419420574662,-0.02274973758712411,9.752872230944678,-0.0011648468959608957,0.0490506649948429,5.720541244586621e-05,0.9987956107847158,2.8150542740814802e-08,-0.01238406102947475,0.00013496434015190055
1730103296.538663,-0.9640058341797921,-0.019874766868680716,9.74254045648673,-0.0010187077654012172,0.04929341593078992,5.027673115281143e-05,0.9987838198792636,1.689032564448888e-08,-0.010835957109381102,0.0017837388499392667
1730103296.5466993,-0.9669824299512346,-0.016473843275505305,9.764353551235788,-0.0008425011709315685,0.04933489798296253,4.161539952550491e-05,0.9987819363108977,1.0134195386693327e-08,-0.009907094757324913,0.004050073740197781
1730103296.5546598,-0.9663741857539438,-0.02257357476413131,9.762597357792254,-0.0011546600149324533,0.0493128198355983,5.7008937482765314e-05,0.998782713762154,6.080517232015996e-09,-0.009775467407553232,0.005835564735814921
1730103296.5629108,-0.9691217013937726,-0.023599791831135034,9.7732752298609,-0.0012058275906316586,0.04939834755805756,5.963874351263677e-05,0.9987784267201486,-0.0017027565975377872,-0.010122181059152255,0.006906859333185205
1730103296.570638,-0.9650241267932947,-0.04145377402446227,9.771541667457555,-0.0021184617321187114,0.04919929349541688,0.00010435342946925887,0.9987867293620811,-0.0031501042658328305,-0.009904519188649638,0.0075496360916073755
1730103296.5795796,-0.9436513889177738,-0.06246123047913049,9.76164298387297,-0.003195407989613252,0.04816506748014893,0.00015408666543682278,0.9988342664825391,-0.0035928228053478247,-0.008496851881961972,0.006232541900812551
1730103296.5868864,-0.9492630989756642,-0.0654888977113064,9.765280580362845,-0.0033490001829773685,0.048431445585058616,0.00016238839532099127,0.9988208812926995,-0.0021556936832086947,-0.006800871375025309,0.005442285386335656
1730103296.5946822,-0.9578973686627423,-0.06946027954475259,9.749027785473565,-0.003557910881284733,0.048949539241204314,0.00017436822934790134,0.9987949006047013,-0.0012934162099252167,-0.005783283070863312,0.0032653712318013936
1730103296.603293,-0.986780526910536,-0.06968832715067969,9.753162478168903,-0.003567811454596946,0.05039320705607375,0.00018002333925199818,0.9987230662178708,-0.00077604972595513,-0.005598420149828145,0.001959222739080836
1730103296.610662,-0.9993220185388996,-0.06144544990368907,9.74079924349314,-0.003149692751283752,0.05109333423433814,0.00016113957411393676,0.9986889028453397,-0.00046562983557307797,-0.005913192458669077,0.0011755336434485016
1730103296.6186657,-1.0037344513577147,-0.058654505049635305,9.740324487502134,-0.003006743124825239,0.05131975177104047,0.0001545096134348783,0.9986777351582038,-0.00027937790134384676,-0.006527745905435667,0.002408080431917227
1730103296.6268933,-1.0042271295548633,-0.045966610500484305,9.734772390255186,-0.002357686546771077,0.051374240963304466,0.00012128485527479632,0.9986766813987275,-0.00016762674080630805,-0.006896477973495621,0.003998988627922526
1730103296.6346486,-1.011705341453621,-0.036199092276853084,9.733117073069128,-0.0018569808328434976,0.051762757079693016,9.625164838456914e-05,0.9986576787554959,-0.002229026351793943,-0.007543407275793625,0.006656293791373832
1730103296.6426702,-1.0075731426163133,-0.037521186323143094,9.74481315155632,-0.0019225202098615839,0.05149160794027301,9.912533779351072e-05,0.9986715718402799,-0.006020006487158713,-0.009634325103020555,0.009953437135292741
1730103296.650873,-1.0070091846420535,-0.038793283082948354,9.754225000308791,-0.001985789863357608,0.0514137207175105,0.00010223225609436505,0.9986754605522088,-0.008720284629839608,-0.011314565860818745,0.011931723141644087
1730103296.6586647,-0.9913479192324978,-0.061104356080237766,9.76561819354465,-0.0031243368424095507,0.05056096822151986,0.0001581725772491177,0.9987160767671828,-0.009063381331062048,-0.01274840037695969,0.013544384806916925
1730103296.666651,-0.9800357986586392,-0.08526490734931452,9.77053874815804,-0.0043575746283830005,0.0499622322624112,0.00021798847720726607,0.9987415778727442,-0.007992169167409418,-0.012757320963720193,0.01493767186754266
1730103296.6746275,-0.963192879341668,-0.08707196931193245,9.766787316277638,-0.004451822382016091,0.04912846187577952,0.00021897778666707176,0.9987825226544205,-0.004795301500445651,-0.011911293192852432,0.01534795404245607
1730103296.6829967,-0.9590726319018757,-0.10156373578637821,9.77243732262791,-0.005189763766240806,0.04889086726136149,0.0002540392836911339,0.998790611146563,-0.0028771809002673906,-0.011403676530331777,0.01431705316301802
1730103296.6908243,-0.9587552649321411,-0.08871098072963944,9.765053418967371,-0.004536472188064139,0.04891227125712577,0.0002221573573118194,0.9987927516690661,-2.3548294312308003e-05,-0.009822036348433287,0.01071868220512097
1730103296.6986341,-0.9477909372795973,-0.08554831084989303,9.74290598448589,-0.004384793508175687,0.048466165889939974,0.00021276621973536066,0.9988151776381631,0.0021143213307227736,-0.008873052239294193,0.006431209323072582
1730103296.7069368,-0.9316355340474458,-0.08149592742790455,9.7494893975763,-0.0041744568301259315,0.047613969683347634,0.000198989892679764,0.9988570689564095,0.0033970431057438223,-0.008729351835272767,0.003858725593843549
1730103296.714592,-0.9276883760925299,-0.07547319488447711,9.754636546260624,-0.0038639727192179827,0.04738904476767427,0.0001833173047968414,0.9988690177123316,0.0020382258634462935,-0.00779175146993585,0.0006124751104580029
1730103296.722655,-0.9143067536828616,-0.06443753021193627,9.746472087668483,-0.003301871148423011,0.046749314041943345,0.00015453001129197484,0.9989011840037044,0.001222935518067776,-0.006377811127809637,-0.0013352751795733247
1730103296.7306573,-0.916333427209717,-0.05470366925020863,9.752586740149917,-0.0028013394696419676,0.04682343317005783,0.00013131287476669354,0.9988992448491859,0.0007337613108406656,-0.0038266866766857818,-0.0008011651077439948
1730103296.7386546,-0.9283233387965334,-0.0522152349973908,9.769902481101669,-0.0026691033280389254,0.04734858333561001,0.0001265206156767524,0.9988748527899123,0.00044025678650439935,-0.002296012006011469,0.0012220611812017294
1730103296.7468946,-0.9309683025943264,-0.0507221744457001,9.76712381654186,-0.002593502325781161,0.04749604253920056,0.00012332068944955488,0.998868051586799,0.0002641540719026396,-0.0013776072036068814,0.0037130671389552588
1730103296.7546759,-0.929442818714799,-0.05724836326117006,9.771681542122382,-0.0029258373557730184,0.04739655525554928,0.0001388312333826453,0.998871857022493,0.00015849244314158377,-0.0008265643221641288,0.007761811082379567
1730103296.762566,-0.9388225955257542,-0.07026204285904579,9.767472992656241,-0.0035923731628616294,0.04789157222815841,0.00017224315612578774,0.9988460654659801,9.509546588495026e-05,-0.0004959385932984773,0.010616747509896184
1730103296.7705667,-0.9427745204502181,-0.06897228430917747,9.767342064636713,-0.0035264444059071457,0.04809247198556195,0.00016979295776733123,0.9988366480553872,5.7057279530970154e-05,-0.0002975631559790864,0.013181089489330215
1730103296.7789557,-0.9494552383931778,-0.07107147117144397,9.764151045666793,-0.00363489104700091,0.048446502964659265,0.0001763059509056932,0.9988191492126006,3.423436771858209e-05,-0.00017853789358745182,0.01344262449260454
1730103296.7872732,-0.9570549716491878,-0.06754257996849138,9.754814409138357,-0.0034576459781181287,0.04887808192384084,0.00016920636200272254,0.9987987530833944,2.0540620631149253e-05,-0.00010712273615247109,0.012322475310183042
1730103296.7950778,-0.9683185762512315,-0.06781944690687608,9.748254746557231,-0.003474047336472364,0.04948215718197338,0.000172115238652471,0.9987689510052198,1.232437237868955e-05,-6.427364169148265e-05,0.009947625554882013
1730103296.8029854,-0.9645422517077702,-0.06415484441365689,9.74695257083473,-0.0032868048954783897,0.04929728251775094,0.00016222867476785015,0.9987787285138793,7.39462342721373e-06,-3.856418501488959e-05,0.007671335578777335
1730103296.810652,-0.9706561627922403,-0.06171666275170977,9.750480828389511,-0.003160703112039461,0.04958974748003952,0.00015693233427314224,0.99876465810167,4.4367740563282375e-06,-2.3138511008933754e-05,0.00715694171603859
1730103296.8186553,-0.9728879884468287,-0.05738071176235398,9.739190253625504,-0.0029420321787617526,0.04976028490496354,0.00014657857919292967,0.9987568457875801,2.6620644337969423e-06,-1.3883106605360252e-05,0.0068483053983953435
1730103296.8266518,-0.9658473780290348,-0.05501856133475614,9.741513875075693,-0.002820303596110226,0.049391209350328216,0.0001394689826393632,0.9987755177590912,1.5972386602781654e-06,-8.32986396321615e-06,0.006663123607809396
1730103296.834653,-0.9659325747666396,-0.04593982576569743,9.748175291598152,-0.002353321831400232,0.049362323417580886,0.00011630754276006978,0.9987781582392216,9.583431961668992e-07,-4.99791837792969e-06,0.00740339465638189
1730103296.8426259,-0.98034890277014,-0.033309979443793464,9.757439385163968,-0.0017046692385525731,0.05004667282007884,8.542018996590009e-05,0.9987454216895405,0.0017033352517658266,-2.9987510267578137e-06,0.007847557285525386
1730103296.8506227,-0.9882804390741933,-0.03770307995143232,9.74647784984838,-0.0019316114829534038,0.050504703300597566,9.76803051100701e-05,0.9987219504347321,0.0010220011510594959,-1.7992506160546881e-06,0.007688364801549453
1730103296.8588495,-0.9882509575363129,-0.044409083078281265,9.747083533639497,-0.0022750289792200034,0.05049991214672203,0.00011503584062907535,0.9987214676190116,0.0006132006906356976,-1.0795503696328129e-06,0.007167159249701862
1730103296.8665383,-0.9961341340921002,-0.035264575823531256,9.74505274225401,-0.001806908265529657,0.05091039851418752,9.211001681010188e-05,0.9987015860212656,0.00036792041438141854,-6.477302217796877e-07,0.007280125980055337
1730103296.8746378,-0.9836257880724477,-0.04486134192966563,9.747664990078968,-0.00229808894380829,0.05026236838634171,0.00011565388054623703,0.9987333977271321,0.00022075224862885113,-3.886381330678126e-07,0.007773596079729455
1730103296.882547,-0.9756419401286249,-0.04391563694490875,9.75593610342238,-0.0022477897454256045,0.04981552414139472,0.00011211430569975264,0.9987559003210749,0.00013245134917731066,-2.3318287984068755e-07,0.008495368200995957
1730103296.8906353,-0.975400614516628,-0.04957313827046088,9.750124863957724,-0.0025388695480402265,0.04983258369343528,0.00012667622347383367,0.9987543500265664,7.94708095063864e-05,-1.3990972790441252e-07,0.00935412153521789
1730103296.898627,-0.9731010376552892,-0.0639809667025109,9.744243918618775,-0.003278732296018231,0.04974521982587038,0.00016330432037537165,0.9987565450852904,4.768248570383184e-05,-0.0025542243146089326,0.010720753658675114
1730103296.906651,-0.9688482495462986,-0.06879494110549092,9.739757670751342,-0.0035270766959970873,0.04955185430114321,0.00017498924816533026,0.9987653091913344,2.86094914222991e-05,-0.0040866749575375495,0.011115042871287416
1730103296.914674,-0.9598322321984823,-0.06234593927266955,9.743051426181273,-0.0031954481511537983,0.04907786909529429,0.0001570158016627484,0.998789831357036,1.716569485337946e-05,-0.005006145343294719,0.010500236275930733
1730103296.9226656,-0.9692666720827613,-0.05991305916907048,9.745027679439232,-0.0030700613429503034,0.04954685785362427,0.00015229966776844257,0.998767070144483,1.0299416912027676e-05,-0.0055578275747490205,0.009705662257254692
1730103296.930643,-0.964392848708641,-0.055340868948707905,9.74884705322018,-0.002834707299310797,0.04928053327609074,0.00013986639236947398,0.9987809439070929,6.179650147216606e-06,-0.005037456790697539,0.008377537723125005
1730103296.9386399,-0.9581166723599501,-0.05235813465047474,9.75377229931492,-0.002680619916715322,0.04893768784451775,0.00013134118290433845,0.9987982277391106,3.7077900883299633e-06,-0.0030224740744185232,0.006729282879723129
1730103296.9468112,-0.9507596640605012,-0.05583573772387859,9.750263102489342,-0.0028597417919960896,0.048581814148431685,0.000139096258999455,0.9988151029410604,2.224674052997978e-06,-0.0018134844446511139,0.004037569727833877
1730103296.9546468,-0.9513732825671601,-0.038289845954639655,9.745045122235792,-0.001962150096365347,0.04863931685097858,9.555091814215522e-05,0.9988144761132026,1.3348044317987868e-06,-0.0027908509126387945,0.002422541836700326
1730103296.9629476,-0.9455165293547492,-0.03973331919387754,9.751491140724289,-0.0020348074204580143,0.04831022361299012,9.841711980118215e-05,0.9988303019869266,8.00882659079272e-07,-0.003377270793431403,0.003156285347868322
1730103296.970719,-0.9331439312847244,-0.039402302307342145,9.754401071153323,-0.002017318571161613,0.047668272380955834,9.627172729513175e-05,0.9988611800274111,4.805295954475632e-07,-0.003729122721906968,0.004022221516031151
1730103296.9790165,-0.9324241370911471,-0.031063406530889664,9.769075718375587,-0.001588007058741713,0.047560871212609976,7.56126625856546e-05,0.9988670762648072,2.883177572685379e-07,-0.0022374736331441806,0.00496747327839088
1730103296.9867823,-0.9334287815710945,-0.03228499338142442,9.77381036388668,-0.0016496540753097792,0.047588836752934266,7.859427236066303e-05,0.9988656441588502,1.7299065436112274e-07,-0.0013424841798865084,0.004683244212882654
1730103296.9954343,-0.9347498287571099,-0.04115823113627652,9.7699473865449,-0.002103863752329466,0.047674241562792236,0.00010041450936766182,0.9988607161990356,1.0379439261667364e-07,-0.000805490507931905,0.002809946527729592
1730103297.0026555,-0.9257262302620783,-0.03666594698254716,9.75613743217108,-0.0018769258738990573,0.04728360282051626,8.884734989166731e-05,0.9988797375859237,6.227663557000419e-08,-0.000483294304759143,0.003814418223947913
1730103297.0105538,-0.9241427938213095,-0.047856946119215794,9.754076383863195,-0.002450308947423788,0.04721288097993654,0.00011581564534337096,0.9988818380781447,3.736598134200251e-08,-0.0002899765828554858,0.004417101241678906
1730103297.0185623,-0.9454588073963013,-0.056247486763326346,9.742305267573776,-0.00288321642566644,0.04835202161015246,0.0001395731758859674,0.9988261858744907,2.2419588805201506e-08,-0.00017398594971329147,0.0052044011137795335
1730103297.0265813,-0.9355034997698121,-0.06894325646229268,9.740031001120437,-0.0035348855811741793,0.047857000166540146,0.00016936413951591472,0.9988479280825365,1.3451753283120903e-08,-0.00010439156982797488,0.006102471098501941
1730103297.0345733,-0.932403357186106,-0.07033579396526624,9.733638617762105,-0.0036086725510827184,0.04773054000776895,0.00017244155680237242,0.9988537146634112,8.071051969872542e-09,-6.263494189678493e-05,0.006641313089335386
1730103297.0426369,-0.9410777589405698,-0.07045305596900349,9.739858834719763,-0.0036123061068447037,0.04814096415796405,0.0001741029020212289,0.9988340044785778,4.842631181923525e-09,0.0016651792807100554,0.006964618283835452
1730103297.0505404,-0.9501131226494982,-0.06956573250718334,9.748139948048657,-0.003563707513461396,0.048558962722676936,0.00017325543073728133,0.9988139451923026,2.905578709154115e-09,0.0031275578757361915,0.0071586014005354925
1730103297.0585458,-0.9536189795467302,-0.06256899394766938,9.755981658038177,-0.0032026919679314803,0.04869827055740646,0.00015615163205564905,0.9988083884437214,1.7433472254924687e-09,0.004004985032751873,0.006423611147631453
1730103297.06653,-0.9700877036460068,-0.0516671861635235,9.766911608348297,-0.002641613771954623,0.04947852658693921,0.0001308638992467435,0.998771685701044,1.0460083352954812e-09,0.0041057512654992506,0.005556926934426998
1730103297.074563,-0.9665614088086978,-0.07625072307506722,9.751921763592962,-0.0039044733002548335,0.04937419236417706,0.00019301710563409275,0.9987727003482973,6.276050011772888e-10,0.004166211005147677,0.006739676652352452
1730103297.0826879,-0.9596572285859999,-0.0876489628977747,9.759447848194839,-0.004484723800253547,0.048985931097330355,0.0002199546534723946,0.9987893759081108,3.7656300070637323e-10,0.0024997266030886063,0.008300706606031787
1730103297.090564,-0.9691616699152719,-0.09616384795350856,9.763005818291903,-0.004918463560419261,0.049449150717562916,0.000243514707776999,0.9987645022276791,2.2593780042382392e-10,0.0014998359618531637,0.008811634516777356
1730103297.098596,-0.9724701330526787,-0.08930177068616763,9.75915509619975,-0.004569271698966812,0.04963655730112575,0.00022708521329293778,0.9987568684959013,1.3556268025429434e-10,0.0008999015771118981,0.00996957138614876
1730103297.106551,-0.9823560764136385,-0.07560771768513808,9.762351326762818,-0.003867263235226737,0.05012182068138201,0.0001940796676674858,0.9987356055031459,8.13376081525766e-11,0.0022427011921152653,0.011090023569233637
1730103297.1145341,-0.9894847432602926,-0.0793622941853016,9.747030813147536,-0.004065583274935148,0.05056131780018327,0.00020582621585729633,0.9987126622860614,4.8802564891545955e-11,0.001345620715269159,0.011336604817622529
1730103297.1225445,-0.9880158593839099,-0.07323533427485283,9.74238748813266,-0.003753522318223482,0.050511019051173084,0.00018983790714583018,0.9987164322199709,2.928153893492757e-11,0.0008073724291614954,0.011058863505193833
1730103297.1305544,-0.9991055373588615,-0.06429191467623982,9.745347577108111,-0.003294065857049131,0.0510585792687333,0.0001684109050328638,0.9986902133549497,1.7568923360956545e-11,0.00048442345749689724,0.010466528656274584
1730103297.138532,-0.9775077645539889,-0.06634788806355639,9.740419865844945,-0.003401313862336187,0.04998818090665092,0.00017023931270921216,0.9987440031620867,1.0541354016573927e-11,0.00029065407449813834,0.00883405756253694
1730103297.1468422,-0.9772383696698934,-0.07093335442016507,9.753264970044077,-0.003631604051686842,0.049908980795978955,0.00018147702012987922,0.9987471512620246,6.324812409944356e-12,0.000174392444698883,0.007428884844832322
1730103297.1546743,-0.975161371411311,-0.06865681074780218,9.752113486420976,-0.0035154885081155386,0.0498096342487868,0.00017532390857148784,0.9987525273750643,3.7948874459666136e-12,0.00010463546681932979,0.007011471275671583
1730103297.1626372,-0.9638595254835054,-0.05148915358735318,9.77033678936235,-0.0026316337439746137,0.04914606660122722,0.00012949137440122573,0.9987881266181778,2.276932467579968e-12,6.278128009159787e-05,0.0071867131956371705
1730103297.1706464,-0.9594726195869782,-0.04023087862702128,9.757807594857644,-0.002058883597192346,0.048986686655028186,0.00010097933303156809,0.998797304427715,1.3661594805479808e-12,3.766876805495872e-05,0.007291858347616524
1730103297.1786366,-0.9441512072502338,-0.03371533381683777,9.757951523467321,-0.0017254853228305088,0.048209374063839155,8.328152719854607e-05,0.998835758279088,8.196956883287884e-13,2.2601260832975233e-05,0.007354945438804135
1730103297.1867743,-0.9430986454927184,-0.027172385104555788,9.745348611834299,-0.0013924298806861626,0.04821797048587565,6.7218394218575e-05,0.9988358643655814,4.91817412997273e-13,1.356075649978514e-05,0.007392797693516702
1730103297.1948106,-0.9477343520905528,-0.025640817537342847,9.745448310166985,-0.0013139171922434657,0.048452851858165086,6.373795236723259e-05,0.9988246045757463,2.950904477983638e-13,8.136453899871083e-06,0.007841199107806274
1730103297.2031658,-0.9483609945551129,-0.024721876997015082,9.740001465348238,-0.0012675326547763432,0.04851160060153627,6.156257011606383e-05,0.9988218130267761,1.7705426867901827e-13,4.88187233992265e-06,0.008110239956380017
1730103297.210559,-0.9520888623580678,-0.0287194958271153,9.753253349912068,-0.001470486228916285,0.04863517162967301,7.160216110498844e-05,0.9988155248212421,1.0623256120741096e-13,2.9291234039535896e-06,0.006994594281138168
1730103297.218572,-0.9512131208816377,-0.03542763011345668,9.742769127867163,-0.0018159021464435419,0.048642533665430476,8.843491232769503e-05,0.998814596708152,6.373953672444657e-14,1.7574740423721536e-06,0.0041967565686829005
1730103297.2265697,-0.9672076674508575,-0.024369040226277134,9.741985258458579,-0.0012491273298895263,0.04945867431879466,6.185593131630318e-05,0.9987753878572424,3.824372203466794e-14,1.0544844254232922e-06,0.00251805394120974
1730103297.234536,-0.9641151265935614,-0.029226054262719407,9.737684214157177,-0.0014987625596656327,0.049323221869849825,7.401396637227566e-05,0.9987817419321902,2.2946233220800762e-14,6.326906552539753e-07,0.001510832364725844
1730103297.242624,-0.9701604675576995,-0.04099880882716289,9.7360612682404,-0.0021027991618615496,0.049638164186888684,0.0001045081526601426,0.9987650474310195,1.3767739932480457e-14,3.7961439315238514e-07,0.0009064994188355064
1730103297.250536,-0.9874346215990727,-0.049020142229891484,9.735566341022365,-0.002514212651320758,0.050517607734324725,0.00012717479250291496,0.9987199977321557,8.260643959488274e-15,-0.0017025324772122349,0.0005438996513013038
1730103297.2585616,-0.986785786387178,-0.061733807750044264,9.740057788011855,-0.0031648204010161925,0.05046109950822689,0.00015990483547089984,0.998720999968807,4.9563863756929645e-15,-0.0010215194863273408,0.0024547900980909404
1730103297.2665875,-0.9749043172912911,-0.06840432639807344,9.739640194047347,-0.0035070371356345233,0.049859907855351306,0.00017507938915141592,0.9987500486239751,2.9738318254157787e-15,-0.0006129116917964045,0.004452704489088785
1730103297.2745728,-0.977352242474384,-0.06833649476462532,9.750881805637391,-0.0034995083328769583,0.04992697857525535,0.00017493912448268283,0.9987467244742667,1.784299095249467e-15,-0.0003677470150778427,0.006077143185149524
1730103297.2825668,-0.9754691152600209,-0.07906970325525957,9.75331720960314,-0.0040481418905281156,0.049818632793852874,0.0002019252895203715,0.9987500566207558,1.0705794571496801e-15,-0.0002206482090467056,0.006626116341323936
1730103297.2905476,-0.9592557684724189,-0.09125571233401511,9.75621497297868,-0.004670806228451644,0.0489814866594691,0.00022906048501010692,0.9987887389558908,6.423476742898081e-16,-0.00013238892542802335,0.003975669804794362
1730103297.2987084,-0.9327683487787638,-0.0837232674882997,9.743827841209082,-0.004291014964363868,0.04769886461979833,0.00020491167321544685,0.9988525234066158,3.8540860457388484e-16,-7.943335525681401e-05,0.002385401882876617
1730103297.306528,-0.9219037204488989,-0.08087974174297982,9.740944545301621,-0.004146622471961867,0.04716100824757413,0.00019577842793129768,0.9988786745616078,2.3124516274433087e-16,-4.76600131540884e-05,0.0014312411297259702
1730103297.3146734,-0.9098782796326206,-0.07677942463563166,9.759804702034488,-0.0039289412371286084,0.046460684505091894,0.00018274005173279974,0.9989123759480343,1.3874709764659852e-16,-2.859600789245304e-05,0.0008587446778355821
1730103297.3225741,-0.9139157629455881,-0.07862879735950398,9.752206602958974,-0.004026659980073769,0.046701536450731836,0.000188258149784422,0.9989007543602192,8.324825858795911e-17,-1.7157604735471824e-05,0.0005152468067013492
1730103297.3308794,-0.9168170932653997,-0.06680973202898363,9.760815852644525,-0.003418381486002247,0.046808300575525305,0.00016018514749256148,0.9988980288327562,4.994895515277546e-17,0.0016924656830068433,0.0024375983913309677
1730103297.3385484,-0.9250222359397086,-0.0652249566490308,9.763108360463667,-0.0033364478585345423,0.047213479861911316,0.0001577020603775857,0.9988792372279426,2.9969373091665276e-17,0.003569619778576296,0.005293769587956865
1730103297.3466592,-0.9297059013782781,-0.06858365440934036,9.74772445353406,-0.0035137313249323206,0.04752516467299991,0.00016718060260891677,0.9988638468107786,1.7981623854999166e-17,0.0046959122359179675,0.007858852428856467
1730103297.354534,-0.9389804451238419,-0.06461336891513546,9.760999604981764,-0.0033057606741109793,0.047931353273151484,0.00015863277989411283,0.9988451492375637,1.0788974312999499e-17,0.005371687710322971,0.011100662379244354
1730103297.36311,-0.9373625663907115,-0.06749844127095626,9.753881225391403,-0.0034558904409870473,0.04788389318798589,0.00016567252303601574,0.9988469162724769,6.473384587799699e-18,0.006202843056428003,0.013471438410939118
1730103297.3705313,-0.9454898054594268,-0.06970832501648,9.755595701787575,-0.0035683317870453582,0.04828765028531837,0.00017250869595992018,0.9988270821713487,3.884030752679819e-18,0.0071272263255530545,0.013616833845569883
1730103297.3786013,-0.9661678798576874,-0.05642962513684113,9.76045511028153,-0.0028870326653973135,0.04931225083773544,0.0001425400878954604,0.9987792281790949,2.3304184516078915e-18,0.007681856287028085,0.013278381044886309
1730103297.3865283,-0.974504581674378,-0.06594007732819843,9.751878587409152,-0.0033764732854858364,0.049777644473366786,0.00016828246523872738,0.9987546031032084,1.3982510709647348e-18,0.007163254140989041,0.011372549118628037
1730103297.3945339,-0.9804642834284549,-0.061830121836372175,9.75463353916424,-0.0031650871993386957,0.05006592082251054,0.00015866277938682567,0.9987408876286867,8.389506425788409e-19,0.004297952484593424,0.009377669839949011
1730103297.402533,-0.9964899531137136,-0.0552940057190108,9.745991443078623,-0.002832893572378743,0.05092297142258396,0.00014444734863162473,0.998698555536387,5.033703855473045e-19,0.0025787714907560544,0.008180742272741596
1730103297.410564,-0.9960497079522125,-0.0496963948864846,9.743918647585456,-0.0025466586494494675,0.05091158766444565,0.00012982321709977196,0.9986999088400584,3.0202223132838265e-19,0.0015472628944536327,0.007462585732417148
1730103297.4185312,-0.9986586028474992,-0.04849260988110951,9.745787432447756,-0.002484479954904903,0.051034226530220855,0.000126959346312662,0.9986938064107238,1.8121333879702959e-19,0.0009283577366721795,0.00788307193114654
1730103297.426572,-0.9853798894917026,-0.05231932203218133,9.754570148677638,-0.002678222702709708,0.050315711409552225,0.0001349280713230959,0.9987297622995527,1.0872800327821776e-19,0.0005570146420033077,0.00856105371184621
1730103297.4345398,-0.9934538126012715,-0.056770130816965046,9.762473400241738,-0.002903644879221533,0.050683912578010436,0.00014735809961698943,0.9987105126801211,6.523680196693065e-20,0.0003342087852019846,0.009819222903190074
1730103297.442623,-0.9824964355099816,-0.05177917077533528,9.754765502547388,-0.0026505403368444437,0.05016860859769663,0.0001331420476463841,0.9987372365244469,3.914208118015839e-20,0.00020052527112119075,0.010999814479458424
1730103297.4505403,-0.987174757057942,-0.05189705690856054,9.747028301772573,-0.0026586448501636894,0.05044538315639438,0.0001342878069543256,0.9987232734309089,2.3485248708095032e-20,-0.001582445083175412,0.011282479363757402
1730103297.4585998,-0.9753771198597653,-0.055559091078730076,9.749568586288152,-0.0028455929257720507,0.04983400929682734,0.00014198429483552972,0.9987534500359759,1.4091149224857017e-20,-0.0026522272957533732,0.011026388232874757
1730103297.4665499,-0.9886492516521871,-0.046503563778097425,9.76378202579633,-0.002378259069126895,0.05043430602735181,0.00012009902700297699,0.9987245417208707,8.45468953491421e-21,-0.003719786684762182,0.010021353431421107
1730103297.4745598,-0.9822473207667027,-0.05663255818873345,9.773267770165297,-0.002893504032889524,0.05006157661486863,0.00014503583889108603,0.9987419312043782,5.072813720948526e-21,-0.004786012379629499,0.008992642489086886
1730103297.4825335,-0.9889406495400997,-0.051936047364411944,9.780156317616758,-0.0026516413374234864,0.0503650639545496,0.0001337202652009107,0.9987273458006256,3.0436882325691156e-21,-0.00585143785801192,0.00752403580076229
1730103297.4905305,-0.9819433191674193,-0.03930191406317842,9.774473219280992,-0.0020078042254300724,0.05004061450394982,0.0001005979915836444,0.9987451604399911,0.0017027602458481264,-0.0069163832065034046,0.0062171817263055006
1730103297.4985275,-0.964337391646936,-0.04010113989298518,9.749994385670158,-0.002053858563570228,0.049272432084644546,0.00010132188906249329,0.9987832591885688,0.0010216561475088757,-0.007129660354136263,0.0037303090357833
1730103297.5066502,-0.9509007931424585,-0.04345371738305673,9.7635586650935,-0.0022225579287370725,0.048523666875057575,0.00010797411811292448,0.9988195544395603,0.0006129936885053254,-0.005980556458329884,0.00223818542146998
1730103297.5146666,-0.9435570945378188,-0.04354990254897466,9.755177241292428,-0.0022294284968468773,0.048192616081909716,0.00010756724648596996,0.998835566964376,0.00036779621310319523,-0.005716784182308089,0.0030456714987301143
1730103297.522572,-0.938432614876988,-0.04264993298446292,9.754457950000067,-0.0021835465309748793,0.04793622148561376,0.00010479168949258768,0.9988480063617943,0.00022067772786191713,-0.005558520816695011,0.003955853206548227
1730103297.530946,-0.9245840196097866,-0.05336269904849025,9.755462896220743,-0.002731810921027998,0.04722843157769616,0.00012916376064573085,0.9988803711038302,0.00013240663671715028,-0.005463562797327164,0.005353342354163158
1730103297.5385327,-0.9186690641096218,-0.06649412333534416,9.755347603455101,-0.003404120683550927,0.046928359373237624,0.0001599269267514336,0.9988924443964357,7.944398203029017e-05,-0.004980897924244425,0.005766145781270084
1730103297.5469637,-0.9239786369521013,-0.06383849060276899,9.759587990783999,-0.003266712002153281,0.047177521249760476,0.0001542879973635952,0.9988811672449518,4.7666389218174096e-05,-0.0029885387545466545,0.006013827837534239
1730103297.5545292,-0.93147394364587,-0.06463931262338014,9.74944295438251,-0.0033110614840426737,0.047606759273234,0.0001578087055430294,0.9988606551665561,2.8599833530904456e-05,-0.0017931232527279926,0.005736747009830702
1730103297.5631711,-0.9311827243418188,-0.054585318531059336,9.763706646652942,-0.0027919993521895664,0.047523295651368064,0.00013283561717104608,0.9988662190026996,1.7159900118542672e-05,-0.0010758739516367956,0.005996188574670611
1730103297.5705333,-0.926698429771107,-0.048552922075666846,9.747604584915594,-0.0024875734847490806,0.04737376818820764,0.00011797855834005172,0.9988741282798688,1.0295940071125602e-05,-0.0006455243709820774,0.005300473390650493
1730103297.5785735,-0.9275991555189143,-0.058101593333290735,9.727408860568495,-0.0029829396991268796,0.04751696887642436,0.00014190117348748343,0.9988659667861375,6.177564042675361e-06,-0.0003873146225892464,0.0031802840343902955
1730103297.586702,-0.9243088683113485,-0.07005572040427131,9.74138822405594,-0.003591524158507655,0.04728159034912169,0.00017000420679941943,0.9988751289660016,3.7065384256052164e-06,-0.00023238877355354783,0.004036620727944335
1730103297.594532,-0.9151520910063403,-0.07986181847303153,9.741156716171846,-0.004094417077583184,0.046816934566024676,0.00019190009135614932,0.9988950763523616,2.2239230553631297e-06,-0.0001394332641321287,0.0049761128055387915
1730103297.6029425,-0.9139675876116166,-0.08287243532210017,9.75514360123631,-0.004242694196393722,0.04668999003913197,0.00019830941120133438,0.998900397962419,1.3343538332178779e-06,0.0016191002873688493,0.005965498113557496
1730103297.6105342,-0.9190029695591575,-0.09042488941591634,9.745818639989833,-0.0046336831095908975,0.046989743368116864,0.0002179787134766938,0.9988846006843427,8.006122999307267e-07,0.0030999104797314677,0.008687579605678878
1730103297.6185327,-0.9239395600558069,-0.0983082441964248,9.734716999423588,-0.005043293016799496,0.04729352007352598,0.0002387853188015954,0.9988682751675384,4.80367379958436e-07,0.0039883965951490385,0.010320828500951706
1730103297.6266768,-0.9367177411604373,-0.09872869407644863,9.734041519234232,-0.005065047995905774,0.04794639894281678,0.00024313356691184237,0.9988370382616396,2.882204279750616e-07,0.004947178325861613,0.01044939771519134
1730103297.6346397,-0.9518066749696998,-0.09922038417047853,9.733636231120617,-0.005090285711247021,0.04871527005686291,0.0002482726436137086,0.9987997045530997,1.7293225678503694e-07,0.004671067241365094,0.01052653924373512
1730103297.6426392,-0.9589446739271323,-0.1007124990569746,9.73937856240284,-0.0051636952926793255,0.049049160477425066,0.00025358353394574134,0.9987829853390453,1.0375935407102216e-07,0.002802640344819056,0.010147134099399355
1730103297.651588,-0.9759167421004199,-0.08748197819395039,9.74186628050811,-0.004484046944073886,0.049899009856776845,0.00022403084565314566,0.9987441774290836,6.225561244261329e-08,0.00338434445273956,0.008216730766949771
1730103297.6586344,-0.967904050387205,-0.06996685903551085,9.740485869379084,-0.003586899347413716,0.04950019152261875,0.00017777127977966156,0.9987676574607669,3.735336746556797e-08,0.003733366917491862,0.004930038460169863
1730103297.6665432,-0.965011796687401,-0.0707105353431815,9.749234429342295,-0.0036218057252700594,0.049309361781277185,0.00017880761574484835,0.9987769707957067,2.241202047934078e-08,0.003942780396343244,0.0029580230761019175
1730103297.6746333,-0.9501083353366593,-0.06517123697739327,9.750892262829986,-0.0033376544517325496,0.048545298950416683,0.00016221959975558795,0.9988153922008696,1.3447212287604468e-08,0.004068428483654072,0.0017748138456611503
1730103297.682544,-0.9593621911434019,-0.06304475878799846,9.752605223420648,-0.003228110510704198,0.049006274544363036,0.00015838880698587458,0.9987932415023637,8.06832737256268e-09,0.0024410570901924433,0.0027676485532448164
1730103297.6905344,-0.9567742189829161,-0.051713224901705324,9.74621097462856,-0.002649660811557691,0.048907272946147155,0.00012974340251587773,0.998799800318965,4.840996423537608e-09,0.001464634254115466,0.0042147295007190794
1730103297.6985307,-0.9602492591729528,-0.0463508255660232,9.73399471954276,-0.0023778609324099954,0.04914494888686146,0.00011700156398858687,0.9987888195644402,2.9045978541225646e-09,0.0008787805524692795,0.005082978069203638
1730103297.7066529,-0.966643846275256,-0.044809327126723295,9.740790756286202,-0.0022971430926898174,0.04943561346647908,0.0001136999986589417,0.9987746644399401,1.7427587124735386e-09,0.0026557186387917257,0.0073066874561425
1730103297.7146432,-0.9781420438491379,-0.0424479070670496,9.7376857733518,-0.002176713197344186,0.05003516462703408,0.00010904905114645566,0.9987450787506823,1.045655227484123e-09,0.003296191429123162,0.010343673334153942
1730103297.7226317,-0.9776189372469828,-0.039833954201167254,9.747793791891938,-0.002040562550653616,0.04995720912784079,0.00010206847024990075,0.9987492693076984,6.273931364904738e-10,0.001977714857473897,0.012165864860960808
1730103297.7311778,-0.9969375268989707,-0.045208767296090975,9.750267300525788,-0.0023151871200578,0.05092383581623182,0.00011805169378234024,0.9986998492631097,3.764358818942843e-10,0.0011866289144843382,0.011982109592658833
1730103297.738634,-0.9977547732194606,-0.04939133581710771,9.766595455999067,-0.002525153947512477,0.05088058312,0.00012864834958237328,0.9987015436598224,2.2586152913657055e-10,0.0007119773486906029,0.011020476308753583
1730103297.7466676,-0.9805280287265982,-0.0341837846445615,9.772322206460768,-0.0017467284814338053,0.049980068530837134,8.741098796340117e-05,0.9987486841285871,1.3551691748194232e-10,0.00042718640921436175,0.008740736092562307
1730103297.7546751,-0.9651641585445526,-0.042776346226190025,9.78605332387646,-0.002182815452787425,0.04913390727509267,0.00010738020259023248,0.9987898091901387,8.131015048916539e-11,0.000256311845528617,0.005244441655537385
1730103297.763256,-0.9597765590915753,-0.053917387325557765,9.769152876894236,-0.0027561013656737946,0.048945184134017085,0.00013506027795374113,0.9987976544896723,4.8786090293499235e-11,0.00015378710731717022,0.003146664993322431
1730103297.7705274,-0.9596564615779921,-0.056053028830881535,9.750393482728338,-0.0028707662760764957,0.04903250431386813,0.00014093095674224293,0.9987930478132915,2.927165417609954e-11,9.227226439030213e-05,0.0018879989959934584
1730103297.778624,-0.962218024896014,-0.0592497750622008,9.749911753699502,-0.0030346131889411932,0.049164731031398505,0.00014937727594133775,0.9987860621934175,1.7562992505659722e-11,5.5363358634181277e-05,0.001132799397596075
1730103297.7871428,-0.9723740888633897,-0.05326695732247672,9.75297459860642,-0.0027272696883778834,0.04966457387495451,0.00013561655025959448,0.9987622208063426,1.0537795503395834e-11,3.3218015180508766e-05,0.0028081299458678033
1730103297.7945821,-0.9681726601051432,-0.05997233381731416,9.76079780970096,-0.0030681550219057384,0.04941197025732126,0.000151789715542437,0.9987737584558044,6.3226773020375e-12,1.9930809108305258e-05,0.005516088520678967
1730103297.8030198,-0.9725949876646485,-0.05058803041734162,9.779138685820577,-0.002583197819650563,0.04954393835411292,0.00012813958509973154,0.9987685962432115,3.7936063812225e-12,1.1958485464983154e-05,0.006715173604103633
1730103297.810652,-0.9563341910851172,-0.05812555750821747,9.762849312566564,-0.002973145443933052,0.04880200261558725,0.0001452691883408174,0.9988040367578319,2.2761638287335e-12,7.175091278989892e-06,0.008286004777082495
1730103297.8187659,-0.956393939944039,-0.06336633426078986,9.769595680069235,-0.0032389720527654345,0.048771367194519286,0.0001581581410279797,0.9988047045283783,1.3656982972401e-12,4.305054767393935e-06,0.009228503480869813
1730103297.8266501,-0.9511625456070485,-0.06842616164045828,9.77244639974076,-0.003496625369136373,0.04849221735093114,0.00016975987107544397,0.9988174255833766,8.1941897834406e-13,2.583032860436361e-06,0.008091242457294078
1730103297.8346977,-0.9516150114950884,-0.07218031856630622,9.762664663574924,-0.0036921400421150116,0.04856321897191627,0.00017951524134474428,0.9988132706563692,4.916513870064359e-13,1.5498197162618167e-06,0.006557505720224573
1730103297.8426309,-0.9573931548462717,-0.06725020774134623,9.74051505058636,-0.003447717584593379,0.048966502575064214,0.00016902644071406674,0.9987944564819558,2.9499083220386154e-13,9.2989182975709e-07,0.0056372636779828695
1730103297.8512177,-0.9680426458374505,-0.06357388074832337,9.73943571126002,-0.003259519194497078,0.049512802947504084,0.0001615869813457972,0.9987681571658908,1.7699449932231692e-13,5.579350978542539e-07,0.00551080851409988
1730103297.8586679,-0.9782630630884077,-0.061368084552509646,9.75219563696109,-0.0031422377345807083,0.049966772291126116,0.00015720462371031184,0.9987459252960846,1.0619669959339015e-13,3.3476105871255237e-07,0.005434935415770086
1730103297.8667617,-0.9822405319448415,-0.05501678334869329,9.743092180760637,-0.0028196349215688344,0.05021516284386272,0.00014176784349936928,0.9987344326603304,6.371801975603408e-14,2.0085663522753143e-07,0.006666481741158304
1730103297.8745399,-0.9647551394794049,-0.049290641298278474,9.73906662803646,-0.002527331445014316,0.04934826160952167,0.00012487195353954716,0.9987784269190442,3.823081185362045e-14,1.2051398113651884e-07,0.008256789659315299
1730103297.8825376,-0.9528273830040492,-0.05255872071646708,9.740482019058206,-0.0026945884909135125,0.04873537428703008,0.0001314784901983341,0.9988080822657445,2.293848711217227e-14,-0.0017026879374594445,0.009636664471671528
1730103297.8905292,-0.9669791238942265,-0.04973116504706775,9.738937052011096,-0.00254993745034286,0.04946182730316473,0.00012627954215781748,0.9987727516869432,1.3763092267303362e-14,-0.0035757531312478564,0.009613209236161201
1730103297.898528,-0.9589501769732546,-0.05593549712394377,9.746389777593377,-0.0028659261142930004,0.04901666297272474,0.0001406477782708012,0.9987938393065549,8.257855360382017e-15,-0.004699592247520904,0.009173446033392974
1730103297.90665,-0.9491049853343434,-0.05032070989546002,9.73362316098962,-0.0025816903420678556,0.04858036596308933,0.0001255681427694534,0.9988159325674133,4.95471321622921e-15,-0.004948205655822701,0.0055040676200357845
1730103297.914677,-0.9381700468646685,-0.03833271158180726,9.746074484972677,-0.0019642060600238613,0.04796394903553008,9.431981768207432e-05,0.9988471317430124,2.972827929737526e-15,-0.00296892339349362,0.003302440572021471
1730103297.9226646,-0.9229899578063011,-0.046702223384631224,9.745404993717981,-0.0023933169724880844,0.04719608734291068,0.00011308153493440891,0.9988827701917558,1.7836967578425155e-15,-0.001781354036096172,0.001981464343212882
1730103297.931219,-0.9119665430431555,-0.04741436747804435,9.744285038467117,-0.002430156301512899,0.046641416070207276,0.0001134697568104241,0.998908734455721,1.0702180547055092e-15,-0.0010688124216577033,0.0011888786059277292
1730103297.9386325,-0.9185206033161276,-0.0476022337680766,9.75175335096113,-0.0024378811354539205,0.046938665702981074,0.00011455749751546298,0.9988947918946084,6.421308328233055e-16,-0.0006412874529946219,0.0007133271635566375
1730103297.9466515,-0.9210165184838172,-0.04388423088584596,9.754079556963395,-0.0022469231722388825,0.047054322851381704,0.00010584495753122507,0.9988897991440803,3.8527849969398325e-16,-0.0003847724717967731,0.00042799629813398244
1730103297.9546297,-0.9129372609438059,-0.0399774879943982,9.758348322556943,-0.00204604367584793,0.04662408796219619,9.549897543782312e-05,0.9989104058958018,2.3116709981638996e-16,0.0014718967627700625,0.0023852480861905477
1730103297.9631312,-0.926764479369018,-0.04433720690796704,9.749417413944322,-0.002271166126217997,0.04736849339457888,0.00010770289470356332,0.9988748950884897,1.3870025988983397e-16,0.0030115883649721956,0.003985289220486518
1730103297.9705253,-0.9372155919182857,-0.0598817272209521,9.748607851931046,-0.0030675853534467778,0.047902459285825975,0.00014711446178458185,0.9988472969737687,8.322015593390037e-17,0.004361093387755507,0.0066480741469122275
1730103297.9791095,-0.9408526376216746,-0.06537771675249314,9.765839207008236,-0.003343195610276299,0.04800259631802462,0.0001606681868305086,0.9988416030460355,4.993209356034022e-17,0.005170796401425494,0.008245745102767653
1730103297.9865246,-0.9447108062058174,-0.06843589030540212,9.7493629614608,-0.0035054400246693645,0.04827882624373334,0.00016943715562239904,0.9988277319527182,2.995925613620413e-17,0.005230928148165455,0.009204347676280908
1730103297.9947803,-0.9491804888504436,-0.07194673559925689,9.728942726827652,-0.003692939833624347,0.04860656642944502,0.0001797147776160003,0.9988111591276521,1.7975553681722478e-17,0.005267007196209431,0.009779509220388862
1730103298.0025306,-0.9518622984372193,-0.087939612404476,9.717887686877841,-0.004518880107278292,0.04879715296017925,0.0002207737517284727,0.9987984625761633,1.0785332209033486e-17,0.005288654625035817,0.010124606146853635
1730103298.0106554,-0.9517954430271752,-0.09753533848760748,9.72849291486108,-0.005006483558669765,0.04874037358914172,0.00024431132027096696,0.9987989043930446,6.471199325420091e-18,0.0057273331437936795,0.009054594118346401
1730103298.0186062,-0.9541495314413051,-0.10113799264334573,9.749939522110008,-0.005179971097277361,0.048753138344494275,0.0002528439189869585,0.998797394605606,3.8827195952520545e-18,0.005990540255048397,0.008412586901242062
1730103298.026635,-0.9680118331225956,-0.10808798845710119,9.750357637826552,-0.005535460336630827,0.04945371807613558,0.0002740886800535623,0.9987610391493569,2.3296317571512327e-18,0.0052970843988771645,0.008027382570979458
1730103298.034644,-0.9693860293169168,-0.09406205332816697,9.758269952568977,-0.0048132971908421245,0.04948446850884397,0.00023847838745504394,0.9987632665825313,1.3977790542907395e-18,0.0031782506393262986,0.008221950034283927
1730103298.0426376,-0.9802661940061655,-0.0882801140769783,9.753679954939825,-0.004519436235106524,0.050059440589692215,0.00022652678204706025,0.998735989032928,8.386674325744436e-19,0.001906950383595779,0.00876438057372864
1730103298.0507314,-0.9913432759740118,-0.07810718587782761,9.736081906069364,-0.004005757124148955,0.0507121453244212,0.0002034038931306877,0.9987052572472588,5.032004595446661e-19,0.0011441702301574674,0.009941219020319532
1730103298.0585313,-0.9972712646566728,-0.06338430298177469,9.742761328700212,-0.0032484406797257735,0.05097903154659988,0.00016581884850390237,0.9986944269794593,3.0192027572679964e-19,0.0006865021380944805,0.010221632026812037
1730103298.0667534,-0.9981944360400973,-0.06316969922070544,9.738628696634189,-0.0032388046060435245,0.05104734695194965,0.00016554909136458717,0.9986909687723172,1.8115216543607977e-19,0.00041190128285668827,0.01081556989216957
1730103298.0746315,-0.9989877590361678,-0.05202760932734513,9.742613461876998,-0.0026664527582422365,0.05106729842451418,0.00013634692887987644,0.9986916453394534,1.0869129926164786e-19,0.0002471407697140129,0.011171932611384088
1730103298.0826876,-0.9951541898455288,-0.05635568302804771,9.734948674050026,-0.002890562142979,0.050912437696537985,0.0001473572876129638,0.9986989269164774,6.521477955698872e-20,0.00014828446182840776,0.010534370119988737
1730103298.0905483,-0.9866291240147392,-0.06469861123284425,9.761713843101889,-0.0033094706380930295,0.05034195369913129,0.00016681765277415627,0.9987265427902279,3.912886773419323e-20,8.897067709704465e-05,0.010151832625151527
1730103298.0985339,-0.9822323450143122,-0.045044091056112796,9.770111499220508,-0.002302171486103054,0.05007725329684242,0.00011543155820941423,0.998742687274479,2.3477320640515937e-20,5.3382406258226785e-05,0.0099223101282492
1730103298.1066499,-0.9827067397722593,-0.046180067914917675,9.766052126583087,-0.0023612050264129976,0.050121891759634454,0.00011849733267204205,0.9987403099082568,1.408639238430956e-20,-0.0016707308020931903,0.00893321650718374
1730103298.1146483,-0.9786818136387462,-0.03321470456730998,9.76433476349868,-0.0016986037330983593,0.049927188715240205,8.491252988408823e-05,0.9987514121953536,8.451835430585737e-21,-0.0031308887885660723,0.007488380211620403
1730103298.1225634,-0.9839283032711383,-0.03429403270132349,9.748220875189052,-0.0017566672670374399,0.05027513924789028,8.842865480445452e-05,0.998733856777716,5.071101258351442e-21,-0.0018785332731396432,0.0066214784342824
1730103298.1306345,-0.9679225837693236,-0.03254742792157534,9.753396592496243,-0.001666388372601361,0.049437329706686954,8.248276398286584e-05,0.9987758340978509,3.042660755010865e-21,-0.001127119963883786,0.006101337367879598
1730103298.1386356,-0.9745997233572972,-0.036048448208023325,9.758656804374699,-0.0018446099710014636,0.0497491378480553,9.188168557938731e-05,0.9987600373739359,1.825596453006519e-21,-0.0006762719783302715,0.006214942789499949
1730103298.1466422,-0.976211805449925,-0.03671253938379837,9.752475545027163,-0.001879770988321016,0.04986214834236071,9.384632084626587e-05,0.9987543360689775,1.0953578718039112e-21,-0.0004057631869981629,0.0075601762268582545
1730103298.1546319,-0.961137903582455,-0.03375911176504465,9.739668823110048,-0.0017308851982847028,0.049161975822585934,8.519688280863326e-05,0.9987893155771846,6.572147230823467e-22,-0.00024345791219889773,0.00879300635073527
1730103298.163124,-0.9513753019639261,-0.043000382830511164,9.74180101676642,-0.0022042686071854518,0.04865537957220836,0.00010737696207257384,0.9988131875925447,3.9432883384940805e-22,-0.002274525054629497,0.009532704425061479
1730103298.1705246,-0.9380957158463243,-0.056924851280337946,9.752178299268836,-0.0029150446572231837,0.04792980959408975,0.00013987889368345012,0.9988464428033049,2.3659730030964484e-22,-0.0030674752786258247,0.008699453085271109
1730103298.1788182,-0.9176781155429509,-0.07389865832679651,9.751222063789818,-0.003784781461709334,0.04689745479209997,0.0001776934088544619,0.9988925230415745,1.419583801857869e-22,-0.0018404851671754948,0.008199502281396886
1730103298.1868358,-0.9214687064839736,-0.08767424504490604,9.762619330803187,-0.004484998263609968,0.047034597834136285,0.00021118594847260852,0.9988831697439153,8.517502811147213e-23,-0.001104291100305297,0.007899531799072353
1730103298.1948233,-0.9254190022106967,-0.09617901724178736,9.760359724702615,-0.0049211197368834855,0.04724526733359731,0.0002327623668251138,0.9988711694291675,5.1105016866883276e-23,-0.0006625746601831782,0.0072938594482156015
1730103298.2028282,-0.9218036754963398,-0.10343666205405679,9.737456146100866,-0.0053049026401243895,0.04717141806567455,0.0002505221961942454,0.9988726908692025,3.0663010120129965e-23,-0.0003975447961099069,0.006930456037701551
1730103298.2105312,-0.931605487768507,-0.09318661881446533,9.742867612221067,-0.004776486156866655,0.047643944666850645,0.00022783198001597428,0.9988529360267027,1.8397806072077978e-23,-0.00023852687766594413,0.007563794114317183
1730103298.2185726,-0.9288674491552448,-0.08751543320274169,9.741326088572874,-0.004486554220568958,0.047512649218979255,0.00021341125099326105,0.998860537538178,1.1038683643246786e-23,-0.00014311612659956646,0.008369487021748594
1730103298.2266283,-0.9277034663193188,-0.08937996548805126,9.751893342352709,-0.004577195151910925,0.047402340157456084,0.00021721622237624166,0.9988653664279541,6.623210185948071e-24,-8.586967595973987e-05,0.009278592827669473
1730103298.2346294,-0.92772333711581,-0.09289288651939326,9.755360652628422,-0.0047553947361445754,0.04738641719555617,0.00022559710672865067,0.9988652876100048,3.973926111568842e-24,-5.152180557584392e-05,0.009824056311222
1730103298.2426393,-0.9387485872304234,-0.0820719501733547,9.751694954809475,-0.004202936687811268,0.04796420183819004,0.00020182458129274668,0.9988401923891839,2.384355666941305e-24,0.00167184716250262,0.010151334401353518
1730103298.251279,-0.9288437458441134,-0.0719880858754972,9.760508863754826,-0.0036833315480215532,0.04741947369963898,0.00017485953942624437,0.9988682575829998,1.430613400164783e-24,0.001003108297501572,0.010347701255432426
1730103298.2585304,-0.926970983834593,-0.06210704464053268,9.758135763809534,-0.003178562108704851,0.04733634759084133,0.0001506311408027378,0.998873938117288,8.583680400988698e-25,0.0006018649785009432,0.010465521367879772
1730103298.2670774,-0.9387760155937245,-0.0650369660421321,9.751444660190018,-0.003330686341343848,0.04796760181398445,0.00015995004623054067,0.9988433261131063,5.1502082405932185e-25,0.0003611189871005659,0.01053621343534818
1730103298.2745242,-0.9367610683406097,-0.06320361639285739,9.741683914033933,-0.003240051336225224,0.0479130541077965,0.00015542007198036842,0.9988462430013957,3.090124944355931e-25,0.002345121699570498,0.011430008798753288
1730103298.2825282,-0.9424952848031939,-0.03480970767751131,9.73534862600825,-0.0017856264180417408,0.048236339196567654,8.623259856681711e-05,0.9988343504721631,1.8540749666135587e-25,0.0035355233270524568,0.011966286016796352
1730103298.2905214,-0.936598428206135,-0.03644813539752241,9.745433822821747,-0.001867769482016654,0.04788732270780845,8.95453681155271e-05,0.998850993763668,1.1124449799681353e-25,0.0038240742420796005,0.010585292101774064
1730103298.2985294,-0.9510168266990716,-0.0568242254767947,9.745260016593438,-0.0029118564687660173,0.048619596588861995,0.00014174151792101318,0.9988131135646867,6.674669879808812e-26,0.0022944445452477602,0.008053935506912566
1730103298.3066523,-0.9512881599842866,-0.04438960242474869,9.737973127875984,-0.0022763739140894915,0.04866990384411551,0.00011092264035258318,0.9988123178444366,4.004801927885287e-26,0.003930807095920846,0.0022782209353753493
1730103298.3146822,-0.9689286320745563,-0.020887677470474212,9.732643313981448,-0.0010716978222876847,0.0495932881129059,5.3214530245265985e-05,0.9987689194233778,2.402881156731172e-26,0.005338314687786729,-0.003315658114857138
1730103298.3226602,-0.9627535037076244,0.005663326134902974,9.737106870957229,0.00029044429998613646,0.049257233583216695,-1.4323870711885208e-05,0.9987860833915657,1.4417286940387032e-26,0.0032029888126720372,-0.008800435852306788
1730103298.330648,-0.9774837794706684,0.019917987136019912,9.74672818995715,0.001020449420368181,0.049956162925018345,-5.104149400286637e-05,0.9987508887923732,8.650372164232219e-27,0.0019217932876032223,-0.01251699255623861
1730103298.3386412,-0.9853642642644324,0.03565338871715882,9.724249401767258,0.0018307809797593578,0.05047108972543393,-9.251958087617916e-05,0.9987238400994835,5.1902232985393314e-27,0.0011530759725619333,-0.012192786209825513
1730103298.3466322,-0.9831493703262375,0.10040068801545153,9.682271129097463,0.005177659245230765,0.050572212835030675,-0.00026218470295028055,0.9987069512088569,-0.0042569006146203165,0.00069184558353716,-0.0073156717258953076
1730103298.354662,-1.0060018707308989,0.1598392018717709,9.68916646774168,0.008236031903101355,0.05169659603122186,-0.00042635944514725805,0.9986287838605992,-0.008513801229240631,0.00041510735012229596,-0.004389403035537184
1730103298.3625343,-1.0031933795186174,0.19622057068360943,9.729934956328602,0.010067977816070049,0.051334834281862925,-0.0005175466940579845,0.9986306137693598,-0.017027602458481263,0.00024906441007337756,0.0003461886089119108
1730103298.3705215,-0.9907343773205454,0.26353922351368125,9.776422704754193,0.01345677993003896,0.05045295580001804,-0.0006798619639491228,0.9986355451878658,-0.02979830430234221,-0.003681771907114258,0.004890303841429494
1730103298.378747,-0.9739215895270928,0.29100172624688064,9.779176236377905,0.014854668498267944,0.04958437906997685,-0.0007375484237056864,0.9986591932177734,-0.041717626023279095,-0.005614583635964808,0.0071910829194780125
1730103298.3866372,-0.9896912947807088,0.33261834531844087,9.868216715947836,0.016823980786848897,0.04992224953070445,-0.0008410591619132101,0.9986110430451708,-0.05568026003923374,-0.005071510427427011,0.007294480181921029
1730103298.3949976,-0.9996319582649096,0.37650250987661144,9.977665322537451,0.018832791125866142,0.04986204462318631,-0.0009403785975327741,0.9985780981838617,-0.06746336094050277,-0.0060227366866904275,0.0060794483550007435
1730103298.4026217,-1.0077511378495707,0.4313240083673731,10.079247511393564,0.021354407424388804,0.04974860748955383,-0.0010639129098569317,0.9985328905077308,-0.0813442624646567,-0.008296232688096605,0.00024214852130419314
1730103298.410648,-1.0368040823679454,0.46637168895597075,10.062385270752154,0.023123703254558065,0.051246750394274815,-0.001186892816471695,0.9984175760708864,-0.09563246423961749,-0.001997909182623741,-0.003685921440375769
1730103298.4186647,-1.0365187567938143,0.49075217963334805,10.051310245703245,0.024357155125834647,0.05128127474849583,-0.0012510847200828097,0.9983863954608799,-0.10633383561190413,0.0051866054123562285,-0.005617073355921714
1730103298.4266322,-0.9865481669180854,0.5211822049968057,10.081057095908275,0.025791853590940918,0.04867534002958011,-0.001257337388796164,0.99848080134975,-0.1165858689884344,0.008645934046420148,-0.009329904874021471
1730103298.4346347,-0.9505803088422575,0.5463834050293334,10.07544202976176,0.02705369983063967,0.0469308217859733,-0.0012715203430310738,0.9985309101515005,-0.12529122938312476,0.011572911349782562,-0.014537434215115547
1730103298.4426446,-0.9483926274440263,0.5368438479492407,9.975107822837526,0.0268486929398893,0.04729265674666994,-0.0012716288291858935,0.998519371502317,-0.13264289592724912,0.018863068530806423,-0.02234454249585434
1730103298.450633,-0.9425310354507908,0.5251346095507944,9.90796411386853,0.026441893943665654,0.047321255065767245,-0.0012531070593914176,0.9985288953186934,-0.14003372628395794,0.029622513761351214,-0.024900357156987456
1730103298.4585304,-0.939971760918912,0.5135600833574298,9.965121896055493,0.02571273467499112,0.04692917778129734,-0.0012084097568079142,0.998566496180482,-0.1491508151740656,0.03820663120698825,-0.02430539564635717
1730103298.4665277,-0.9532802464927534,0.4999116029929735,10.013302934996576,0.02490994220942668,0.04736649810958657,-0.001181590861414011,0.9985662288896986,-0.165689010106143,0.045059861920218595,-0.021819968432668837
1730103298.4746265,-0.9773064889601052,0.497947439090706,9.87509628248232,0.02515649807066545,0.049225056674508466,-0.001240227488634058,0.9984700827946666,-0.17986882768000978,0.048746110286694774,-0.019051641920069744
1730103298.4825325,-0.9285153106123913,0.48910749543684545,9.751231442585095,0.02502636193032951,0.047375167977846175,-0.0011873344188262,0.9985628998238323,-0.1922079287774881,0.051809239429504536,-0.013985125520814035
1730103298.4905186,-1.0112892412990755,0.517082932320701,9.840915352367464,0.026209261201343405,0.051092209576798955,-0.0013413034669160354,0.9983490680382537,-0.20684812048082965,0.06471505851320322,-0.01094521568126061
1730103298.498529,-1.0875292381388202,0.53027689196078,9.89664105956501,0.02672040151798135,0.054600268805096386,-0.001461645683087932,0.9981496352656881,-0.22329465660915115,0.07501269033219463,-0.009972649900452619
1730103298.506648,-1.0293648841918859,0.5432210912311555,9.813000022701894,0.027607758043946547,0.05213500977635223,-0.0014418434096489558,0.9982573182997402,-0.2442305198841569,0.07693436880896914,-0.009814800493429855
1730103298.5146532,-0.9832135240209909,0.5493116696312714,9.864568971140667,0.02777477641081304,0.04955572166541658,-0.0013786267565290735,0.9983841403156479,-0.25806910803354643,0.07893875601795793,-0.009294400787754165
1730103298.5226316,-1.016335430086423,0.48018228620259096,9.90532656701057,0.024184423556808055,0.05102685862678525,-0.0012360282972740436,0.9984036486261233,-0.26807502116902826,0.0856753591423576,-0.010259231148734846
1730103298.530673,-1.0496161030225568,0.43224031166296084,9.826351612813763,0.02194570558618078,0.05311761026644426,-0.0011676342317981482,0.99834640386802,-0.2736528789888553,0.08716318064822522,-0.009986749242399192
1730103298.5386608,-1.0561769774873622,0.39772904295480777,9.718632758459743,0.020418252828533972,0.054042746971459166,-0.0011053051801322186,0.9983292316423814,-0.2774252837422136,0.08465035306004953,-0.007694809791287642
1730103298.5466495,-1.0977024682306986,0.370557937247494,9.667169554978189,0.01912345435218027,0.05645108830910744,-0.0010814630649031143,0.9982216179586558,-0.2805401067171526,0.08229127638422006,-0.0012113653830763318
1730103298.5545385,-1.1063371913876379,0.324088332905137,9.574760650223242,0.016887759353775053,0.057446037690919896,-0.0009718790962250811,0.9982052954120434,-0.2807062402562679,0.08172721050164644,0.0069356018764707705
1730103298.5626054,-1.143121487195864,0.2902210661493322,9.61963235693082,0.015052285274233251,0.059070960615913125,-0.0008908099476227639,0.9981398983998053,-0.2782517800109649,0.08394291134087445,0.017783443092667474
1730103298.5705235,-1.1314338212725965,0.16383757255092746,9.69563651498857,0.008433314486659455,0.05804193696101251,-0.0004903300579644554,0.998278404222498,-0.28401583490863763,0.08399526166002516,0.02216369751507534
1730103298.5792348,-1.1497997593162923,0.07795182941922835,9.765420446590797,0.003983995212970385,0.058565327673209995,-0.00023372702374254206,0.9982756009982168,-0.2934339287077097,0.07976977123689527,0.0226633998612099
1730103298.5866852,-1.1735085909413379,0.003914887934740132,9.704340134165415,0.00020132832772617275,0.06013461131982122,-1.2128750665169235e-05,0.9981902563345386,-0.31483531726124814,0.07084912606108687,0.01657787034696016
1730103298.594571,-1.1973106965569902,-0.11448810825478092,9.620765594171123,-0.005937880253561227,0.06186207809208305,0.0003680410439640288,0.9980669764189242,-0.3366156416840738,0.06336828864829167,0.009946722208176096
1730103298.6028879,-1.1452725739400536,-0.22934379634935295,9.50214670269408,-0.012042809246036637,0.05991701472146512,0.0007229207137599992,0.9981304521343756,-0.36117746799724415,0.04994029490991188,-0.007654048641879354
1730103298.610646,-1.0999239105749694,-0.3973771579365649,9.37926061194848,-0.021132139057868985,0.058271403038468006,0.0012337727677309313,0.9980763267864461,-0.3754888737236843,0.03336969743764338,-0.028431072627001383
1730103298.6186469,-1.1428648211984973,-0.5427293257677983,9.354370671368306,-0.028917373561240634,0.06062221575936851,0.001757005618397727,0.997740269506048,-0.3819472668522382,0.023427338954282277,-0.045154187632694916
1730103298.626638,-1.197359787494489,-0.7137376845720071,9.393066824207702,-0.037832055511085455,0.06312667941685056,0.0023947129026016694,0.9972853269108708,-0.3824167822376743,0.016610543741341556,-0.06242478768096557
1730103298.6346333,-1.191031280211537,-0.8445942794443762,9.401679885784388,-0.04469025280077063,0.06265164247065606,0.002808257072764348,0.9970304241559259,-0.3818471113460119,0.009966326244804933,-0.07448990795577609
1730103298.6426523,-1.2193164780878596,-0.9568664797760006,9.444915529126883,-0.05035437014809855,0.06374569315643887,0.0032205348515064367,0.9966897973623807,-0.37895116844224225,0.00087151500933858,-0.08045190993627631
1730103298.6506371,-1.203247613903497,-1.1192796058831784,9.479476041108942,-0.05861102936835092,0.06254820158385868,0.003679582325369615,0.9963126669820664,-0.371253941839512,-0.011396412715333737,-0.08402911112457645
1730103298.658531,-1.1969581777170983,-1.2320503721724851,9.504521911286458,-0.06428058862920352,0.06195485635515799,0.003998493398405616,0.9959988020826319,-0.3619530152017915,-0.02216268984183338,-0.08830388214486667
1730103298.6665368,-1.2099439276263526,-1.3760878649050536,9.545646231488673,-0.07138018168304486,0.06220207842901533,0.004460075792350078,0.9954978045309455,-0.34998710829722873,-0.03543349710112567,-0.09257150500288894
1730103298.674536,-1.2079191507652647,-1.4840581754860007,9.58396777307289,-0.07658519934339132,0.06173426243999592,0.004751027002028434,0.9951386917535409,-0.341956184031567,-0.04765288207132136,-0.09385500853331621
1730103298.6825345,-1.2062254443165807,-1.5845139665708974,9.572244773951157,-0.0817673703563103,0.061596062819351385,0.005063214390309627,0.9947333240875196,-0.33415779904193577,-0.05924141366805909,-0.09377373052864851
1730103298.6905208,-1.195871833972761,-1.699375239073398,9.521397084097256,-0.08802162731005539,0.06123175566454498,0.005421052270611305,0.994220034708719,-0.3201135866959923,-0.0644917723802536,-0.09798186434046821
1730103298.6985273,-1.183195323284047,-1.7951070611686484,9.476283840057963,-0.09328885899404302,0.06072860954491945,0.005700824818999561,0.9937689496893699,-0.30445032824357177,-0.06721629754610826,-0.10306088499633222
1730103298.7066543,-1.136563929810272,-1.8855861373359548,9.41785185188634,-0.09846204239744004,0.05857180590731111,0.005805423299787709,0.9933986444625296,-0.27419356016047985,-0.07055377289146919,-0.11036519800447094
1730103298.7146513,-1.1298934885013976,-1.9717164651164165,9.388778163133757,-0.10313045834663688,0.058270924891967314,0.006052229426083174,0.9929410749850272,-0.24412017758968782,-0.07383332828307185,-0.11559916593227823
1730103298.7226334,-1.094527181968026,-2.0379992919116465,9.380671336356817,-0.1065825168207729,0.056409752453597334,0.006056603806326548,0.99268394994913,-0.1992576741751046,-0.08474055280873612,-0.11959092681188667
1730103298.7306316,-1.02039554135855,-2.0715440636723788,9.315952198786746,-0.10902339537609554,0.05291455382768116,0.0058118576756663294,0.9926128004233286,-0.14254186782401246,-0.09852161856898921,-0.12198598333965173
1730103298.7386315,-1.0247582708600518,-2.0780239772659272,9.307527077328688,-0.1094461128426964,0.05317400215865394,0.005863357470648993,0.9925521119403387,-0.09446461198511014,-0.10295904747198278,-0.12470008744069686
1730103298.7466524,-1.0577822696449373,-2.172891588507994,9.084120813047603,-0.11692946277918383,0.05596624409263779,0.00659993783210247,0.991540075376153,-0.030711673441882147,-0.0864654520479875,-0.12888269027009613
1730103298.7545302,-1.0831033327342279,-2.1555919037883897,9.027888608434031,-0.11671768135968803,0.057652910837982345,0.006787026925464239,0.9914671255243106,0.02967597288008028,-0.06550135319557751,-0.13224363209065976
1730103298.7625968,-0.9788253077460055,-2.2287697308960808,9.273313199240105,-0.11750105163170327,0.050758842470385375,0.00601379230387024,0.9917564605681358,0.11103170718823309,-0.05973393486752402,-0.13085467669130169
1730103298.7705202,-0.8789089468546346,-2.2367634022583514,9.38824623131164,-0.11655395315823336,0.04508359864908449,0.005296266091798156,0.9921464582920818,0.19390035269008726,-0.09415989934081273,-0.10958818050150933
1730103298.7788503,-0.9647660114233275,-2.1252014043921204,9.289133094011595,-0.11207092558319838,0.050110084716916255,0.0056587782293458545,0.9924198029450741,0.2576693120194468,-0.12375496931548863,-0.08618603125108311
1730103298.786519,-0.9729452001157154,-2.146849667098163,9.01322938155344,-0.11648356245828076,0.05193182935127665,0.006099124371878971,0.9918152375614896,0.3299858925340251,-0.13597804050128776,-0.07044198145497925
1730103298.79483,-0.8464110421885699,-2.184498901821398,8.99421229568011,-0.11872220033407054,0.04525813092644462,0.0054171279759972595,0.9918807365088674,0.3904034433012533,-0.14331188321276722,-0.06099555157731694
1730103298.8025327,-0.6783137835162669,-2.2058913418252604,9.254304512417832,-0.11665499765616319,0.03533879934955038,0.004153453497042986,0.9925349009513069,0.45049261720346406,-0.17751049314199713,-0.03830009119223829
1730103298.8106444,-0.6483237974535101,-2.165096688640078,9.433823018729996,-0.11249392148047424,0.033222316597082115,0.00376331415187033,0.993089740545366,0.49463423271256907,-0.22016554229556073,-0.014466253486102339
1730103298.8186436,-0.7215488890678091,-2.031444301025844,9.519268047077842,-0.10485656899761144,0.03678450593087231,0.0038811632318282827,0.9937992436269202,0.5407009448452855,-0.2666173847993384,0.011327680797054082
1730103298.8266277,-0.5883130211848261,-1.8925949277834748,9.577957089233033,-0.09734244645929417,0.02994529947765078,0.00293019737062181,0.9947960298975275,0.5874970248907068,-0.2834205487035922,0.02339852087525168
1730103298.834642,-0.58259175191988,-1.756134026982585,9.486996087035912,-0.09134793602605731,0.03002448137422728,0.002755452835448096,0.9953624930554996,0.6232370940242762,-0.27988036507935943,0.028512574614860082
1730103298.8426292,-0.7477107872359124,-1.5358726305450197,9.643348651977407,-0.07882854647581038,0.038082761787796994,0.0030135931526347084,0.9961559525352621,0.6629858081472851,-0.23986983943469897,0.02519565593669465
1730103298.8506465,-0.7423950160427193,-1.3086659867742776,9.912176332299726,-0.06553949969247264,0.03697020570362384,0.002429905076253413,0.9971619093364991,0.6915176272971728,-0.20266713214257975,0.015117393562016789
1730103298.8585837,-0.6039331595279752,-1.2985164280020665,9.809153077211867,-0.06572714372742462,0.03040943629500342,0.0020039915922129324,0.9973721435749812,0.6835210051608456,-0.17140601647660553,0.003536465338203661
1730103298.8665304,-0.702815371791004,-1.035050014271943,9.852683997206027,-0.052276338758235,0.03535579813025279,0.0018519665927293428,0.9980048708119347,0.6651009499122642,-0.12923639369660928,-0.003412091596084215
1730103298.8745563,-0.6251963641878836,-0.249928751238947,9.266126344368537,-0.013474523944169838,0.033662899320702336,0.00045389006464473117,0.9993423039167368,0.6868270514956918,-0.08903546787744042,-0.003750015203498655
1730103298.8825283,-0.27384308828812076,0.07006988182499117,8.652505511210967,0.004048482909858811,0.015817908476001386,-6.404707019579576e-05,0.9998666908421073,0.7534996601899644,-0.04959007017330597,-0.002250009122099193
1730103298.8905218,-0.5603068075627162,-0.40280073936203653,8.96356802230275,-0.02244042718324349,0.031169762340268466,0.0006999794234855087,0.9992619192045153,0.7709416521490402,0.006855303181751142,-0.02050605823905094
1730103298.8985302,-1.0144614148598954,-0.3132670732558938,10.689437776272275,-0.014631361372720333,0.04726700768916839,0.0006924289746309747,0.9987748864436911,0.6817953729423704,0.13054313016327407,-0.07445438391688719
1730103298.9066532,-0.8440268721092965,-0.07447508526213001,11.522649588370786,-0.0032293856831388515,0.03655029946173926,0.00011811455336215916,0.9993265896223912,0.5367842422040316,0.2562643237890937,-0.11746563086013972
1730103298.9146585,-0.8047336501210466,-0.18929483143071552,11.878924576020518,-0.00796217933938295,0.03380885473052418,0.000269354702900237,0.999396564177615,0.42125632964307236,0.3593668939596174,-0.14625220945632544
1730103298.9226394,-0.7385409273773155,-0.1300968903135074,11.042113880133796,-0.005887219652296277,0.0333831806980814,0.00019664713697202619,0.9994252674518233,0.314478856697838,0.4063292839107606,-0.1707608876588914
1730103298.9306462,-0.7115145625299049,0.08570525936658306,10.310184103226762,0.004153667296669888,0.03444250584083924,-0.0001431488801701745,0.9993980389953697,0.24189857170145673,0.39662030241132573,-0.19866248648575396
1730103298.9386616,-0.9026366073909897,0.09475820566877796,9.797524246115744,0.004830349128188601,0.04591603393280224,-0.00022202724443621803,0.9989335995245552,0.17664020756906434,0.43208684947348186,-0.27159453389485966
1730103298.9466364,-1.4159444107236563,0.2122386111454074,11.239371484925305,0.009421217125674503,0.06260545183981453,-0.0005910052819606746,0.9979937117940976,0.10045015374243219,0.5440387608021883,-0.380910031805476
1730103298.954535,-1.0475671237291155,0.058150738708728805,10.086646669031357,0.002878511603936108,0.05171875558886184,-0.00014907316435142844,0.998657530021417,0.04707370034013633,0.6146154280911084,-0.46735814356348526
1730103298.9625297,-1.1906988240421568,0.12012402232679978,8.900369716506704,0.006732286929419648,0.066439115841528,-0.00044828791866373575,0.9977676679652623,0.04910303321572135,0.6735633408614796,-0.5251866714787593
1730103298.9705176,-1.4755360021889659,0.35913919244881426,8.64398070075363,0.02068349401383814,0.08434562331283448,-0.0017511810846915726,0.9962203281745247,0.07288220619856003,0.703823807786158,-0.5594580981664616
1730103298.9787288,-0.9267412900340827,0.7757267039458511,8.601238248333038,0.044890276165027346,0.05337078593432193,-0.002401683769621068,0.9975623560608384,0.1352526869334728,0.5614949347697792,-0.5595878312289055
1730103298.986752,-0.4298703465302152,0.0711110089397762,7.488385803003729,0.004745896728353663,0.028665464492089465,-0.00013610079789225075,0.9995777854105549,0.1973649989392183,0.3368969608618675,-0.5532803201444414
1730103298.9945679,-0.6668518514728167,0.8892563123951158,8.323275297720206,0.053149153771996,0.039682096590546,-0.0021137293890102545,0.9977955856845476,0.22569289485196295,0.21235473799220925,-0.535022351404054
1730103299.0032241,-1.0400812146434557,0.34273591512261636,7.806194448651654,0.02188702565701499,0.06610172219660984,-0.0014502917455841773,0.9975717603683376,0.22949324049428674,0.1240073223036293,-0.4410580081747253
1730103299.0106773,-1.0324995320087296,0.9183953833020855,7.993221624024978,0.05704531739818237,0.06366745958616052,-0.0036452985707896863,0.996332774805243,0.2509295006454724,0.02374727606819582,-0.36978025008595694
1730103299.0186677,-0.5766435094884409,0.6992383127449232,8.403276615772409,0.0414724014054185,0.03410328296935275,-0.0014163896584801433,0.9985564580196332,0.2833729995634373,-0.06833550628271665,-0.3210539343722275
1730103299.0266788,-0.32898727390595517,0.4528223907231258,9.391272705303289,0.024083862414434814,0.017482159439314367,-0.00042122453185523476,0.9995569839896247,0.26239854307532323,-0.13720725766004913,-0.23903257732269795
1730103299.034631,-0.3096804222049012,0.24727257750028173,10.320216272107755,0.011976030972901322,0.014993142823010867,-0.0001795914133141852,0.9998158570943697,0.21575866426549226,-0.20449740223563256,-0.15363610786870752
1730103299.04266,-0.019650658108096953,0.20534554601188776,10.634570943684574,0.009653269134468059,0.0009236881918344557,-8.917029995741989e-06,0.9999529794523482,0.12349553769882692,-0.33511778201093334,-0.012577623227824589
1730103299.0506392,0.08804781436365745,0.28912550265596076,10.743935671679493,0.013451518582544859,-0.0040956021582650975,5.509751575779442e-05,0.9999011349403742,0.0357852170877133,-0.44839659491600037,0.12399165505507301
1730103299.058532,0.03367507533694447,0.4289366187322483,10.313715344658089,0.020780974985602777,-0.0016307697565540857,3.3896350461160996e-05,0.9997827216549035,-0.07728896400656336,-0.5342428652404458,0.3225722988654082
1730103299.066553,-0.1375728442021302,0.5496939939444271,9.661497555183525,0.028412452796656995,0.007104740136731032,-0.00020194972713250548,0.9995710151910043,-0.17110056641231328,-0.5593578436244672,0.5064255744938382
1730103299.0745633,-0.19507118454862185,0.6458510155072812,9.392750006498787,0.03431760824413461,0.010351905347419376,-0.0003554810999266637,0.9993573001951143,-0.22398200736406698,-0.559953368565171,0.6320623820835292
1730103299.0825295,0.18247191695637377,0.6592524977321031,9.594941289299662,0.03429193312552293,-0.009479531488326575,0.00032527741004517724,0.9993668475589347,-0.24166309990687215,-0.5505198121159665,0.7529933032137812
1730103299.090526,0.27276770339648054,0.6941084456607463,9.87379452821847,0.03508062977430028,-0.013766303014265272,0.00048327392135612236,0.9992895500115444,-0.24248088401892853,-0.5537991695371465,0.8451335987191859
1730103299.0985315,-0.19523020681953357,0.7928335683730103,10.293934166882254,0.03842262138965345,0.009446528858518285,-0.00036324487336687105,0.9992168600014887,-0.23828896381008002,-0.561726444850323,0.8978636356536565
1730103299.106529,-0.26270558502922015,0.6782496014730249,10.065022836555132,0.03363322411411071,0.013010215392565066,-0.00043786033450462575,0.9993494628054075,-0.24811882346716982,-0.5503065877026716,0.8754390200086609
1730103299.1146572,-0.3168377614179227,0.8046266566357683,9.944196029813938,0.04035290033498443,0.015859959070918,-0.0006405978908633864,0.9990594050241286,-0.2552938094458098,-0.5247243107097513,0.8351657767495556
1730103299.1226578,-1.3749930584620818,0.9359983682490391,10.209761220183285,0.04558912615111733,0.06653932246581129,-0.003043399812031706,0.996737120739542,-0.26300432152469005,-0.4174258912382004,0.7633245439103449
1730103299.1306322,-1.2370379407901397,0.7308690783224703,10.575959357842393,0.03443112275276796,0.05801447995217505,-0.0020020687875761203,0.9977198051669779,-0.2812527107388032,-0.32537698556023775,0.7083004824858815
1730103299.1386344,-0.7173230672084588,0.6425074284387947,10.338864563680044,0.031008266949791783,0.03454510902322283,-0.0010723405838396966,0.9989214047706738,-0.33179091998324006,-0.3365552917415371,0.7204091921461788
1730103299.1466634,-0.6805879138114035,0.8748792763992143,10.427408727221698,0.04181775498806378,0.03244042262394529,-0.0013584908727761894,0.9985975409794913,-0.401277331184409,-0.37306057975265894,0.7472561607696107
1730103299.1546419,-0.5134582011677015,0.637694464032888,10.149177715581065,0.031359294357354746,0.025209263807857533,-0.0007911856616339642,0.9991899027216616,-0.4685105815928323,-0.38815271157593956,0.7586817512675874
1730103299.1625326,-0.7610578748021833,0.7230721544939515,9.666683329788093,0.037292244021613706,0.03913766602444275,-0.001461670360985647,0.9985366268463803,-0.5258781342963675,-0.28354874425954546,0.7578746844600568
1730103299.1705189,-1.0128077705356069,0.6237034843467616,9.068813524484185,0.03427151782737938,0.05541860650354102,-0.001903328049551971,0.9978730472667098,-0.5453995137673177,-0.13905387206899897,0.736531631363899
1730103299.1791413,-1.0216421293623799,0.6196277607740726,9.030675243596761,0.03419021309675831,0.05613210245258057,-0.0019233307919449849,0.9978359169729841,-0.5256112769016973,0.08003266036002077,0.6713659219463743
1730103299.1866992,-1.008746812041256,0.43019517697225595,9.273788079507666,0.02314016083938996,0.05407532390098353,-0.0012534828370038738,0.9982679104739911,-0.4881969310946032,0.3059877734620036,0.6114076832842201
1730103299.1950216,-1.3318882910821754,0.40033268479663486,9.48310212504835,0.02104029731476096,0.069634724499513,-0.001469028873783749,0.9973495640882145,-0.4461665807830933,0.48412984746939647,0.5567023773825982
1730103299.203007,-1.5533064975985238,0.14323444364165278,9.640533434452838,0.007403507709371459,0.07977901360271915,-0.0005925496459218056,0.9967849045541829,-0.3749738439582879,0.5956976825499145,0.4485320529628454
1730103299.2106435,-1.2530463411860673,-0.11852415559235208,9.846562017458812,-0.006005695033049591,0.06324053239239592,0.0003805720416950617,0.9979801710729614,-0.3173590497122336,0.6213464476364083,0.35510862419303757
1730103299.218669,-1.091086179955781,-0.27414279413666126,9.761883622828803,-0.014014748311838014,0.055598114228210614,0.0007804778069607681,0.9983545599527331,-0.2747020619968224,0.5656454664241453,0.29905456693115295
1730103299.2266543,-1.320239769496906,-0.4302420607593405,9.444841361441421,-0.022701909320087785,0.06929755695828728,0.0015773883153108344,0.9973364446158268,-0.2503849395519618,0.4670942982930966,0.2390293487633762
1730103299.2346463,-1.6614784845008779,-0.5617300069634168,9.449743439911726,-0.02956618671702538,0.08672414154090068,0.0025749421386922337,0.99579020559051,-0.2328148356548112,0.36752304157557447,0.1689590129457476
1730103299.2426357,-0.9339195870384174,-0.7955276220979719,9.13856542918141,-0.04334467178302252,0.050660862665562,0.002200780801619324,0.9977724555157184,-0.2090763814111979,0.23966987771113613,0.05412381094516305
1730103299.2506392,-0.6410363481703161,-0.8646984018720644,8.922649362489315,-0.04825363228639986,0.03564439892718145,0.0017230776995503878,0.9981974227574073,-0.1816369169597069,0.14380192662668168,-0.010520409640567358
1730103299.258529,-1.3116566917146897,-1.0067573394630824,9.071066535218199,-0.05509213990621125,0.0711996129490414,0.003938562275142188,0.9959317039655209,-0.13920614453962837,0.19568350177175112,-0.055692292913936084
1730103299.2665284,-1.9529702235249076,-1.026870416861443,9.404325408191466,-0.05406051505365099,0.10146433235688782,0.00552191328860481,0.9933538938591513,-0.1303495934846005,0.3992169217509156,-0.1717646457235219
1730103299.2745593,-2.1371242434899447,-1.1842663040719439,9.813294536907067,-0.059659623177557984,0.10607362702459822,0.006375835197042197,0.9925464541963255,-0.14334033549445113,0.572419781113858,-0.2533273791302103
1730103299.2825263,-2.5291747707033414,-1.27511253390801,9.779033260230179,-0.06425413031742842,0.12493311143720288,0.008108151161783176,0.9900491817523552,-0.1536889210691337,0.7538170879177133,-0.3095017502190779
1730103299.290524,-2.362897468623177,-1.4208393550616027,10.075947634360762,-0.06951360574982535,0.1135575116435244,0.007964961941303587,0.9910646343938736,-0.14585030038569619,0.8341342378820703,-0.3610853554538037
1730103299.2985284,-1.4756781613496874,-1.3801856589353991,10.006535807178956,-0.06829080563477896,0.07229745559542171,0.004961911885061835,0.995030061460771,-0.10879468330451929,0.7171567840134162,-0.4001236297624179
1730103299.3065438,-1.5612900254719217,-1.604790413915927,9.696977545098388,-0.0816474781924792,0.07841981535611475,0.006444343292671423,0.9935504477900695,-0.08570993293288909,0.5107494920243737,-0.39034276955354785
1730103299.3146522,-1.847288906640575,-1.6478553433202594,9.386504681355907,-0.08636943613088803,0.09522528863578096,0.008293664583454811,0.9916671215858888,-0.07994719387768956,0.3409305901930488,-0.39000822422723225
1730103299.3226755,-1.8433932536523137,-1.2360342374862963,9.199023862280342,-0.06639975857222483,0.09765206452770529,0.006529902818249964,0.992981624565234,-0.07606386038310782,0.18838213178027205,-0.4153489007191648
1730103299.3308225,-2.181750758099591,-1.2118417485464654,9.411189115952189,-0.06356199103251269,0.11252818353989257,0.007213198312232924,0.9915872382071602,-0.07288248016343471,0.08450804495020711,-0.4292762364299383
1730103299.3386562,-2.0050448774671765,-1.45709713530952,9.540643049649438,-0.07529153935219397,0.10194558781646294,0.007738270334833205,0.991906447402656,-0.061182780618004126,-0.053163548026611454,-0.4495519595773392
1730103299.3466315,-1.9301459706697588,-1.245120118343915,9.628610477006458,-0.06393440967738849,0.09776295226487391,0.006293628553362643,0.993134022508187,-0.04309501929273295,-0.1966401826017731,-0.4681027443877102
1730103299.3545356,-1.5765940325971677,-1.1856898151469741,9.582031564524186,-0.06130913411611036,0.0806898852853212,0.004972688623156016,0.9948394869799005,-0.037350643235114625,-0.3035849763585097,-0.467313893552996
1730103299.3627443,-1.37284257556416,-1.1138791881604502,9.297904639398105,-0.05941591010043399,0.07258938182788112,0.004332107252206173,0.9955811188042583,-0.03475539772346769,-0.3771170339647163,-0.4234201967830402
1730103299.3705268,-1.3238542721451367,-1.080130198443145,9.049377510201362,-0.05920325675934019,0.07193654082316371,0.0042775214719621936,0.9956414069802149,-0.0246844491872389,-0.41101970705335145,-0.3655829141728764
1730103299.378542,-0.7471467905820038,-1.0838228212143244,9.505515412370816,-0.05668977416409797,0.03889599299789655,0.002210240149783738,0.9976314379932157,0.0009398627617518297,-0.43093562084507053,-0.29384550925958136
1730103299.3867157,-0.5816451068199054,-1.154991402689532,9.98605717710999,-0.05751758731958474,0.028845885895326315,0.0016625934996225976,0.9979262887601983,0.016314449931146266,-0.44756775979618435,-0.23334977379166102
1730103299.3951786,-0.4394878868458495,-1.133767367248485,10.306464538199586,-0.05474228851464049,0.0211471028622428,0.0011596401622970631,0.9982758822707316,0.017025401003542297,-0.4545672127366184,-0.16725402820856664
1730103299.4030364,-0.4573836464141503,-0.9163287040404973,9.898003758320144,-0.046127927690370156,0.02296374071815022,0.0010606794198098073,0.9986709948017866,-0.006812361856355888,-0.42939427025999866,-0.06502014182379136
1730103299.4106772,-0.503794706891459,-0.8397350434692201,9.588523265734274,-0.0436477033313262,0.026118773932834686,0.001141502909376838,0.9987048536045341,-0.02877744067861137,-0.38917479114776693,0.006111061420700538
1730103299.4186845,-0.6341131742325316,-0.8524367878002821,9.496687675260878,-0.0447201860945233,0.03316408447123828,0.001485409657762157,0.9984478163704924,-0.04451062834073684,-0.29522993360065475,0.03899891195376894
1730103299.4266691,-0.7388798930649096,-0.8437772631098568,9.77485919207059,-0.04300894269666175,0.03754027145976561,0.001617206924839104,0.9983678397808118,-0.04543673970877149,-0.1681984688696902,0.05149489122875545
1730103299.4346304,-0.7734883447744926,-0.7844725907760702,9.887653144636884,-0.0395448786353777,0.03887227632878451,0.0015395700739613523,0.9984602037290817,-0.044289646283744155,-0.0630326658516933,0.05388419805620298
1730103299.4428122,-0.874938011747508,-0.7735500644754078,9.813592777895412,-0.03928053999150268,0.044274774578431604,0.0017421940208163756,0.9982453347118627,-0.04275001010580369,0.040933061859459864,0.03914155981711429
1730103299.450633,-0.9812976434742862,-0.7028319442028228,9.827814498524354,-0.035643212686087146,0.04958167758562635,0.0017705571531379393,0.998132297726397,-0.03544087747710894,0.11736027051439882,0.023484935890268576
1730103299.4585323,-1.0499018258306656,-0.8150664992853657,9.768831044085315,-0.04154770680426529,0.05327641840970453,0.0022185877459360227,0.9977126285505032,-0.016156245748720984,0.15214865410934936,-0.014855962645257004
1730103299.466529,-1.0913037554105087,-0.8017226363876255,9.681247375230486,-0.041232746632052876,0.055858092345796403,0.0023087598771398994,0.9975842840344344,0.009036615255096801,0.14875735076298388,-0.05914500483967394
1730103299.4745457,-1.0991460813713052,-0.7324247561489816,9.351927462003525,-0.039000205465023426,0.058242866513764355,0.002277090521729849,0.9975377523345679,0.0811948000932997,0.08201767941293579,-0.13382140710153367
1730103299.4825287,-0.9218921507759081,-0.7715306239530608,9.214429975737271,-0.04170217032791468,0.04962198858151854,0.0020737099289197787,0.9978949278186997,0.15428801529856365,-0.016771351878853424,-0.1824584590118078
1730103299.4905214,-0.9053223546745293,-0.8107958755925396,9.32131283529588,-0.04331624846397782,0.048165093292811746,0.002090726865180633,0.9978975174176339,0.20197515497488028,-0.0994577240343387,-0.19503877776095302
1730103299.498529,-1.0047954928828426,-0.7481637668106019,9.618398372564245,-0.03875009335470568,0.05182626926760666,0.00201249497031816,0.9979020081865743,0.22207363755142967,-0.16396869947880097,-0.18385660630611078
1730103299.5066533,-1.2033430720968932,-0.7551166524203455,9.890262979837374,-0.03801943675558552,0.06028278854599548,0.002297766921920643,0.9974543739445325,0.22476754574519459,-0.184796302164073,-0.17161333263419903
1730103299.5146549,-1.1711580747034482,-0.8047782153291604,10.24659381817586,-0.03911447184896294,0.05665457498990102,0.0022212896281272347,0.9976248709294884,0.20765352795712416,-0.15898075824365338,-0.15958477775496963
1730103299.5226617,-1.114497530368944,-0.69499319628734,10.250899675915283,-0.03378950752662803,0.05396801800949499,0.0018272636867508432,0.9979691294427167,0.17482354402679423,-0.12944365986315456,-0.15194195476596994
1730103299.5306304,-1.1891979591393351,-0.6078137900868571,10.155081502326514,-0.02983386000201535,0.058124422281772746,0.001737791360865652,0.9978619505788244,0.1393750213945011,-0.10789019028169698,-0.14863333115695623
1730103299.5386574,-1.055171352387898,-0.6472040699505518,10.135418984403719,-0.03183473030847413,0.05171274139151183,0.0016493072721659064,0.998153105545178,0.08660484326693488,-0.10985726068399354,-0.16069592901979507
1730103299.5466309,-0.9814591529854731,-0.6916677923121279,10.046288760026997,-0.03432087268745573,0.048530286750611204,0.0016685543218544507,0.9982304868577947,0.03919220411629998,-0.1233825147077704,-0.18283263988866943
1730103299.5545897,-0.8802498338322995,-0.6438863540982143,9.70670352701229,-0.03307746801124256,0.04508002178580547,0.0014934710137955204,0.9984344957432548,-0.015648163184726917,-0.1421399186585873,-0.21314226886847532
1730103299.5625367,-0.7146582096255515,-0.5594325924882254,9.34421681713511,-0.029871988987550304,0.03807217628964682,0.0011386263839099546,0.9988277515149725,-0.057917564917507755,-0.15850264176662182,-0.21217199349056742
1730103299.5705261,-0.632302066888612,-0.5805863853269196,9.211718950144347,-0.03144750396598857,0.034175531639958,0.0010758967240399233,0.9989203822015419,-0.08157644571132813,-0.16491475513974627,-0.20137326678873396
1730103299.5788605,-0.7203155565394173,-0.5456340479930267,9.122643423309265,-0.029841432478567655,0.039300135210890895,0.0011742036128647426,0.998781061857857,-0.0761900313603669,-0.1508830405822156,-0.18808298978424137
1730103299.5868864,-0.8571601286013846,-0.7664770132684723,9.304308710235558,-0.04104021914597956,0.04572406032461276,0.0018800807827812059,0.9981089499729633,-0.051247989615226544,-0.14884936276962768,-0.17925744345862174
