Time,Accel_x,Accel_y,Accel_z,Orientation_x,Orientation_y,Orientation_z,Orientation_w,Gyro_x,Gyro_y,Gyro_z
1729841850.1239998,0.7953480810658554,0.7702146251132873,10.222529312467291,0.037563204645710925,-0.038677196403876346,0.0014549572470167916,0.9985444222639721,0.31115204163354077,-0.32618850596524024,0.33588517423126063
1729841850.1320016,1.1449516916570914,1.5071977997261754,9.761211942949124,0.07639108671838751,-0.057502505277546474,0.004412940199728435,0.9954086546316459,0.3378111967991457,-0.26424920347453124,0.34796848568169525
1729841850.1399982,1.5304482598673017,1.6556191607927364,11.272650741208926,0.07268045031110246,-0.06653628663386109,0.004859594662391078,0.9951215297858194,0.41212622831880696,-0.20622680896846626,0.2824254720419486
1729841850.148019,1.4272762288696,2.1210404784092356,12.03658018105348,0.08694915118762025,-0.05787271862957536,0.005059723863356956,0.9945174672878305,0.47161439938177485,-0.11735073445914927,0.22224085084646109
1729841850.1559913,0.7000243689135568,1.9750830541353848,12.519358701893808,0.07812561005994818,-0.027500214864343526,0.0021558833582848162,0.9965618291918076,0.500921951097625,0.04197173555048679,0.13632434093811088
1729841850.1640003,0.054898868174305976,1.7424199789656059,12.327312440374564,0.07015021622162416,-0.002199353411957689,0.00015466652466415565,0.9975340024715422,0.5074385405291224,0.17162042247323095,0.04688801952297993
1729841850.1720014,0.3302991670959898,1.8309895520766293,12.01887260948841,0.07551102660304283,-0.01354158860912902,0.0010255621171177368,0.9970524853093942,0.4747391489022861,0.2779308687448335,-0.06126210119323868
1729841850.1800067,0.3906733137341564,1.6667377852010556,10.867508920917656,0.07600565729953959,-0.017706844581456133,0.0013499387012967173,0.9969492391184898,0.47044435613881747,0.34725110730680153,-0.13040907423759016
1729841850.188069,0.44317837300611884,1.7211762111596955,9.96935284400567,0.08535536963039272,-0.021807348271211304,0.001868643034393754,0.9961101387948258,0.48532077300067955,0.397782741734685,-0.17572846861735936
1729841850.195979,0.6334169786376557,1.7957377957876144,9.778097278913167,0.0906400660093635,-0.031677386766320384,0.0028845798558029666,0.995375607899114,0.5027604243470374,0.44981191552597866,-0.21100821641299944
1729841850.2040777,0.6237799161864996,1.7159762602362405,9.46390694156665,0.08951558924042037,-0.03224588163800391,0.002899676331045171,0.995459067102964,0.5004535133109912,0.4925230514602297,-0.23004761478307334
1729841850.2119777,0.4032377897997904,1.3664499297257287,8.200875034080616,0.08243391208628259,-0.02414684188526504,0.0019979069880750834,0.9963019565035421,0.4862986648455025,0.5483737273845846,-0.23891711343634547
1729841850.2199824,-0.356128900827157,0.6850764043686403,7.085841001893682,0.04815713756038823,0.02496053387337987,-0.001203800915601182,0.9985271216717657,0.5288885631416531,0.6534000632648188,-0.260415034963866
1729841850.2279987,-0.6647449332697317,0.3437687759707936,6.442199120179176,0.026616043733141474,0.05129776031220613,-0.0013676304799190443,0.9983277295506808,0.6004170287572428,0.7385517479889849,-0.2860844897242392
1729841850.2360392,-0.7783279230966045,-0.4935638796811957,7.771220060486412,-0.03166705824085823,0.04976581851490703,0.001578687911565396,0.998257516112145,0.7731695768725163,0.7291947700958762,-0.3380955078661979
1729841850.243971,-0.8088887509282752,-1.1309964467052018,9.264627047278175,-0.060641570854630136,0.043131849593346996,0.0026228646354028566,0.9972238284437672,0.9572765273580044,0.6661124250626367,-0.3995261131151774
1729841850.2519982,-1.17677869001009,-1.1751552923395274,9.932743241306358,-0.05874294489354874,0.05842298246879341,0.0034437979603538873,0.9965561508516682,1.2086441079932295,0.5588755380243818,-0.5125829972662688
1729841850.2601252,-2.3109005868087884,-1.6567883353158257,9.389818663289674,-0.08657159195917458,0.11815760438531485,0.010341192034185145,0.9891598453934984,1.362870176866061,0.5485960436071069,-0.6340540755011395
1729841850.2679713,-2.848679305942695,-1.798764179168011,9.652798104712085,-0.09103253669842909,0.14011945796541078,0.012938429806832831,0.9858560806709377,1.3830385077412144,0.5543476686776789,-0.7001256814586694
1729841850.275971,-2.725067347969914,-1.8796401224910408,9.161517699497173,-0.09995070040402503,0.14056760747926955,0.014265095426565212,0.9849096975199148,1.212944159960557,0.38922537938105756,-0.6920913581494398
1729841850.2839856,-2.5886509300221827,-1.669591909187984,8.796359927559632,-0.0926845314568425,0.13964501098509902,0.013129809806628543,0.9857669382922308,1.072149755699118,0.21267641461699496,-0.6527898691854775
1729841850.291994,-2.8831695802301063,-0.6445402578174779,9.674049044914684,-0.03289628077694585,0.14393986774836798,0.0047876164113983,0.9890279206942157,1.038330230456236,0.08418546250106976,-0.5653554665877953
1729841850.2999866,-3.1321856604915794,-0.01586231753228364,11.007987315132405,-0.0007132922409184707,0.13816214463623275,9.950429549726124e-05,0.9904093613766941,1.020592655679279,-0.06016813847948635,-0.5235370765657369
1729841850.3079748,-3.2717790818418226,0.19518685142398917,11.799252310954442,0.008191654089903565,0.13481159214880203,-0.0011145427505135158,0.9908367621460327,0.9771719760805285,-0.21957329957782742,-0.5035543232900461
1729841850.3159893,-3.36583020179064,0.011767237807518517,11.777214463965244,0.0004945430902260407,0.13873657071500176,-6.92812175502086e-05,0.9903291950525775,0.882157778364429,-0.4616537773797709,-0.4604892968379034
1729841850.3239727,-3.3434916391407903,0.13084056851458922,11.463040607090084,0.005647029520663225,0.14141455928160887,-0.0008066923321465784,0.9899340294829057,0.780026113219794,-0.6439370994081338,-0.4120887077091301
1729841850.3319724,-3.213730300867286,0.13404981962437854,10.980049488765768,0.006039572039338647,0.14187459470906605,-0.0008656343152623095,0.9898658361732423,0.570606972744226,-0.7788484963128735,-0.3447362487002833
1729841850.339969,-2.3249573956082625,0.06319163982150212,10.785065203513367,0.0029123834100940453,0.10595987065219266,-0.0003103442197998963,0.9943660933080475,0.33001917186413665,-0.9359938554574209,-0.25920162677999986
1729841850.3480005,-1.6961650062126137,0.14086565527962,11.0691034104381,0.0063435041481848965,0.07594492930404818,-0.000483162145816943,0.9970917180593096,0.17715269010684243,-1.0592279951235675,-0.1674402977889368
1729841850.3559892,-1.0021366929365525,0.7809926561072251,10.531082063352702,0.036961088877057555,0.047257938724560876,-0.0017498596491324955,0.9981971263872363,0.11310265504749796,-1.155730052180743,-0.0349079092082092
1729841850.36398,-0.7475677371974784,1.0604422440549601,11.049352298314355,0.04779373914195608,0.03357828196048656,-0.0016075783944519018,0.9982913768890916,0.06488176259826454,-1.2195909472755169,0.07611258848841769
1729841850.3719974,0.19526018409752863,0.995156175290398,10.870221359457364,0.045629430269638234,-0.008933635316660036,0.00040807806516001457,0.9989184044383155,-0.05812827645438449,-1.1936282850516142,0.2202004782924836
1729841850.3801248,0.7386908614350797,1.1398592215316607,10.736645998047464,0.05282783750978404,-0.03410060235205055,0.0018050357834270827,0.9980195941709199,-0.24048526555879193,-0.992875510981289,0.4071160666799626
1729841850.3879807,0.6409755739899541,1.102421983114309,10.732636393994495,0.05113314923971922,-0.029626689193048724,0.0015175599054851254,0.9982511494349607,-0.3677784416028417,-0.8004822261520106,0.5652399463503495
1729841850.395999,0.7556866017181911,0.9997538844486635,10.695514707490446,0.046554911604405474,-0.03507075367628007,0.001635498545934242,0.9982985563380276,-0.4696957509169935,-0.6297065472643795,0.6166938878834543
1729841850.4039698,0.942307940034821,1.0578631082570888,10.340208244660284,0.05089931714763922,-0.04513096995336666,0.0023024752515238243,0.9976808876954035,-0.5517049495171241,-0.44465726800816663,0.605422936718576
1729841850.4121976,0.7909185604076113,1.086264298059722,10.423665952655545,0.051856668003465556,-0.03760322294270925,0.0019539944397886145,0.9979444200523537,-0.6043159891688987,-0.11141748837125848,0.596531915712339
1729841850.4200737,1.3905726914203482,1.3934822531522393,9.987957060606997,0.06908616811391467,-0.06829473611383127,0.004740697316202181,0.9952589895014434,-0.6180036303785582,0.1132164029756843,0.6546251222664394
1729841850.4279807,1.969195201766271,1.2502862390983749,9.499800828161073,0.06503390276189108,-0.10095695213213805,0.006613633466153102,0.9927409254987535,-0.6368584666409047,0.20968463225226713,0.746949204496274
1729841850.4359741,1.7331411835597625,1.1476092190449625,10.090367501291174,0.05638277082205151,-0.08428077725372833,0.004776659419694451,0.9948341154507738,-0.6920174447289018,0.23861864563879864,0.8508723208408463
1729841850.4439707,1.802437938895623,1.2095438126769775,10.40328781644853,0.057622194731618066,-0.08496837757205766,0.00492213255065084,0.9947038906620591,-0.7515056153923461,0.2734323461906608,0.8885361670827918
1729841850.4519913,1.1532888131420613,0.969216596444077,10.244838445484353,0.04706847923551108,-0.05571230398220537,0.0026293048943974947,0.9973333365546461,-0.8289161438136917,0.3662621869088615,0.7936440178644384
1729841850.4599674,0.49109976859812743,0.9375477447316806,9.717615423247643,0.04805643121705122,-0.025098866246328656,0.001207939421100407,0.9985285009523688,-0.8825991919113536,0.4862392906205487,0.570263914301772
1729841850.4679644,-0.1635903365950298,0.819426484973774,9.934230899456397,0.04113636539637032,0.00819802663923705,-0.00033753409945660366,0.9991198516053669,-0.9041667692333999,0.5803614360435867,0.4000521969398995
1729841850.4759667,-0.3294340823281116,0.23571573351356123,10.095085386597667,0.011670776630619837,0.016304494467469892,-0.00019032437964530062,0.999798939892231,-0.8860319411398994,0.5763867345698009,0.2655727218516616
1729841850.4839687,-0.2680499782054607,-0.007011062821550767,10.343390464136334,-0.00033888548426719105,0.012954283407562732,4.390387256564523e-06,0.9999160323140887,-0.8691913834233306,0.5224934162486237,0.13763343997643335
1729841850.4927335,0.07452003627008295,-0.1548019221167586,10.186873378823597,-0.007597396986074752,-0.0036570489010062743,-2.778504000774971e-05,0.9999644517583429,-0.8739862009445605,0.4543994600931066,-0.07833077924678793
1729841850.5000012,0.2269107680999404,-0.3308647982895864,9.476695620311736,-0.0174474880368302,-0.011960361103078583,-0.00020872496560133275,0.9997762206400878,-0.8798429218875327,0.394387033634005,-0.28921611251996876
1729841850.5080106,0.13470993986387048,-0.534185951727658,9.043166940058136,-0.029495928112189804,-0.0074313496123977725,-0.00021929603284961404,0.9995372515204167,-0.8773972935928476,0.35369698708246167,-0.4161730025453393
1729841850.5159993,-0.3017674613746465,-0.24437595824362607,8.845298975070037,-0.013807850662735545,0.01704250722268258,0.00023537702837338393,0.9997593914564118,-0.8793354371077328,0.3658923044372704,-0.4859617856386311
1729841850.5240028,-0.6393106745786941,0.11889138916515249,8.726817616243194,0.006806632642751192,0.03655139510519503,-0.00024896406212503185,0.9993085625995738,-0.897100235613683,0.40598762958273205,-0.5291121256789924
1729841850.5319967,-0.8404000815050289,0.38928481396784154,9.004563982831854,0.021576566004657034,0.04645968353773143,-0.0010037587565880266,0.9986866085381235,-0.9665043431990137,0.48112763204545284,-0.5303123061384112
1729841850.5400026,-1.0470055652604393,0.7478454049822675,9.643108950001846,0.03863055465420403,0.053848838325215254,-0.002084798305580704,0.9977993969100996,-1.063486515740276,0.5721861601609848,-0.4901661685137075
1729841850.5479658,-1.1640256706992322,0.8444687774131886,9.943157132696419,0.04227624427426097,0.057976970926870756,-0.002457390259842322,0.9974193457344401,-1.140406181969363,0.666836142807735,-0.4575646847096446
1729841850.5560021,-1.3094156660914142,0.9888734808033818,10.150001100906914,0.04843772500922021,0.06373133523577736,-0.0030969542175273697,0.9967860916864614,-1.1908148823214353,0.832177098068603,-0.412462390739485
1729841850.564278,-1.4636873098110985,1.072164420513279,10.252320246725791,0.05194122081848634,0.07037056742779078,-0.0036692195150115473,0.9961609456548307,-1.198498529275191,0.9709708469410928,-0.35645409017797103
1729841850.572015,-1.6125140350565808,1.0788039342903892,10.780102217615552,0.04970861123914689,0.07371822573073081,-0.003679026421067325,0.9960327012344431,-1.1452148690886084,1.0572269266948209,-0.22962298638087777
1729841850.5800166,-1.6941486248913704,0.960443937722671,10.94066945190722,0.0436337797098837,0.07637667392682548,-0.0033455898158508395,0.9961182178722006,-1.067270146338759,1.0383160243443605,-0.016452124311847657
1729841850.5880136,-1.7428899586262285,0.9052296707390713,10.808842374269332,0.04162702371415748,0.07950749201804311,-0.0033230882262446303,0.9959591892714994,-0.9945362189396658,0.9805692662347228,0.1748782120874131
1729841850.595999,-1.8391724053515184,0.8974796481465678,10.485058718018632,0.04251487142693545,0.08632457107534093,-0.003687213700360109,0.9953526805064311,-0.8964075346330698,0.8599318189536098,0.38417960757154057
1729841850.6042488,-1.8957447725566143,0.5997793513879406,10.477536253760398,0.028468360121158547,0.08920033889067369,-0.0025506010659778243,0.9956035086559324,-0.8200770315291688,0.7360408531480362,0.5433899597175176
1729841850.6120026,-2.016358292977328,0.41804671117456127,9.992267081846082,0.020797225940956576,0.09928855840355338,-0.0020756386265169784,0.9948391574961236,-0.7432033551800998,0.5284652844270762,0.683187937397155
1729841850.620008,-1.8428418947317093,0.4378151763629399,8.955072341392805,0.024292731614349188,0.10115570028863582,-0.0024707622843309074,0.9945709038693838,-0.6442935817493667,0.32942418243864463,0.7951622680614316
1729841850.628092,-1.9003406678448849,0.489898843366592,8.63586142729662,0.028157792590639573,0.10787770640692543,-0.0030566697662509482,0.9937606331238644,-0.5474869922822679,0.1844581175578638,0.867455147197542
1729841850.6360123,-1.767724655833884,0.43807024596136146,8.184563998711957,0.02657645392444795,0.10597272139669206,-0.0028333515411002983,0.9940097819114384,-0.4178871082763874,0.012340466336988959,0.8529370263203719
1729841850.6441455,-1.666846653851893,0.5063324564147075,8.138840497615845,0.03089672854107913,0.10059516721577848,-0.0031254306039949,0.9944426761668206,-0.32097112510706766,-0.13222206035735298,0.8008057675249426
1729841850.652003,-1.4293883499771514,0.21353807126093385,8.05442439744646,0.013199344431327819,0.087668171855847,-0.0011617377792073847,0.9960616041768547,-0.23132047065728548,-0.2721708340567121,0.7001395322293739
1729841850.6599755,-1.0697592770761346,0.22460916966085717,8.01526690531358,0.013975178407191393,0.06625972913775667,-0.0009281224074427641,0.9977041050691708,-0.14347487307045362,-0.4029660050371511,0.5882312936151268
1729841850.667966,-0.9535806223980247,0.15631331673792057,8.32672122228971,0.009369149367387452,0.056968571703407134,-0.0005346389067754128,0.9983318661845092,-0.0771454325515695,-0.516775382726763,0.4700035430711348
1729841850.6761801,-0.914758631007174,0.1500517290564242,8.484145132055467,0.008828773986635714,0.053666203437753066,-0.00047450915521513954,0.99851978758537,-0.020320165781757767,-0.6855238638455696,0.24283864018817397
1729841850.684125,-0.9853181412507889,0.2830036912424483,8.411484202036014,0.01678563164801453,0.058230227924661,-0.0009792314029496965,0.9981615722075653,0.011220853911357078,-0.8293419586630568,0.038429288624472396
1729841850.6919723,-0.5212801962739108,0.575858816307969,7.374054534893483,0.038932262380917876,0.03514615096676121,-0.0013702064575968332,0.9986226261968975,0.03610512658769443,-0.9641614825602207,-0.17744244577393348
1729841850.6999803,-0.21939425301825272,0.7549237736715,7.439690291736871,0.05053597110753063,0.01464604641514668,-0.0007411790300700155,0.9986145700931214,0.10211849756894062,-1.0378164658536646,-0.3729474459395919
1729841850.708008,0.17673662201717338,0.8247737820251656,7.610992257317512,0.053942515992343114,-0.01152392666160722,0.0006225775665883717,0.9984773490069203,0.15279446175570116,-1.0692387539858699,-0.5085551186818542
1729841850.7160249,0.4766643902024915,1.0642054240002556,8.188543625874882,0.0645462956799723,-0.028766683621355944,0.0018614396956009023,0.9974982649958255,0.1751119290999789,-1.0395634598585215,-0.5720407397458064
1729841850.7239764,0.5405022705961042,1.0694795532282784,9.138652685534694,0.0581901235002557,-0.029284195502089588,0.0017076807039366807,0.9978744556543342,0.18296843870753915,-0.988980148649536,-0.5671374161765124
1729841850.7319767,0.8081695178752407,1.361384750979936,9.25621400756105,0.07288018782747163,-0.04295583346712764,0.003141907848735069,0.9964102583817807,0.14979592900195446,-0.950116360694904,-0.510132784229258
1729841850.7402813,0.9491374126294412,-0.10014838525188223,11.452323034663584,-0.004368393404684157,-0.04133040988356196,-0.00018070362373828107,0.9991359675760447,0.1507512361902432,-0.886357532083232,-0.5146678006539502
1729841850.7479756,1.4586889441596962,1.1109150008312925,12.618914326169243,0.04381555668137203,-0.057235982528794214,0.002514374957636955,0.9973955670721809,0.199427397448426,-0.8191553107368105,-0.5510183253642661
1729841850.7562208,2.1216347507731617,0.3294454067487755,13.327248806883183,0.012316998178788952,-0.07882365531609604,0.0009739758486318983,0.9968120054902626,0.27035072022661477,-0.6272883160484743,-0.5804910612967722
1729841850.763972,1.5619609908447563,-0.3077487264097192,14.261017348094756,-0.010771292174484498,-0.05450309743773345,-0.0005879770174015454,0.9984553299560336,0.31205333377060396,-0.34912882569551457,-0.558585527140307
1729841850.7719758,1.3530494228759944,-0.733400256353644,13.884666783368571,-0.02635057795539851,-0.04846814404269419,-0.0012791126378262076,0.998476264077085,0.3996513409319161,0.04976795201306852,-0.4113498372858878
1729841850.7799804,1.1673686002587997,-0.9875940734899208,12.559439042189112,-0.03918246660971862,-0.046146844481974744,-0.0018114725569435305,0.9981642758694133,0.48924518057590016,0.31081621177278196,-0.24680990237153266
1729841850.787991,1.355953574706061,-0.972037407228718,10.691221213399405,-0.045226422897096594,-0.06271538582703365,-0.0028449212510132335,0.9970021351409307,0.5766309992177912,0.5095884837133512,-0.042089116118873726
1729841850.7959776,1.14062009160098,-0.6873702165540276,9.509717214123627,-0.03600336673776637,-0.059458452850677905,-0.0021458997242548793,0.9975789919011542,0.6639690754428123,0.6535418704424905,0.1369344437457098
1729841850.8039699,0.7049621892379319,-0.5644539353523385,8.953086040144099,-0.03145083787644218,-0.039181725121296244,-0.0012338573607874434,0.9987362588838968,0.7282912428987618,0.7365083819882778,0.2413687492342257
1729841850.811979,0.3207449026540872,-0.5369122586723405,8.44457003473099,-0.031736393913006825,-0.01893317384665227,-0.0006012814864318974,0.999316753932438,0.7771011048474203,0.7437192827695471,0.20484354820668188
1729841850.81997,0.04233049750065546,-0.7432874272248887,8.16436012874875,-0.04537936198970115,-0.0025790328264151882,-0.00011715594604171992,0.9989664901134433,0.8123466828770839,0.7242071797964349,0.12460888916985725
1729841850.8279796,-0.42710581526913793,-1.0248904177607143,7.686663910501203,-0.06620130982390841,0.027446897663927102,0.0018217077245113525,0.9974270578679882,0.8560556029523697,0.716756818627188,0.020277005634774303
1729841850.8359854,-1.2022125650892173,-1.534068267990413,7.946402998400331,-0.09493923609270007,0.07333312414018449,0.007013010210453001,0.9927535505057451,0.9120792592998834,0.7910392632961156,-0.0006044984629963654
1729841850.8439777,-1.5825218762117335,-1.7813958777864354,8.54924390109098,-0.10210561802394856,0.08904292762971143,0.009176779404676559,0.9907379000153549,0.963998125751259,0.8879686076573021,0.0030428214138984336
1729841850.8519766,-1.7913144294379775,-1.9561286619257674,8.56115558015654,-0.11149008006216328,0.0998078017214648,0.011255023400904325,0.9886767364571224,1.001534796544015,0.9942291912192235,0.021833125737054544
1729841850.8599715,-1.737743097360052,-2.07557296253632,7.876617727976737,-0.1277324045389572,0.1040312596764958,0.013473482534704128,0.9862456058757396,1.0040493661309529,1.0247817165623379,0.025870577286093675
1729841850.8681617,-1.9538790102715,-2.0124459894358546,8.518864906805572,-0.11500458096056204,0.10885097841571673,0.012679367588249514,0.98730169882037,0.9608606514296023,0.9916047343313006,-0.08196067770314905
1729841850.8759868,-2.0430985499617282,-0.8052417147552626,10.767620366202483,-0.037144025645594915,0.09330153961930067,0.003483224433929478,0.9949386972125722,0.975387978447685,0.9023110649743672,-0.24754797526319616
1729841850.8839955,-2.3482608682582864,-0.4024604329058919,11.943054601313285,-0.016759533612340602,0.09685287309092533,0.0016311096558314646,0.9951562583275154,1.0228421702515793,0.7755161727887376,-0.37542158791718055
1729841850.891979,-3.076996817585831,-0.8929385314720508,10.45378990068055,-0.04214183391869884,0.14202567070452923,0.00605211633690354,0.9889469887626647,1.0313072524452005,0.632605897827821,-0.5240873758966544
1729841850.900004,-3.2120901376706392,-0.7335241760121368,9.35648451902161,-0.03855573531545394,0.16400592548223003,0.006415204536126001,0.9856847147195504,0.9793438335254612,0.5123788378728464,-0.6345713517574404
1729841850.9079778,-3.234009348715665,-0.44226928710142266,8.520690947008669,-0.025483934469258205,0.18010321161214865,0.004667658130431674,0.9833064706481563,0.8634534599426731,0.23889120282832074,-0.660846871496481
1729841850.9159863,-3.177729027198149,-0.0017599694776504716,8.895732031584107,-9.74080218547033e-05,0.17070581676486768,1.6875818590273562e-05,0.9853220358591009,0.776891633334519,-0.04865149602238383,-0.6595845808814241
1729841850.9239795,-3.2294338335552175,0.20221173926067534,9.451395931596949,0.010544920328388713,0.16383916995989875,-0.001751439520885016,0.9864291477352665,0.730062818107171,-0.2560837003726931,-0.6639354872499343
1729841850.9321342,-3.089750139000318,0.23074205942554582,10.261000981809731,0.011116539489427346,0.14567569236238911,-0.001636976660832238,0.9892685861341856,0.7053710494624584,-0.4873912284098487,-0.6397275571989325
1729841850.9399772,-2.882877956935347,0.11234843755962437,10.56791714792373,0.0052663105983376335,0.1327555377655612,-0.0007053854408615968,0.9911345698726477,0.6679944150181432,-0.6768328625461237,-0.60604674640254
1729841850.9479656,-2.26483084520613,0.05112849124671212,11.170333877621426,0.0022766600612413473,0.09985319079214396,-0.0002284742454579689,0.9949995502044774,0.577032334456167,-0.8403035802189465,-0.5590197860525965
1729841850.9559708,-1.9660680481393031,0.16954079103708977,11.378315589024025,0.00742120433792374,0.08543468180420247,-0.0006363726715554685,0.9963159317711487,0.43476293345780276,-0.9017766655369054,-0.42523247460004654
1729841850.9639676,-1.461198944117957,0.04809435743475386,11.013490376363633,0.0021784753754812486,0.06590303473148335,-0.0001438812752786277,0.9978236435144229,0.2978927954218784,-0.903753931687794,-0.26237621580488246
1729841850.9719744,-1.2150200610508524,0.2615730158280398,10.369145613757633,0.012587746490102018,0.058266246369797305,-0.000734747527098644,0.9982214450302831,0.1310583903693795,-0.9036632211939413,-0.08676117928023222
1729841850.979987,-0.7608549187105894,0.37744978239721455,9.806086093840518,0.019220035325788212,0.03867212184704813,-0.0007439738121445828,0.9990668164526783,-0.017570919668791443,-0.9304272687697376,0.02414181343356433
1729841850.9879687,0.04315693524825571,0.12399803838364121,8.887656479302356,0.0069753263265735785,-0.002427597444371274,1.6933746227210367e-05,0.9999727252813119,-0.18762961736948003,-0.9439315569464432,0.1600710890801534
1729841850.996002,0.5253246274575472,-0.14682541036825278,8.253759333138053,-0.008888732096084777,-0.03176887112078252,-0.00028253877686193306,0.9994556765766428,-0.3054153682639883,-0.8660447374371361,0.36039618161601367
1729841851.0040061,0.8244414695897626,1.0000694083200639,9.035087690947286,0.05503277411239941,-0.04513969385665861,0.002490486979656516,0.9974605753044202,-0.3552280057890537,-0.7695069085404942,0.5397621556807523
1729841851.0119817,1.2639218751620607,0.6950914509002415,10.307139362615246,0.03359673203521752,-0.060799404049988764,0.00204761174117693,0.9975823271038222,-0.3821357578738588,-0.6920024683752556,0.6614295121478424
1729841851.0202086,1.3772542542476272,0.803239598323348,11.764688847061336,0.03401834449788039,-0.05806757458234492,0.0019798552056832872,0.9977309202350662,-0.44297786557825514,-0.6433713539688023,0.6905838496975072
1729841851.0279818,1.5956095459567794,0.6449888920506495,11.318337481820786,0.02838612923740698,-0.06982915081751767,0.0019878386159283704,0.9971530303121275,-0.5782432244600844,-0.5013848190374919,0.6710414168801093
1729841851.0359688,1.6102645202986772,0.2229905215096865,12.011080368731141,0.009260077529633254,-0.0665716462390045,0.0006178558956121165,0.9977384853433621,-0.7513514930649806,-0.2599646455221401,0.6652756180501391
1729841851.0439668,1.2000722143764717,0.2568562782378431,11.787953097947668,0.01087835493221358,-0.05069101394412997,0.0005521775290225478,0.9986549842659682,-0.8875688988990328,-0.09382803833982742,0.6848034020711067
1729841851.0520005,1.5146788596317424,0.34205859726497145,10.725126491336958,0.015899770609542847,-0.0700481231687543,0.0011166341739118188,0.9974162675950401,-0.9382239679127358,0.03309808990313019,0.7680360028093085
1729841851.0599697,1.3184552198317798,0.36301304776327975,9.958622478054128,0.01817601482709973,-0.06571242661691748,0.0011971766738260302,0.9976723290946446,-0.9422242255103117,0.1313896500449304,0.8562876687838125
1729841851.0679646,0.7343305525533648,0.39497875150953027,9.744844000748492,0.02023869478320452,-0.03755954130398364,0.0007608491244289754,0.9990891337609055,-0.9258940173645278,0.27890811891411305,0.873055013144242
1729841851.076002,0.851682756580847,-0.040740141672406804,9.804761164853392,-0.0020755281953856804,-0.04330933930970227,-8.997437122357144e-05,0.9990595503852009,-0.9165215825385196,0.38827801324726224,0.7068797343152188
1729841851.0839841,0.8732523651301488,-0.24806252006203783,9.877821589048754,-0.012540890648673989,-0.0440564975835897,-0.0005530883664796105,0.9989501715179111,-0.9049384607824461,0.44198062812621486,0.5309760460161013
1729841851.0922728,0.496657520152308,-0.6413247935313634,9.413608251280815,-0.03399237026851148,-0.026276255759352225,-0.0008940180980116318,0.999076212247313,-0.8792582250244726,0.4601544250253394,0.3449784114203067
1729841851.0999703,0.4720529727847442,-0.7700219232379587,8.6990961263056,-0.04411261229142923,-0.02697076999628256,-0.0011913454710577908,0.9986617223557746,-0.8463967910497452,0.4548824808292569,0.20017600586879153
1729841851.1079717,0.5875348146767059,-0.7727805294310565,8.108540819093907,-0.047458878856815975,-0.03595521084952397,-0.0017094292562315207,0.9982244013657642,-0.8058211176532692,0.43682016216043634,0.046035532826881415
1729841851.115974,0.34031046033922663,-0.575956375519962,8.381727889893844,-0.03428989442704726,-0.020228619083234724,-0.0006941877399940352,0.9992069476407522,-0.7657251813412885,0.4353479523113087,-0.0711387745630625
1729841851.1239774,0.015044345051192237,-0.5023940340522115,8.804453331836697,-0.028495903679965552,-0.0008526251498262237,-2.4306203513913428e-05,0.9995935453538225,-0.7374107189394797,0.44595825806130696,-0.15293699065650368
1729841851.1319826,-0.36901783510795655,-0.23751123610515504,9.168940133867643,-0.012945966502221025,0.020102622957829,0.00026032231777263146,0.9997140684885002,-0.7510717259236608,0.5017044886409016,-0.21648938240227747
1729841851.139981,-0.6545217813870395,0.2733660867060476,9.628728322263944,0.014182556940112771,0.033912214015942195,-0.0004812872255380823,0.9993240641462527,-0.7903437046008976,0.5760184728890134,-0.2597290981872861
1729841851.1481237,-1.0504002648771453,0.5803713207248005,10.605144641063445,0.027297524832447056,0.04925051660535961,-0.0013465549245117048,0.9984124491120703,-0.8871255823787092,0.6989338347468943,-0.2903555183343737
1729841851.1559763,-1.0054115590727715,0.8919459894563646,10.843595771454472,0.04097859454098874,0.046017741231698175,-0.0018893359380180116,0.9980979674816952,-0.983506814576979,0.8050354965327372,-0.3117112008528604
1729841851.1639972,-0.9841644195745224,1.1318026473847562,10.835592324933232,0.05195908485180394,0.0449693272967123,-0.0023421077761131824,0.9976334635701678,-1.042186934018865,0.9040287687055916,-0.305368557598161
1729841851.1719735,-1.4562419720572135,1.0741248623566348,10.778596660829079,0.04952710650200505,0.06668688184662276,-0.0033142807503808323,0.9965384794649031,-1.0578132628567432,1.0660160368216538,-0.23217549162703024
1729841851.1799726,-1.7991041248847186,1.014139653742106,11.086530679602914,0.045442549482532325,0.07994039130046882,-0.0036481758698084336,0.9957565964371407,-1.0471816272707546,1.1917296318092472,-0.17123204958587052
1729841851.188069,-2.1932450872355185,1.0238777802823729,11.392916535203156,0.044590427046291056,0.09448236419323965,-0.004236230323885648,0.9945183914965718,-0.981206037314477,1.235231034192151,-0.10997596079637684
1729841851.1959703,-2.327497253757327,0.7249387848686424,11.322962672586737,0.031792696101921425,0.10094026732838172,-0.0032273034688921403,0.9943791386682272,-0.8794699343672537,1.0982925820819351,-0.004260517565831519
1729841851.2040026,-2.2368631349692394,0.6272176642317323,10.9671105173704,0.02841055577192096,0.10023124257445702,-0.002863217408413106,0.9945543425669525,-0.7958666993414321,0.8999161240366709,0.0851358421216796
1729841851.2119734,-2.047210269897559,0.7270811417519301,9.808607828976927,0.03678480747214243,0.10235724656252328,-0.0037876900262313615,0.9940601216323093,-0.6865338397827168,0.6527575407094408,0.17240317278968678
1729841851.2199821,-2.2243140525635354,0.5830132468187361,9.168812274290453,0.031512323938623965,0.11842928857750214,-0.0037603531940347975,0.9924552064405073,-0.5911358197451453,0.5274496540320526,0.24221686371043438
1729841851.2282484,-2.29562097792484,0.31988042733928856,8.982695998607474,0.0176522339688386,0.12468133160748013,-0.002218569800856678,0.9920373189212862,-0.46238107739698114,0.44077129036614476,0.3266740844090861
1729841851.2359934,-2.104731051110373,0.19384361773169814,8.352920993939874,0.011509152650865669,0.12306551887104991,-0.0014273263199494886,0.9923307816498663,-0.322551792953164,0.22572497862664195,0.39437601928675836
1729841851.2439692,-1.8968232302755985,0.04974736448667513,7.852472866139314,0.0031444429128088193,0.11822847109744011,-0.0003743903856713615,0.9929813698819173,-0.21779540927523422,0.04731714445334463,0.4213750982465767
1729841851.2519875,-1.7984147560364527,-0.06759558887635429,7.877336574908198,-0.0042622927196833485,0.11198729884858853,0.0004803486621810261,0.993700380910932,-0.11492671329104534,-0.11677002428654601,0.4039450307669672
1729841851.260031,-1.5758456981042936,-0.11621412578675007,7.951391581175387,-0.007270843804029806,0.09765613816858144,0.0007134719007859056,0.9951934005338978,-0.03575220318058874,-0.2560885714308354,0.3773107679436443
1729841851.2679956,-1.3051165082180447,-0.23947737317712817,7.703731982396637,-0.015480482435462605,0.08376189823994516,0.0013014056007730076,0.9963646949838542,0.04538201774118571,-0.42013512133373304,0.3374915668077768
1729841851.275978,-1.0277573145987955,-0.25956578425783944,8.096465218490717,-0.01599022451544034,0.06304982634495415,0.0010103209789839433,0.9978817622190198,0.11619843349027605,-0.6071065840595742,0.295721063544851
1729841851.28404,-0.8074722610737303,-0.2931666458476724,8.147751632315133,-0.017959138623374584,0.04933081969303922,0.0008871627594765588,0.9986206249174695,0.15400569226364785,-0.7831429709143836,0.25746236968177255
1729841851.2925115,-0.6221499521032224,-0.24557125581915032,7.618040871967204,-0.01609757340313406,0.04070596782669465,0.000655896131365192,0.9990412714768533,0.16179089537649988,-1.010086470543948,0.20896574967620357
1729841851.2999952,-0.614864918771699,-0.07982626667508393,7.464696069811181,-0.00534199664378883,0.04107760621960445,0.00021962494871819425,0.9991416541732242,0.18093547933392015,-1.1722196640708709,0.1709282863821595
1729841851.3079736,-0.06653128158528503,0.2925597160691684,7.35999991971874,0.019863005899448755,0.004515192504002748,-8.970390787635781e-05,0.999792511467504,0.24563348739112628,-1.329947568914633,0.13320665625456196
1729841851.3159792,0.23828746395898523,0.8310682441922823,8.03124445866718,0.05152752555150623,-0.014731815680875393,0.0007601866846172611,0.9985626218888268,0.30488541517562745,-1.3747785746298327,0.11014798811654142
1729841851.323974,0.49587780308242235,0.5924936515934944,8.490973181547965,0.034810780920033604,-0.02907481915098914,0.0010131603208517837,0.9989703889151265,0.3285172501253913,-1.2360837441502222,0.07971087483670986
1729841851.3319967,0.6078152170057034,1.0031277400283622,9.428567754143621,0.05294379721599675,-0.03195755599235546,0.001695201415198603,0.9980845631726346,0.2894850934124956,-0.8425387910566348,0.009514419370443068
1729841851.3399975,0.6311637749788127,0.5300505942123298,10.962212691060394,0.02414473220608202,-0.02871059613626438,0.0006936981030845055,0.9992958782858752,0.263085968954524,-0.5906612869263872,-0.043245705445867796
1729841851.347968,0.6279346578095532,-0.17349924430268027,12.668655478405768,-0.006844914805893175,-0.024757309117369158,-0.00016951760532168646,0.9996700425892279,0.33493864694091957,-0.46848170862765676,-0.07447609027419227
1729841851.3559728,1.3461730468829973,-0.9985732868159832,12.635241697687992,-0.03936583379225927,-0.052840856483724885,-0.0020846594497009995,0.9978245483104159,0.49979761131089795,-0.24618244013670748,-0.14557419873101685
1729841851.3639977,0.6889514257860484,-1.4579441075876367,13.394506069638185,-0.05416486644932254,-0.02550413668191249,-0.00138391188467101,0.9982052850203373,0.6255314638049929,0.020438110195478004,-0.19887531534166236
1729841851.3721123,0.9314760947294415,-1.6236727438494571,12.924945171323927,-0.062402247638362426,-0.03561507260562804,-0.002228225145691397,0.9974129340978471,0.7209792081901654,0.37026820780685543,-0.1746648971950615
1729841851.3799815,0.5737297071306336,-1.3824150293663149,12.032926629161544,-0.05714444137732745,-0.023625610782205004,-0.0013526621047227811,0.9980854240194431,0.7846332057431993,0.5810176464966059,-0.11884671034528395
1729841851.3881717,0.3552511519150989,-1.0370263015553358,10.36238507661802,-0.049843754534748506,-0.01702754723921454,-0.0008498969615270608,0.9986115062645988,0.8504954582700518,0.7142783506938487,-0.016819698340030317
1729841851.3960075,0.11977682640296558,-0.8082452499273419,9.69692431867589,-0.041566431869228225,-0.00614901040134648,-0.00025581836377144666,0.999116787953095,0.9040605818144103,0.8333982588667013,0.08313430445616674
1729841851.403996,-0.4459997232500175,-0.5342677041556239,9.34816551893991,-0.028532737617252,0.023786141624294786,0.0006791526369535527,0.9993095822128345,0.9289629248961708,0.8878426013119316,0.15672878810066998
1729841851.4122214,-0.9839449706687604,-0.7443343163410305,9.122869087975273,-0.04063289676422199,0.05347326594427505,0.002177695584084381,0.9977398634773214,0.9230455177335877,0.8638924286046195,0.18556063607473877
1729841851.4206498,-1.5344006970008655,-0.6977523439550088,9.287924117580086,-0.03735322289284681,0.08148862594008377,0.0030561811212513022,0.9959693772093942,0.9097042020224111,0.8414342138124536,0.1845550722163127
1729841851.4279988,-1.7813559150266909,-0.9609380823983958,9.012743415860552,-0.05282443621248125,0.09674191404812027,0.005141735452333198,0.993893426661872,0.8953140616737747,0.8334932557361606,0.1775663829793266
1729841851.4359953,-2.184511522648827,-1.187802533276928,8.634072206742895,-0.06776776186365743,0.12220083140797676,0.008363626829880948,0.9901537946205329,0.8964708488782194,0.8355397218737772,0.18316404085076166
1729841851.4443457,-2.32345421583539,-1.510668933296235,8.338874154123861,-0.08865482732458697,0.13286201472696965,0.011932919345532056,0.9870894650793469,0.9273889155646905,0.8163344786061697,0.18694832563508473
1729841851.4519982,-2.2255787660734994,-1.6299291016769595,7.719306855755567,-0.10283765652009128,0.13630129578526928,0.014227289813352922,0.985212645774139,0.9868060014769282,0.7779928587734972,0.1696371536784251
1729841851.4600031,-2.3428273182378496,-1.3006958447952381,7.185718444508027,-0.08829566710722364,0.15398467581481415,0.013816929795027775,0.9840232147847612,1.0467205865276066,0.7677585887177547,0.1345604269396315
1729841851.4679773,-2.6195566326419284,-1.7428865742599555,7.93290049785716,-0.10655664014511967,0.15445610047669345,0.0167584031224428,0.9820937589615886,1.1060822909384254,0.7684290676677017,0.031781899095645265
1729841851.4759681,-2.8904602539992195,-2.0716473559329263,9.447108308968202,-0.10654474367699972,0.14385475306986303,0.015580570097142987,0.9837231691128654,1.1570241557975498,0.7330733898748591,-0.06351473246624698
1729841851.4839714,-2.926109738825313,-1.4883940837257712,10.832318546171937,-0.06761443094426696,0.13006732369376506,0.008890830622057345,0.9891570821492783,1.2646391758376523,0.5888355554366266,-0.17858655976221863
1729841851.491974,-3.4498029380217505,-1.3725950427647597,10.020782929460976,-0.06705564091668414,0.16323581865948597,0.01112111992644134,0.9842428202529099,1.33261370835341,0.4720688604098828,-0.2842390014255363
1729841851.4999752,-3.4518149610552378,-0.7081565056393246,9.058612529893383,-0.03832977735414679,0.18039488431710096,0.00703534921656187,0.982821966452522,1.3295523515322754,0.3705077788456461,-0.3608268583288499
1729841851.5079765,-3.4922870821018925,-0.6717360945457042,8.703492204215326,-0.0377789483695334,0.1889935123735531,0.007276598911415649,0.9812243649895176,1.2319352736106375,0.12524733329404444,-0.38379230915188833
1729841851.5159743,-3.311866112786526,-0.30463996849500063,8.668309192158102,-0.01726006130908566,0.1813354752989245,0.003183132201821021,0.9832646659730561,1.1478236231699328,-0.11854057798879772,-0.3767127666340719
1729841851.5239725,-3.407120672310587,0.013540555035812137,9.23641241348822,0.0007210945997008705,0.17577862256434632,-0.00012875784613391926,0.984429448611416,1.0913969720450416,-0.3473971966821371,-0.3848100529057809
1729841851.5319784,-3.555731911442993,0.46948699293359664,9.755881790133948,0.02365981241382785,0.1736324142824636,-0.004172714662847494,0.9845174383622303,1.0541354608784106,-0.5702748702520091,-0.4181896587867624
1729841851.5399773,-3.539314361709546,0.42749907686367355,10.297406775496384,0.02044905109056203,0.16460907448146053,-0.0034134058247509425,0.9861409826026541,1.0228390628877293,-0.7623210128142306,-0.4369403521309652
1729841851.5479689,-2.850947081381196,0.13774704377445413,10.236615879262672,0.006663174468996255,0.13537908953703173,-0.0009104570548614064,0.9907710508942372,0.9380792645667057,-0.950767388923033,-0.435420066293626
1729841851.5559707,-2.3603545793951235,0.1805710741650631,10.7127399169619,0.008375456931789383,0.10820222392335004,-0.0009116278656948883,0.994093204580868,0.8425259291205781,-1.0804371269853337,-0.427271163746368
1729841851.5639987,-1.9659214488089491,0.3197506510908348,11.013737230206438,0.014452593830955861,0.08815813040704303,-0.0012792295229083054,0.9960008183463104,0.7060155764209638,-1.143765507733005,-0.3470346813392335
1729841851.572103,-1.3524142291486507,0.32233438113301643,9.889495713368003,0.01625124031226615,0.06785794201646028,-0.0011054708435541954,0.9975620155297703,0.5538705046599599,-1.1434504306500248,-0.12138003626528562
1729841851.579982,-1.2838245250380185,0.42204688722473177,9.705522723430958,0.021678452290057597,0.06563300025747115,-0.0014262344195293372,0.9976072974065953,0.4263998063790849,-1.119422740958363,0.08382592085885625
1729841851.5881631,-0.45856965887046724,1.2192885022078859,10.05267086672459,0.06029752517976786,0.02258383034972422,-0.0013645819463632737,0.9979240036095142,0.29415198935903375,-1.0437067582928332,0.2550524720785509
1729841851.5960035,-0.39437303799806156,1.548474707770044,11.229414324233971,0.068450812610897,0.017346533053069713,-0.001190356644527914,0.9975029659579993,0.17649119361542023,-0.9931688879559711,0.39312067791171634
1729841851.6040807,0.3463642814492099,1.9411138664100733,11.088870691708351,0.08652837173615655,-0.015320582940600501,0.0013308144308227983,0.9961306889941703,0.01905394363099769,-0.9479470136026829,0.5823841167771235
1729841851.6119769,0.5312752131566353,1.5513318879612783,10.792897085435168,0.07129671967689254,-0.024278254087787648,0.0017358930630677909,0.9971581272882637,-0.16863452981984078,-0.8475951984192404,0.7614984495615207
1729841851.6199775,0.40447754732757496,1.589683429651767,11.439875973429068,0.06897199987278209,-0.01746041626751352,0.0012073403679042302,0.997465056744621,-0.3165798889916924,-0.7554573546995226,0.842999955482975
1729841851.628234,0.9947052698516231,1.4285802470000444,10.89719770075666,0.06506124783943808,-0.04501914894658361,0.0029382253562467778,0.9968609116067579,-0.45174732119416494,-0.5890695424261017,0.8186821684643782
1729841851.6359794,0.8089494290008177,1.5124411425847921,11.089217136078997,0.06767831508844205,-0.035986636133310636,0.0024427087157712648,0.9970549838703622,-0.5524295233429017,-0.42538334584274434,0.8049428763761441
1729841851.6441083,1.1488029374297875,1.7981077031290003,11.190542427643491,0.07946979943616024,-0.05032509310427339,0.004017169186013182,0.9955580336340788,-0.5847433005756498,-0.20201874982289267,0.8222407048109257
1729841851.6519754,0.768050997077013,1.8543465396020093,11.656436523480627,0.07875570659892182,-0.03238369654709141,0.0025597066326413323,0.9963645330791363,-0.5900837948870516,0.05587581567446957,0.8866820396774726
1729841851.660016,0.011438946634879613,2.1593528895815184,12.260147885768063,0.0870595102951891,-0.0004576930627467216,3.999840759335091e-05,0.9962030067131646,-0.6175524249772285,0.27063485363903333,0.8929943959262863
1729841851.667965,-0.02450067376711911,2.268854708602426,11.469806023941306,0.09748982419171055,0.0010427561664530104,-0.00010214473590680784,0.9952359702126424,-0.6863934805911646,0.4518501539776015,0.7222488844761417
1729841851.6759808,0.0022984275268379106,2.23615411178255,10.37789687852494,0.10591496311824931,-0.00010764328884720237,1.1465526431356841e-05,0.99437518516359,-0.739191745619001,0.5742014161475273,0.5176359628551672
1729841851.6839893,-0.20524054675538164,1.9471860669230454,9.372240268228246,0.10223830644580713,0.010662437397819942,-0.001095915497911166,0.9947021866332919,-0.7768303654961715,0.6450580330807107,0.2573703200303463
1729841851.692003,-0.5313557111098696,1.450588015886249,8.618969278124448,0.08323312945217519,0.030249822919933847,-0.0025277272826043492,0.9960676708786883,-0.7730207536118276,0.6581993889997406,0.05523640769755442
1729841851.6999907,-0.7595859523006874,1.1813596051860462,8.583118932597325,0.06826784286273455,0.0436076716243931,-0.002986831154445215,0.9967090605818846,-0.7443422026705754,0.6418198690478227,-0.10563311541808967
1729841851.7079732,-0.6025161331479906,0.8601293080335027,8.855377268982222,0.04836582085525311,0.0337627722222952,-0.001635814509216579,0.9982575552910954,-0.7054248789712605,0.5200356709121576,-0.3162397657593006
1729841851.7159767,-0.6059576693907475,0.779439767437289,9.03740704376238,0.04297838845699602,0.033314400492150446,-0.0014339223393153874,0.9985193802386677,-0.6910139760423741,0.38226026268852975,-0.49028104284777463
1729841851.723974,-1.015755133861011,0.9230410162240922,9.070728716003522,0.05060281947446893,0.05537470610788006,-0.002810044601096283,0.9971785698830677,-0.6985436566205996,0.24978928056329536,-0.6674988096108665
1729841851.7319891,-1.3624295024357471,1.3688108548516427,8.991362350451723,0.07524932773584778,0.07406719480292318,-0.005604925724851373,0.9943943755557689,-0.731582699085491,0.2090444868811996,-0.7925598323730509
1729841851.7399771,-1.499565754439964,1.3999650541707511,9.373741149284706,0.07382193679244728,0.07816409964152689,-0.005803965959375496,0.9941866068070842,-0.7590685456707423,0.19992245288457527,-0.8446091827114119
1729841851.7479947,-1.4504058344999158,1.6669362859204195,9.497344715205589,0.08651243664476294,0.07429871179301652,-0.006470107495163359,0.9934553021856017,-0.7844995449125958,0.20466579396168946,-0.7970861315439528
1729841851.755972,-1.4199522018718245,1.684185185858892,9.676133467306947,0.08582730744877902,0.07146202165960537,-0.0061721249068938475,0.9937246890515243,-0.8252995481454297,0.24241838364784454,-0.711104142546103
1729841851.7639747,-1.4387901480273915,1.629891080997757,10.006067472962293,0.08043994096313081,0.07020215765180039,-0.005679613075877621,0.9942679794472856,-0.914910129488821,0.41533852915563474,-0.5667145157486702
1729841851.7719812,-1.4194471344707316,1.5056166944970915,10.704416023328157,0.0696569798006059,0.0650766748397219,-0.004553829758357657,0.9954356805898585,-1.010819794379597,0.6063570790600253,-0.4145244702050576
1729841851.7799804,-1.3439161420105639,1.216771014012708,10.680976686750801,0.05657082789632384,0.06204478603137511,-0.0035223848808429133,0.9964626328980916,-1.0696426634984486,0.7141571680192672,-0.26914780507321207
1729841851.7879822,-1.3742543189954008,1.194058890145906,10.60705804330048,0.05590132581658086,0.06387721570271648,-0.003583778508173567,0.9963844135762168,-1.0806720514664239,0.7788372213948123,-0.03591011491262791
1729841851.7959766,-1.5425736692780996,1.0626368941461373,10.64363087334357,0.04960087147021258,0.07146272445630956,-0.0035581240450080435,0.9962028770867696,-1.0711134619116516,0.8372269962473928,0.1798053301239642
1729841851.8043544,-1.911237025053188,1.0951140737435416,10.862617368000281,0.05002050770934473,0.0864338594814754,-0.0043452282375180265,0.9949915857610052,-1.0283432728315915,0.8556589487619218,0.4122515920197311
1729841851.811981,-1.8480038812916784,1.0013546429765938,10.630808872948608,0.04676178217946067,0.08548643057682662,-0.004016644082045014,0.9952332754108215,-0.9767140656343716,0.7096384875911497,0.5874773143200018
1729841851.8201709,-1.7966564657378974,0.7590695155222844,10.423010188271117,0.03620403518789254,0.08496828678582889,-0.0030894147548330936,0.9957209014544526,-0.938074120209723,0.5053871340480897,0.7002751688064809
1729841851.827983,-1.4732765735345354,0.7686032864618082,9.110328113695092,0.04193137608908081,0.07972896275172693,-0.003356812033851437,0.9959286038721747,-0.8565706145346356,0.26194034446703673,0.8096715075216474
1729841851.835978,-1.5497934258101744,0.6910053312520849,9.00985474541432,0.03811941118422644,0.08476320197084601,-0.0032451866922937156,0.9956663993757897,-0.7599912242458357,0.1201291713330253,0.8914855330863045
1729841851.8439803,-1.6737545112966516,0.5666350041711727,8.87175917049078,0.03174246717254206,0.09286793734214159,-0.002962170901409706,0.995167919265471,-0.6152028175343012,-0.011357749246743029,0.9452565391011812
1729841851.8519745,-1.6181260124420533,0.42305980011012556,8.334003510106967,0.025236124774341354,0.09558936228886164,-0.002424188561219887,0.9950979525320119,-0.49129473816018376,-0.17027963314946595,0.962194300497474
1729841851.8599758,-1.7092473994574195,0.29453730828873154,8.15093207066379,0.017958681555290693,0.10308638090239501,-0.0018615179551310212,0.9945085311751451,-0.4105645396137828,-0.27755208521203656,0.9438357232172937
1729841851.8680053,-1.3487656637955454,0.34216171969003584,8.093522223355306,0.021049095274287992,0.08238077602398966,-0.0017403459120039198,0.9963770945409803,-0.33743639692114447,-0.38916715327186446,0.8144787397627407
1729841851.8759694,-1.1164354712753741,0.3075294427026934,7.721493880888183,0.019848758167151887,0.07166463448173611,-0.0014264047830279763,0.997230250410213,-0.2714236281095358,-0.5008336505612745,0.6623687889341533
1729841851.8839781,-0.5556578635757713,0.1706312959927098,7.792284839275098,0.010939556690627298,0.03557596718616947,-0.0003894551935892022,0.9993070223824274,-0.17434780852519632,-0.64105223950639,0.4621261627027208
1729841851.891981,-0.4217407594052284,0.09208371045695402,8.343048426758418,0.005516507117712795,0.025248880808134862,-0.0001393321724327388,0.9996659655873568,-0.08162142179616809,-0.7962736331376186,0.2640793057163095
1729841851.8999999,-0.12543350715680893,0.2601938883835474,8.457549589502317,0.015376449370682674,0.007410481998091445,-0.00011396350486414702,0.9998543076736862,-0.01874885871389661,-0.9524085984127364,0.08395182267393016
1729841851.9080064,0.1993548261258365,0.10966882082309717,7.873351494424046,0.006963470935797325,-0.012655523034681542,8.813556249044673e-05,0.9998956645777436,0.018548989074004256,-1.166985555033024,-0.1445949545452524
1729841851.9159765,0.5747506312712051,0.39093387794307705,7.64780996403724,0.02551492005479664,-0.03743596646256212,0.0009561578721986359,0.9989727839294396,0.0481644287915993,-1.3063739805417471,-0.30556166431863563
1729841851.92398,0.819859988137723,0.41987153526194004,7.990367697172344,0.02621087321664721,-0.051014407324575795,0.00133933804301637,0.9983530069790694,0.08040715471186541,-1.3372214682256893,-0.4153380820879886
1729841851.931979,0.8831285441521649,0.5930966577294297,8.367087755754579,0.035325068353369134,-0.05239178827312114,0.0018544525919070947,0.9979999003371486,0.10784090143180368,-1.3250802764107883,-0.5110022370519426
1729841851.9399695,1.237842557399502,0.5991088833095327,8.772924335581653,0.033999127787994986,-0.06982805911235335,0.0023812925975427537,0.9969766451205475,0.13366633081593132,-1.3160928010759996,-0.5730833207063973
1729841851.9480097,1.829433667984623,0.188758751616579,9.496463716339225,0.009890127544631077,-0.09498965058792322,0.0009437740510416672,0.9954286820003108,0.14745882820055978,-1.235353174996347,-0.6124604212063803
1729841851.9559772,2.4673829705661645,0.6201077424250255,9.52668552472541,0.03222401580301614,-0.1260545259050741,0.004096841651173504,0.9914913439828202,0.1404094844187037,-1.117521919330244,-0.634809611321984
1729841851.964229,3.088615037466652,1.5018884088827498,11.08979694105595,0.0666203903920085,-0.13393308820969319,0.009024586187494781,0.9887073420940978,0.2468592941297183,-0.9540227325318593,-0.5839399261105794
1729841851.9719791,2.7493187038764755,1.1573126229663684,10.778608784750757,0.053026454926382416,-0.12369264058802176,0.006619346207199013,0.9908806739451991,0.3971442624331195,-0.6733021840856172,-0.5104234187760716
1729841851.9799817,2.519883525792682,0.0824296294438836,11.84358451889733,0.0034599830023974653,-0.10462386965229084,0.00036399668936167853,0.9945057777222884,0.48007851237030563,-0.3490672925227682,-0.4650364441909807
1729841851.9879768,2.5277898798799057,0.11673484431672078,11.946747627842306,0.0048578461953093345,-0.10406156164969463,0.00050828068557024,0.9945588642046855,0.5145142201199842,-0.00042655533580338023,-0.3743764402820835
1729841851.9959745,2.243792972117397,-0.18087142739434253,11.68734363041632,-0.007701043496193718,-0.09468250051892099,-0.0007324666616023299,0.9954774640930572,0.543689445999032,0.24451585213918614,-0.2688976305613014
1729841852.0039732,1.7068425532899691,-0.002459722891683634,11.004258606228309,-0.00011141826831239666,-0.07686472365863273,-8.589546366009593e-06,0.9970415245961781,0.578222183984942,0.5021607126043082,-0.18134601122549632
1729841852.0119777,1.5151562924720283,0.09285571167514607,9.98532268937175,0.004635753316540956,-0.07521966556337903,0.00034969429187723164,0.9971561509701596,0.6112868385588868,0.6852688630013375,-0.14499126195957046
1729841852.019959,1.304376469575014,0.14501714892891576,9.248026131933598,0.007819709853760272,-0.06999182137215287,0.0005486782323737211,0.9975167647869428,0.6302742511803296,0.7908768526249348,-0.12190134221562887
1729841852.0280488,0.9858936026922739,0.0015372900897713336,8.581311501914065,8.94196165049989e-05,-0.057162290243347506,5.1198014825884784e-06,0.9983648954926526,0.6335785875854167,0.8431737048010802,-0.08420874692739014
1729841852.0359678,0.6114080353946612,-0.20761259054574657,8.272022966822266,-0.012537246481748093,-0.03686646931255648,-0.00046255488565086135,0.9992414457647661,0.6389667099201652,0.8745518161067675,-0.04797110778766189
1729841852.0439727,-0.09882740166359394,-0.5447499456848698,7.691406571841407,-0.03534573959494686,0.006404081381275119,0.00022650317815844874,0.9993545992941937,0.6958365310652304,0.9189200865779017,-0.03048542491844526
1729841852.0519788,-0.5371790923653439,-0.8552502738074063,7.456521893544298,-0.0570307176402796,0.03565940316337358,0.002038301559317218,0.9977333058178522,0.7725274298984726,0.9668255519336839,-0.048515249314871396
1729841852.0600634,-1.221569598973894,-1.5898226508567095,8.678849511859,-0.0902409379980706,0.06845108918913813,0.0062172204613198,0.9935453525973459,0.9024029113064382,1.0717673521488567,-0.12786924384811418
1729841852.0679975,-1.8191910525972268,-2.2496355289905883,9.99020636360954,-0.1100742577174783,0.08725658619570836,0.009701345881280757,0.9900382971590084,1.0526955105997629,1.1956061110670309,-0.20783408523917424
1729841852.0760274,-1.9563002712067734,-2.1954133437615404,10.265379579884472,-0.1046869026898444,0.09148239281662744,0.009671387270212798,0.9902414293888238,1.1598986726342388,1.251604693775068,-0.2481505689674937
1729841852.084,-2.605512755497501,-2.193286393708096,8.759091330694355,-0.12111423140962482,0.13894931320210302,0.017124719096286035,0.9827162231827624,1.1893139848150378,1.2460403577453836,-0.2293457629968202
1729841852.0919993,-2.938058246560219,-2.0912143337834515,7.616377055496691,-0.1313771474423799,0.175539230325632,0.023643947103261936,0.9753804321965691,1.1707795168992448,1.1975786096125975,-0.23253634150412517
1729841852.0999968,-3.357373253600194,-1.5140206400649925,7.412222444235514,-0.09829088694495063,0.2062740487222234,0.020830574158266873,0.9733221489042329,1.1098530989587112,0.9684272318457711,-0.35790080643249733
1729841852.108,-3.958755120373007,-0.07523020630462049,9.005414587146776,-0.004083655344402905,0.20559966784958159,0.0008579345729499173,0.9786272856851266,1.1022441723738092,0.7411158022171864,-0.5084666262683002
1729841852.1161425,-4.483347633991382,-0.11792185425152228,11.063380897063457,-0.005226427259230621,0.1913093577932471,0.001018694659846059,0.9815153469712175,1.1181119393730454,0.5481121662655856,-0.5843326560800728
1729841852.1239743,-4.455971724926078,0.11312157494908666,11.492751244536901,0.004833709718026091,0.18387520652843733,-0.0009042279473525815,0.9829372950734475,1.1344436405559797,0.1781730180017921,-0.5992025895418701
1729841852.1319602,-4.662446354047444,0.25126879213742076,11.494433295550266,0.010717124786255536,0.1914315346662632,-0.0020903822043699095,0.9814452308070353,1.1259379886228729,-0.125522962757194,-0.6051447191887143
1729841852.1399598,-4.799259820485107,0.5491564315324524,10.95555005179305,0.02448541997855276,0.20468999697966075,-0.005122007093101777,0.9785071458033807,1.0131350119131146,-0.34520127662124445,-0.6142439677758272
1729841852.147969,-3.995972126421923,0.584476335726112,9.847640221505518,0.029065945714977132,0.19116401864417457,-0.005663335948751598,0.9811113165188929,0.8377536403373659,-0.6166346050992211,-0.6639752833201462
1729841852.1559715,-3.290141654759404,0.6535523114454328,9.34474235555956,0.034387222199889364,0.1679797232814033,-0.005863290743937133,0.9851730575575698,0.711666004380277,-0.8441994915282358,-0.7244637570720039
1729841852.1639762,-2.6628968104825947,0.6317909730489002,9.701409092534956,0.03220805109935405,0.1332059831245632,-0.004331211567832987,0.990555424047819,0.5908902762910484,-1.0015972363972843,-0.7577770108928843
1729841852.1719687,-2.134757518662604,0.3577661890539495,10.000403293655738,0.017776327907114847,0.10487993271737492,-0.001875022258814891,0.9943242359365815,0.48351825439762464,-1.1028469243021057,-0.7424326880840639
1729841852.1799827,-1.8815597077307653,0.30396343535619785,10.82599484240438,0.013980456938195945,0.08589294025637668,-0.0012053963695255944,0.9962055494010792,0.33651116933793623,-1.1712591581513152,-0.6238237486030296
1729841852.1879807,-1.7571743402634592,0.48165326873324993,10.835566254807862,0.02213464115019417,0.08019985519420916,-0.0017813738558356282,0.996531418267967,0.1721083973004195,-1.2084752879076825,-0.4709258931136989
1729841852.1959794,-1.548946667146357,0.25834617998994996,10.747935237503857,0.011983823682676354,0.07147856871139927,-0.0008588455230063123,0.9973697732382307,0.04026290928387102,-1.2214397844093383,-0.3617338873001572
1729841852.2039764,-0.5190018357370328,1.7952752653670168,11.390393369064812,0.07806343437847216,0.022418890899431148,-0.0017558993173951844,0.9966947428182135,-0.05800043629184949,-1.163236522783717,-0.23534500502296168
1729841852.212035,0.39608548913395214,1.6965451287026319,10.906533625198653,0.07706875815275618,-0.017880385143695377,0.0013823534780983912,0.9968644779721899,-0.1169584436372818,-1.12533473537811,-0.1182197396948273
1729841852.2199621,1.2987614692616214,1.2223918989989229,10.459397570138723,0.0580245824852606,-0.061214121092880505,0.003564648670672467,0.9964302647381261,-0.2672695646392897,-1.0446998145759094,-0.028788527732155254
1729841852.2279582,0.9475692582659572,1.1868969338329474,10.490391144622297,0.056242679664441825,-0.04467151731129359,0.002518959635571953,0.9974140922242999,-0.4515337408236034,-0.7634663984748578,-0.009185005471514551
1729841852.236319,1.010511181424418,1.5206600609345342,10.265257560308534,0.07337724899414032,-0.04838546366743756,0.003564209058777284,0.9961234474951006,-0.5327196322933114,-0.4291329149054965,-0.010193593958991078
1729841852.2439744,0.5720696251144164,1.3388033522345488,10.938220470023012,0.060836606604674125,-0.025882081316512286,0.0015780325153586295,0.997810871346336,-0.5124693772182871,-0.10125149638673228,-0.035063080554812796
1729841852.251975,1.15535497819365,1.5227396102176824,10.640975969757946,0.07090260173308116,-0.05337441193190349,0.003799403845918166,0.9960469656340605,-0.49606232355865226,0.0626992199919498,-0.06914082527809724
1729841852.2599633,1.90372134629119,1.2282418642751407,10.681459301337188,0.056982994600888806,-0.08736650224964232,0.0050057737896228366,0.9945325408651773,-0.5636936825489611,0.13978514674605746,-0.11385180561540371
1729841852.2684288,1.7561061134387765,1.4135465077252407,10.88339906346833,0.06432285543799462,-0.07908533650422253,0.0051137018610009815,0.9947773267780049,-0.6987756915877175,0.2630866039231498,-0.19431534156200359
1729841852.275972,1.5430384873992034,1.489534529391004,10.759157250580998,0.06855228618851765,-0.07033333167465207,0.004844992316562162,0.9951534216206682,-0.816859932358168,0.3796364843756084,-0.26983762706353354
1729841852.2839828,0.8008457657793658,1.2377674961990557,10.385097535163052,0.05923385377228092,-0.03813542686981138,0.002264540521506749,0.9975128628949943,-0.949861225793895,0.5049061206371477,-0.32834739026977444
1729841852.2919803,0.19104847875472883,0.7352384725729488,9.861147078226738,0.03720031940444958,-0.009652078393323299,0.00035932588733117655,0.9992611493017243,-1.0471152943752744,0.5826220427628434,-0.37068997923837355
1729841852.3001707,-0.04266996181942833,0.37865442021369117,9.770395239123543,0.019366689246038474,0.0021815725451394953,-4.2257863707402276e-05,0.9998100671143247,-1.091845653557317,0.591790870629602,-0.47612526417439505
1729841852.30801,0.24470339033998365,0.14938109817313658,9.73270354728272,0.007672875087266274,-0.012566364849294067,9.643060123267231e-05,0.9998915962060632,-1.094845225624669,0.5411010792366691,-0.6253758275513384
1729841852.3159723,0.3974949480223495,-0.3204980854808837,9.555662525098148,-0.016759229272797188,-0.020770855164092775,-0.0003482275883897485,0.9996437258080905,-1.082171506775371,0.48557149077464934,-0.7238656568682069
1729841852.3239713,0.4831843784813785,-0.5385004113471239,8.96652743693389,-0.029976591066005344,-0.026854115266548812,-0.0008056478276913399,0.9991894772328671,-1.0277413687049686,0.4084076613668483,-0.7701888526144671
1729841852.3319695,0.40578998744038963,-0.8299527382633526,8.50267368750213,-0.048617839777084074,-0.023701478237061403,-0.0011540046713226077,0.9985355345995487,-0.9750758529740118,0.35487263267731317,-0.7779753371735076
1729841852.3399632,0.09790653152673377,-0.7922190269912146,8.46593638535284,-0.046635040557875936,-0.0057506783050060685,-0.00026847967723385706,0.9988954052401385,-0.9549701751949125,0.33594800736891506,-0.6983605957394498
1729841852.3479674,-0.48066971511716283,-0.45138939959316626,8.4781310878035,-0.026581504327731223,0.028263576267300125,0.0007518547240292976,0.9992467305919651,-0.9799418038746497,0.36631085820715525,-0.5084112703506964
1729841852.355967,-1.0423359318535008,0.16084091957027213,8.727501697115695,0.009196511010205882,0.059386594395328715,-0.0005471383971544415,0.998192545168986,-1.007269792864891,0.40027910098419456,-0.32505419509913336
1729841852.3641174,-1.1372818740535067,0.7908230331874757,9.171610866902228,0.04290847002806308,0.06136403393035888,-0.002640458550798442,0.997189223025543,-1.0649585222208529,0.39852416345439245,-0.21035735927211316
1729841852.3720155,-1.1583364144711665,0.9128721438870948,9.819472693237039,0.04625058499026728,0.05836447048247184,-0.0027069169238969648,0.9972197072732397,-1.1208562629075314,0.394491370506277,-0.17431739250847747
1729841852.3800411,-1.3670542546885593,0.961920173539288,10.440187929907067,0.04582191943049707,0.06471515475182973,-0.0029747527336349538,0.996846754166018,-1.1824904513760326,0.5448944268022771,-0.07351506101835817
1729841852.3879948,-1.8023340738092295,1.2887088375220102,11.216518891977444,0.05697869061621103,0.07893804341666191,-0.004519300192354365,0.9952395641467348,-1.2003149116913419,0.7837020920301261,0.11084214576116463
1729841852.396,-1.9567205712386628,1.4606005991440654,11.424461950420842,0.0633025688230736,0.08387348724515463,-0.005339042333076591,0.9944493539364901,-1.1863195643157296,0.9223041004907531,0.2491263238239103
1729841852.4040132,-1.7639636318056975,1.4143374725235487,11.004307487635318,0.06366256732507462,0.07859266251194734,-0.005029264734456789,0.9948592751827237,-1.1293936888836908,0.9560852584375337,0.403612760987179
1729841852.41197,-1.7783146182924026,1.309725723260223,10.890120825589003,0.05960960699900618,0.08013447923861529,-0.004800844253293201,0.994988498368215,-1.0709738301211318,0.97592826314414,0.5380222493084194
1729841852.4205904,-1.763940874246926,1.2005111614951962,10.535501729972543,0.05649912678412745,0.08219544637038305,-0.004667295759369519,0.9950024993028405,-0.9793051366891461,0.9614412821574579,0.6369726149440309
1729841852.4279714,-1.975583180554015,0.7411362513404771,10.171656147846807,0.03618609605960824,0.09546149346769123,-0.003472543213656489,0.994769124551276,-0.8698155927628146,0.8420696775853204,0.6537738281791947
1729841852.4359674,-2.3111035289378776,0.6048538418687394,9.681606910143632,0.030969822219380574,0.11661993718001894,-0.003638305755918144,0.9926869713535355,-0.7841144335183003,0.7074445857456573,0.6485297139076598
1729841852.443965,-2.559581510673273,0.18382602094155612,9.245840629240474,0.00984531677450261,0.13459432596712465,-0.001337359313057761,0.9908509719554868,-0.6990642231160912,0.513861664354421,0.6087739000590042
1729841852.4521606,-2.3588754371656826,0.4349493576821211,8.887655113628268,0.02423391924381285,0.12916554507193853,-0.00315758942547224,0.9913218492262609,-0.6237697633714299,0.33854099297645684,0.5368174348046013
1729841852.4599695,-2.193201381684175,0.44029531895497587,8.424943932434774,0.02588420347447292,0.12678318350936582,-0.0033095242444742866,0.9915871517113348,-0.5134625081209422,0.12820314496855656,0.3425235838329383
1729841852.4680197,-1.7978736231999581,0.17128216695892304,8.162161274011646,0.010426637865958857,0.10816245939227026,-0.0011344893488598586,0.9940779046608696,-0.3612887625553193,-0.05972462274817823,0.07269885112360913
1729841852.476008,-1.3049762308047406,0.17675013147418195,8.033700939211675,0.010961486131880784,0.08040471235485323,-0.000884271791917635,0.9967016334471976,-0.23252378980728675,-0.19972544731178912,-0.13729896544719797
1729841852.484276,-1.0544882067445631,0.024647222439196665,8.0624484517106,0.0015251534992398099,0.06497974149989146,-9.93140884204944e-05,0.9978854128797168,-0.1148242503195742,-0.34289686059317803,-0.3356649658382276
1729841852.4919996,-0.7502482255604097,-0.13389158963218512,8.193900378399407,-0.008160529066845251,0.04563016797828803,0.0003727670368714011,0.9989249994771172,-0.032710894967471836,-0.4798825159374551,-0.5095985840014474
1729841852.5000148,-0.5435228000823396,-0.2546328346386861,8.218901997059175,-0.015476342315532996,0.03299160445147982,0.0005109287907640058,0.9993356672390015,0.02464522941156819,-0.6719019450012256,-0.6935627963927793
1729841852.5080073,0.17690808874942443,0.008110650779288358,7.682997166253082,0.0005277945823161557,-0.011510664426654407,6.075669682118737e-06,0.9999336107964478,0.03266612022834624,-0.8986443985425401,-0.8141578853026672
1729841852.5159693,0.6663880417262171,-0.08994399527461448,7.539822291451067,-0.005958253735743623,-0.044058529769318594,-0.00026277174165055414,0.9990111491459934,0.02470795287455212,-1.0717249060145257,-0.8784268274808213
1729841852.5239673,0.41491629549471465,-0.09682260688156556,7.066056697624546,-0.006847702007631819,-0.029318508164821185,-0.00020085546623351742,0.9995466440908526,0.03483220461344676,-1.1917494328332743,-0.9246506138940304
1729841852.531957,0.37536362495307873,0.058504056720670036,7.3145072107133995,0.003997717083590767,-0.025632525780437104,0.00010250608626653929,0.9996634340480486,0.06815091959035356,-1.2697238097849919,-0.9655812776472786
1729841852.5399642,0.690172137374191,0.17133250849529263,7.96659928736554,0.010740879650054243,-0.04318285667465157,0.0004642818125057952,0.9990093387131864,0.12602856404661844,-1.3514150209959088,-0.9769432839939047
1729841852.547968,1.9667430590358428,-0.4045318266899338,8.203189106110731,-0.02445760642797631,-0.1172124615729582,-0.0028875222158430275,0.9928014537435343,0.11733476445125016,-1.4710942979251564,-0.9033050661855563
1729841852.5559676,3.0968436845425993,-1.1412629790706008,10.104641797406673,-0.05556558746652359,-0.14703864322308927,-0.00827342403864209,0.9875341276853626,0.09253674186677574,-1.5607808466641102,-0.7854777548676158
1729841852.564003,3.254883459260716,-0.6943345940829855,10.955575591139317,-0.031299217598495764,-0.14355267289195175,-0.004542429957180855,0.9891371772476164,0.16747853128457976,-1.4511277923060621,-0.5334374018940261
1729841852.5720096,2.610377851435336,-0.9406914998579944,12.913909611275388,-0.03616238572653694,-0.09923855835587538,-0.0036089136574047154,0.9943998019590642,0.2716145234784846,-1.2018635432010978,-0.3536919559919161
1729841852.5799983,1.8152236835174516,-1.7543331250124528,14.377890163737888,-0.060548039946136514,-0.062180716953275726,-0.0037792079839486887,0.9962194591980583,0.3524007914376948,-0.646196675103341,-0.2543584896798908
1729841852.5880027,1.682896221829221,-1.8264058515699715,13.692864811133356,-0.06612538243335533,-0.06044325377427521,-0.00401300224192813,0.9959708543347177,0.49665281604217804,-0.07398442976448732,-0.12281678950559223
1729841852.5960302,1.7033379540447982,-1.974276100053311,12.311958507041343,-0.07922631584371417,-0.06761509498262075,-0.0053862698759754276,0.9945463176268596,0.6202390661520647,0.34469005831760446,-0.005153973807968254
1729841852.6039977,1.4759434071925037,-1.6844749666726115,10.6631612358166,-0.07807037814624841,-0.06767825531816608,-0.005312173022225549,0.9946338274113609,0.7131211789223262,0.6840125938895001,0.16079828937810123
1729841852.6119704,1.4319228631631584,-1.244837902366848,9.243405414585663,-0.06668203743392655,-0.07592474794059902,-0.005088931480441174,0.9948683537585283,0.7875808092888124,0.9037823375681946,0.31528366521834494
1729841852.619995,1.18668050500727,-0.886005857875187,8.332175720675226,-0.05280768107531525,-0.07018714431413056,-0.003720826857424587,0.9961281388656643,0.8629062719339704,1.0139339906408478,0.4390502652092195
1729841852.6280131,0.2827279453383464,-0.7185906643833153,7.492387621125838,-0.04778151597421268,-0.01875011910146902,-0.0008970920135801923,0.9986814081531737,0.9119327600742234,1.0340504558465402,0.46861276875023095
1729841852.6359653,-0.3173438504727734,-0.6428018253878017,7.211654356122769,-0.044423691675925116,0.021877870505491618,0.0009730900271669556,0.9987727206406002,0.9447541734500715,1.023133071651006,0.4544235162651854
1729841852.643966,-1.184478839580539,-1.0498326357600247,7.604175846095536,-0.06833369837575755,0.07629338514140621,0.005241043737800685,0.9947272774537222,0.9661497817214285,0.9723108747416342,0.3982326778904106
1729841852.651974,-1.7500102444221515,-1.467391322178671,8.219169703213963,-0.08773110905452244,0.10272083063508998,0.009095563577887014,0.9907920842340745,0.9785614566227807,0.9452230770877075,0.3525988531446088
1729841852.6599762,-2.2952304301005566,-1.7902314241665773,9.086878223295566,-0.09636220380001576,0.1205938818795849,0.011762502514323488,0.9879438672650473,1.0077186546981558,1.0115542704189855,0.2937174937489374
1729841852.6679916,-2.1473529321325993,-2.0720421064530714,8.72524002357695,-0.11547929944456542,0.11644631405524918,0.013633003940678703,0.9863665285005833,1.07118750018128,1.060718167769917,0.23965831540720517
1729841852.6760077,-2.033247895754169,-1.6650835963913742,8.186955240952809,-0.0994123418351069,0.1184827234061897,0.011922970493040018,0.9878951732444765,1.1318303807286423,1.0595668217552094,0.1880667556363744
1729841852.6840284,-2.38400958462047,-1.5238591617410744,7.881222623331451,-0.09431939596234712,0.14319170653237456,0.013710105356566195,0.9850949293021237,1.1660876587497495,1.0065161365865551,0.0421755031791274
1729841852.6921554,-2.907388754922673,-1.7891567836657383,8.022197377709809,-0.10785065030462038,0.16816226644808838,0.01851283568991758,0.9796667618566176,1.1555666510756855,0.9465901814288685,-0.11857793886669024
1729841852.6999993,-3.2654695676508694,-1.5540103433928025,9.208354414174712,-0.08226664503374118,0.1668173100891642,0.013968642585623388,0.9824505388027548,1.080292256514398,0.8782821636631422,-0.36231876536004376
1729841852.7080142,-3.5171887608541934,-1.1110136498833378,11.750415805243108,-0.04660403280749564,0.14414273103595107,0.006796227501815403,0.9884355054869887,1.054709362604879,0.7708897034156293,-0.5328275947593917
1729841852.7159677,-3.6323072518738444,0.08349519019695048,12.3708838325111,0.003338823848152292,0.14230685727265788,-0.00048002570655342837,0.9898168417458916,1.0704350007458958,0.629404326142494,-0.618105289940519
1729841852.7239687,-3.620454330372353,-0.17328190077440786,10.91279747968244,-0.007832743723016771,0.15946040549788698,0.00126524246380735,0.9871724400355425,1.0734850327085754,0.4142519409712311,-0.6637379362501892
1729841852.7319617,-3.306645344805443,-0.15496563582597284,9.56604852076845,-0.007982363755995335,0.16561142128531575,0.0013405263485756149,0.9861578686994458,1.0301919053712079,0.23705753292326376,-0.7068680563100864
1729841852.739965,-3.1269790794418593,-0.06137591958152118,8.584419525058726,-0.0035180558969504995,0.17376993268092966,0.0006207807453976483,0.9847797969140295,0.9088614552012922,-0.007182691819214826,-0.7191240463792398
1729841852.7479682,-3.0838227650479277,0.27298414307530605,8.984726253609455,0.014970636556932945,0.16447447847912414,-0.0024965792409653307,0.9862645654499577,0.7888115882770574,-0.28654212584085587,-0.6651782715701993
1729841852.7559688,-3.3821038811967257,0.12237079712448048,9.665203976042626,0.006236854884028056,0.1674952240638246,-0.001059634490092198,0.9858525897575723,0.722315638921523,-0.5099231843053667,-0.6438787482827877
1729841852.7639947,-3.1700994197824883,0.5003086342805476,11.096772399053311,0.022299477669645018,0.13851655932504645,-0.0031197192972228487,0.9901041174744798,0.6913575605989049,-0.6763042640551875,-0.6634514789814552
1729841852.7720287,-2.777858619154649,0.4950731957050473,12.395528297830422,0.019831982889003605,0.10990016250824408,-0.0021932628376706955,0.9937423390061816,0.6476669999790742,-0.763787900122681,-0.6100645379969648
1729841852.779997,-2.089052344344352,0.4900165712316221,11.925008570495129,0.02045260832630018,0.08651310249396517,-0.0017764548450139655,0.9960391649517117,0.5069420370738893,-0.814575321517329,-0.37327545384303346
1729841852.7880232,-1.4416156570948924,0.24804127086397326,10.311520611047078,0.011994631358354735,0.06937236678048568,-0.0008341660536348562,0.9975183746241699,0.2671301868971368,-0.87271762834915,-0.16734849413136985
1729841852.7960067,-0.8319294113467791,0.23166413995979018,9.215098626393871,0.01255360058087619,0.04498455343278837,-0.0005653350984078182,0.9989086432007358,0.06534922843224902,-0.9301645857057301,-0.030170236337586684
1729841852.8040116,-0.2990023880190049,0.4406678931555616,8.279757463189839,0.02657845370045359,0.018015555548968932,-0.0004790726835813662,0.9994842650319807,-0.10297094346896915,-1.0331688600150652,0.17132993554805206
1729841852.8120391,0.17230679106555014,0.32449519756325884,8.076485913460777,0.02007555152222098,-0.010654625148211645,0.00021395274666675257,0.9997416693417615,-0.21332822796186474,-1.1290266295176288,0.3611918286362844
1729841852.8199663,0.5089618358697988,0.5394621576004552,8.136482309795216,0.03307960996390449,-0.03114546066154162,0.001031345293042303,0.9989667842384464,-0.27741414835029193,-1.1699393788221477,0.5759975090557253
1729841852.8279645,1.0506920783285199,0.2025306905563669,8.329539776502129,0.01212981734898431,-0.06267479388143919,0.0007617878509776159,0.9979599979068647,-0.3116087999687279,-1.1434042210294155,0.7555380346213716
1729841852.8359623,1.551704045825237,-0.07624264279508612,9.146396502620027,-0.004152496538731106,-0.08392351051199022,-0.0003497289081139992,0.996463485956977,-0.3061584971906056,-1.0116954296361036,0.9326498299790705
1729841852.8439753,1.369161331303736,0.14483286647138585,12.079075071982173,0.005984946915517495,-0.05639907574560915,0.0003380896941469699,0.9983903096288635,-0.3297067893958402,-0.8845671778549068,0.9818744389577776
1729841852.8519714,2.280044450149429,-0.5408599554101372,11.775359222876803,-0.0228386976408108,-0.09536217343521035,-0.002188500344898391,0.9951782052647782,-0.41364893479875414,-0.7797689926682325,0.9594750168466339
1729841852.859972,1.0069810597380946,0.11577771205665204,12.723671737339362,0.0045458673046365515,-0.03947655991058493,0.00017959705951483152,0.9992101400871445,-0.5521320647631431,-0.4678613956009395,0.8783506438074848
1729841852.8680277,1.4165412591338724,0.0529466357789131,13.202876683761039,0.0020021276106590054,-0.05341477800478202,0.0001070963068615431,0.9985703988733652,-0.6543779955075679,-0.12576565498838416,0.7905125343294885
1729841852.8760061,1.4362647420525891,-0.279238814186949,11.821162254153107,-0.011786071850275748,-0.060395723539675795,-0.0007131800471309065,0.9981046720974106,-0.7374357470887865,0.19144827554366334,0.8059200784766157
1729841852.8840933,1.1777934643721784,-0.15389633904927877,10.476901399122722,-0.0073319975371982,-0.0559373375701408,-0.0004107866914197805,0.9984072752799695,-0.7238425788796747,0.425622710193481,0.8432601490213861
1729841852.891971,0.991346656015885,0.15282844657043274,9.788379027950196,0.007795577725010084,-0.05043782202479827,0.0003937050774096643,0.9986967007423425,-0.6875911338977136,0.5899660144252454,0.7886142902236206
1729841852.8999722,0.6771685307189059,-0.018196788258912255,9.173434405295508,-0.000991118311211802,-0.036833967745004303,-3.653162827965095e-05,0.9993209070013963,-0.7028753022557337,0.6804838857965254,0.5753341888850599
1729841852.908147,0.42473647121454666,-0.618327034136988,8.644056120472227,-0.03568649138186588,-0.02446786350541694,-0.0008739910614385351,0.9990630781527045,-0.741844107572888,0.7305377080046731,0.38436399898554285
1729841852.9159732,0.15165179117599362,-0.8158388889392241,8.29937467081849,-0.04897151650296037,-0.009080476639611703,-0.000445237340934241,0.9987587983487846,-0.7796988528528896,0.7426910187481565,0.17868421189295783
1729841852.9239678,0.2159684013657524,-0.6228603658342375,7.765517854248907,-0.04000389115454173,-0.013845999424176412,-0.0005543909025314078,0.9991034329053067,-0.7985804894677323,0.6793184549915492,-0.0328415030852337
1729841852.9319577,0.2701206782706233,-0.5997288562192925,7.543366032373563,-0.03965166444466496,-0.01782564349706272,-0.0007074855045396417,0.9990542985268339,-0.8103351614981,0.5961717702226095,-0.19892041772665553
1729841852.9399655,-0.14007584254934474,-0.514023900645638,8.17933193265656,-0.03137451014576509,0.008540790331778231,0.0002681048943628087,0.9994711717370278,-0.8105769237329281,0.47476782903562437,-0.3615698956078893
1729841852.9479685,-0.5231420900022631,-0.36826938189128905,9.210218963060731,-0.019972110637933513,0.02833754967171495,0.0005663011896756216,0.999398707913029,-0.811147671135287,0.39170890284834453,-0.47448442454926265
1729841852.9559672,-0.9107597278783109,0.14774542652928907,9.840961609770034,0.007497713101219971,0.04611964487361981,-0.0003461699784479267,0.9989077248781937,-0.8438425642478167,0.33761664652135637,-0.5124348376117445
1729841852.9640012,-0.9850735808676114,0.8282161487398392,10.326428012004598,0.03995869338580622,0.04734585372186025,-0.001895523180274211,0.9980771913785629,-0.9013459155854553,0.3119723337085559,-0.4985957401634989
1729841852.9719722,-1.4350002337256451,1.1579687676130441,10.833904263257446,0.05309597934243055,0.06533589903964829,-0.003481454871705043,0.9964436345053971,-0.9490443182933614,0.34000613229000287,-0.4673050183756018
1729841852.979987,-1.8694378794931994,1.3172736922084514,11.161134929780639,0.05849874621069722,0.08218059397963134,-0.00483216674800568,0.9948873789678161,-1.0112928747736056,0.5347648571300003,-0.400427608357654
1729841852.987972,-1.976392720371701,1.3209193032156958,11.165458356550024,0.058612703895476015,0.08674274344744853,-0.005112386344625574,0.9944918857925059,-1.062689780689999,0.7469746658014939,-0.3496589108103345
1729841852.996004,-1.8595639793909895,1.2220713597614488,11.10867621143978,0.054564011435332536,0.08222461804954112,-0.004508557186658871,0.9951088150321987,-1.0573442690155628,0.9641211539728786,-0.29493335877860705
1729841853.0039747,-1.7099792396853748,1.261403702087338,11.028159412166602,0.056739019667858825,0.07622676088616466,-0.004344733476650147,0.9954653624626779,-0.9830467217467415,1.0722731636796838,-0.16078379293160702
1729841853.0119922,-1.7808793272584904,1.2850031074828714,11.18479299471207,0.0569793484346271,0.07823291703395804,-0.004478731340639307,0.9952953860587829,-0.9154809300664991,1.125670737844292,0.003992578746075268
1729841853.0199704,-1.753269271159782,1.102838214587379,11.089152372754976,0.049385868909435485,0.0778508467800326,-0.003861205216636301,0.9957335852033751,-0.8345008992194606,1.11428889607393,0.2539783735717059
1729841853.0279777,-1.9143530006841505,0.9485282876391462,11.169434595039704,0.04218907609871286,0.08439628875628805,-0.003576580544818688,0.9955322980063022,-0.7620742372693639,1.074255966217674,0.4618636988259205
1729841853.0359678,-2.4879282091018964,0.9732582128178626,10.090174366642962,0.04769879940822378,0.11990773561462328,-0.005767778930755561,0.9916217485518324,-0.6990364972720522,0.9144410786975326,0.6070280169286268
1729841853.0439672,-2.5902589664767626,0.8772446310598582,9.140948820425232,0.047349605674286394,0.1368756968564629,-0.006550218180636848,0.9894342591068561,-0.6271586483567028,0.6665807942435023,0.6319758588167941
1729841853.0519848,-2.402181607913401,0.8591408093976336,8.923839977069592,0.04754357295440433,0.13037551000305178,-0.006259204782506568,0.9903043256583625,-0.5457198334759102,0.4808295882238873,0.6418362832121499
1729841853.0600183,-2.272575781154291,0.591620098431549,8.683920235021052,0.03371662526456113,0.12727592643642252,-0.004329043783559044,0.9912846650233421,-0.433428725389592,0.27444998090608536,0.7047950060852757
1729841853.0680356,-2.3032696203039023,0.56781658664682,8.085309494528255,0.03470001171431298,0.137909672581654,-0.00483466009929979,0.9898249630400174,-0.3443438674032374,0.10635045012335287,0.7647061230051768
1729841853.0760078,-1.983624649379607,0.5195368160017638,7.760140713806797,0.03314764401066206,0.12446745625337452,-0.004160496815793799,0.9916611196858544,-0.26322309861639265,-0.020476362095470532,0.7457387752285154
1729841853.0840333,-1.4154691658484673,0.3959979880385583,7.784827157776265,0.025302730739824312,0.0896663152227144,-0.00227872008807093,0.9956477947378024,-0.1864550932877917,-0.14084421581881587,0.6871067697402331
1729841853.092299,-1.141852942380174,0.22754314585047875,7.657423445544665,0.014810493483495075,0.07390539351714019,-0.0010976986633322876,0.9971546706251225,-0.1323061789228525,-0.2577623845063364,0.6191494317146872
1729841853.100081,-1.1634732571273232,0.16262268560599039,7.857272089787736,0.010317826685286323,0.07341829735994287,-0.0007596080344159579,0.9972475715993965,-0.08491767815271792,-0.4024090464747042,0.4587561216285288
1729841853.107998,-1.2817903190224875,0.11169940115851609,8.076780065396079,0.006892089273564459,0.07860359546969162,-0.0005434374469794927,0.9968819782503963,-0.056910267752099196,-0.5147384473434469,0.2956867959272948
1729841853.115976,-1.1698635493236489,0.1747587154021409,8.057889566337257,0.010812753844397916,0.07200419760957673,-0.0007806359314282619,0.9973454118250327,-0.04819393267950656,-0.6413070064079147,0.057793170285545994
1729841853.124073,-0.776138381059033,0.35840118505183144,7.7405762947339944,0.023102251803067957,0.04988020386748913,-0.0011540908049589326,0.9984873155419549,-0.021679628562849395,-0.7734392299595837,-0.20200777200156195
1729841853.1319776,-0.679485236887373,0.5830295061971145,7.914346404281803,0.036724148138136445,0.042665432645137995,-0.0015693422020258117,0.9984130082114236,0.02317587808656305,-0.8710232367334524,-0.4004573435200299
1729841853.1399674,0.004350963580466907,0.7587473472729562,8.088279738321035,0.04675021249367513,-0.0002674986507734812,1.2519307687300841e-05,0.998906575170839,0.09350956834533775,-0.9708655767595906,-0.5476226304876047
1729841853.1479743,0.4804932295154677,0.8941055726704144,8.11722238644965,0.054801346768513476,-0.029336916773668672,0.0016108196314900338,0.9980649091951318,0.14124375329960898,-1.0328994310825839,-0.6048464281814213
1729841853.1559732,0.5887682460588899,0.33199852182490486,8.900014246078774,0.01863128805157068,-0.0329940736175404,0.0006151639705139386,0.999281685904905,0.1498768313834562,-1.020739696546784,-0.5434004429687542
1729841853.1639965,0.15717583166853705,-0.08666856512771336,10.380760722940233,-0.0041742469436132105,-0.007569554871237577,-3.159837187825322e-05,0.9999626375535478,0.10823077147294108,-1.0338769787754818,-0.4648152258178748
1729841853.1720004,0.6751388217550285,-0.8490308717426437,12.588413723803201,-0.03365284588348975,-0.02671127314394475,-0.0008997415708385879,0.9990761654228757,0.12836628204160738,-1.1128495883768597,-0.401913563253252
1729841853.1800015,0.9983664644397359,-1.8628607215319144,11.750083744535827,-0.07846325659935988,-0.04171977026933176,-0.00328648931923067,0.9960382407922156,0.26560046645264446,-1.129157779650958,-0.2543445298572742
1729841853.1880062,1.0587065974138414,-2.859258720516805,13.474650981584777,-0.10427675160386729,-0.03813530911131195,-0.004001399387671687,0.9938088579182973,0.39519257392155216,-0.855858803543166,-0.1313222148412629
1729841853.1959753,0.23084329804791415,-3.6582104593608644,14.375555451011412,-0.1242666788260011,-0.007720017954847054,-0.0009668647927274964,0.99221835249546,0.5206251252866444,-0.17381461307919832,0.016135554801275306
1729841853.2039719,0.13443583600648285,-3.1174121752747217,12.446718540382236,-0.12239660313370913,-0.005199037720125712,-0.0006411742363653746,0.9924674455334607,0.6324940013914344,0.24647984279719504,0.21486394250546442
1729841853.2120583,0.25352286146717096,-2.7122486088757705,10.134453513145356,-0.1303670409800666,-0.011976990370502658,-0.001574961740906528,0.9913922058515898,0.7294136313566506,0.48205460392601185,0.38560947256488376
1729841853.2199712,0.23351657332561507,-1.6098714932063216,8.917561655006354,-0.08917591794387447,-0.012830258428123699,-0.0011488228081763916,0.9959325882476636,0.8573785794155535,0.6595831158275746,0.60639862768698
1729841853.227967,0.05798882705200966,-1.1500370035898084,8.39284904256436,-0.06803586119188193,-0.0034146832433071548,-0.0002328618519569972,0.9976770055010713,0.9537392910781487,0.7805736850582212,0.7452574716821683
1729841853.2359629,-0.617866076327388,-1.0110846447808381,8.399802178224162,-0.0598196843859358,0.03637689995407302,0.002181412731179679,0.9975437674348904,0.9975079460474587,0.8531680265966093,0.7566311576921979
1729841853.2442508,-1.1694253196245579,-1.1024899506868622,8.526796604786059,-0.06409490938969636,0.0674016768340874,0.00433895461925448,0.9956555780103338,0.9616183900555882,0.9043870526259588,0.5957334850821753
1729841853.251983,-1.7826372413352813,-1.2674664105976643,8.81583778831109,-0.0709739089613849,0.09835849278727263,0.00703298718885294,0.9925919847724736,0.914968942834206,0.9551259011322839,0.44811207414071785
1729841853.2599716,-2.2518391245863247,-1.2457845228722704,8.36030572230306,-0.07324289611306337,0.12945814197597488,0.009589001543604743,0.9888296712247747,0.8895334148701488,1.0132390642311109,0.32037574192133655
1729841853.2679949,-2.377737146626795,-1.3857648763210184,7.921307727815429,-0.08555659185034668,0.14271330069244376,0.012383663312718137,0.9859815557500954,0.8925767707345819,1.0183086577880651,0.20755028736543507
1729841853.2759771,-2.2646128690307643,-1.609574465343392,6.967660592499804,-0.11188249294186474,0.15176102506443373,0.017292176505885135,0.981912358449671,0.9276066090472802,0.8961975358524003,0.10835395008370384
1729841853.2839732,-2.464888888410646,-1.4153757509833789,6.781896459259648,-0.10113076043698839,0.1691810308447279,0.01745452831436061,0.980227365225576,0.973740225661159,0.7220423181244999,-0.0013952795378546212
1729841853.2919793,-2.6101936174702156,-1.445860504300965,7.119350790594851,-0.09846644024147923,0.17075429176255086,0.017152655442359593,0.9802311555965341,0.9980148751377901,0.582642602447873,-0.12173314517792974
1729841853.2999747,-3.139106661204785,-1.786889740080579,8.945810375479956,-0.09701000002007246,0.1641496186085081,0.016223979979685835,0.9815196101354297,0.9827813605214266,0.48495500101364986,-0.3097235612796474
1729841853.3079705,-3.498831856830293,-1.8622203918999098,11.080051386420788,-0.08217485739874915,0.14985283165107932,0.012499018054224209,0.9852081994204721,0.9970542051320203,0.45826919476276834,-0.46295836677957103
1729841853.315971,-3.421137850670441,-1.4613790137043992,11.813042073307551,-0.0608765305057362,0.13921598204642585,0.00857486709646396,0.9883518756145058,1.1239597489848212,0.4622651439009549,-0.565115811554614
1729841853.3239567,-3.34770638838078,-1.1952562290234208,10.426300038906405,-0.05633193846576891,0.15353209886757285,0.00876713711688368,0.9864977164863487,1.179669952346324,0.3497263967891183,-0.6374782200176525
1729841853.3324077,-3.1463484619347186,-0.765277190783193,9.249968619535249,-0.040687648097960424,0.16255114523010214,0.006708834065653284,0.9858380353902553,1.1526480856356174,0.19493668592229987,-0.7026058582300393
1729841853.3399646,-3.1854663769655183,-0.34304753395233767,9.243037232512165,-0.018282195793316844,0.16504985278365283,0.0030599736365633907,0.986111020105958,1.065344725345034,-0.03884055094172366,-0.723803458576066
1729841853.3479705,-3.439738166023061,0.05274525892547237,9.665285715972143,0.0026870877511555387,0.1701198958145394,-0.0004638908023497577,0.9854195986547006,1.008280118494602,-0.22976401037411953,-0.7020411238052575
1729841853.3559718,-3.777851868119696,0.09964248250372093,10.021585477434849,0.004887206940978307,0.17926429154680543,-0.000890538738703636,0.9837884101397479,0.9353035587912977,-0.4911811572379579,-0.6638680093165126
1729841853.3639774,-3.57394522731713,0.23025264770535755,10.072320201255831,0.011255058803320084,0.16960861303743852,-0.001937149493686409,0.9854453254679781,0.864273459035745,-0.7467915396154523,-0.6771477958475383
1729841853.3719785,-3.3666070839000435,0.12498347949235515,9.808034811183186,0.0062805413213641356,0.16455667008173325,-0.0010478106426264633,0.9863470784795682,0.8016479662936979,-0.9222936522379745,-0.6774532466598371
1729841853.3799765,-2.626894371189635,0.005079399218850581,10.46756228441499,0.00024071867558480404,0.1226295027782613,-2.9743702367819165e-05,0.9924524906604788,0.6704208571268229,-1.0518592533148237,-0.6308106103863929
1729841853.3879707,-2.120817500399328,0.20320289832037286,11.403171242719305,0.008869718371535112,0.09179461551088823,-0.0008176772280055713,0.9957381222305233,0.5563523165253492,-1.1589712282018132,-0.5657899932751296
1729841853.3959687,-1.3096006259720185,0.3347662665801143,11.63748867092455,0.014355182170793993,0.05597269937938745,-0.0008048433726020788,0.9983287724473203,0.4453421860182618,-1.2853891621074638,-0.4148211368438573
1729841853.4039862,-0.6533610237765705,0.7034026884148654,10.30636336734965,0.03404758260829373,0.03155776662065196,-0.001075625971186428,0.9989212744321837,0.2961522357903752,-1.4046603087199814,-0.216965927496662
1729841853.4119906,-0.3678351774983641,0.559468788341888,9.320940455712526,0.029964899562434675,0.01967591478825652,-0.0005899660991055751,0.9993571008961013,0.1547040781552754,-1.5000616401293656,-0.06590035721723042
1729841853.4199882,0.6584497431103565,0.5444556577707578,8.395934997304467,0.032347101476810414,-0.039020243863758776,0.0012638171614549089,0.998713917176007,0.0030018439246765755,-1.4985572104932359,0.07071351158832792
1729841853.4279747,1.4430119125166048,0.36450178089292345,7.596004892425649,0.02386271292327111,-0.09359683876368075,0.002243972605350784,0.9953216401205861,-0.09355346741268913,-1.4108137801733034,0.1973792893251763
1729841853.4359586,1.963788028857619,0.6920347367486448,8.43860382656867,0.04062492166616541,-0.11361169841719847,0.004649484657044073,0.9926834238642254,-0.16340597593604544,-1.25046813643145,0.4142821663112177
1729841853.4439695,1.8531982653126182,0.5931100253987961,10.28228249491581,0.02868675889298526,-0.08885968314252884,0.002560290723274093,0.9956276771401232,-0.25767735860988916,-1.1436184986497873,0.5618771850227858
1729841853.4524035,2.244615764607493,0.01062213584474637,9.653651172974875,0.0005464282970364404,-0.11397938384073429,6.26901144116376e-05,0.9934829628863056,-0.3678771359584113,-1.021189177560491,0.6121220907181439
1729841853.459972,1.7439675141844175,0.7696447707646603,10.833421719409925,0.03533791427259336,-0.07947417075398451,0.0028191462182289785,0.9962063744086511,-0.5263717457047855,-0.6156933369665288,0.5664962031951172
1729841853.4679668,1.6964062592430724,0.6930667428298899,11.990675698882283,0.028790229143251387,-0.07006988660726489,0.002023145675180317,0.9971244859987649,-0.6461585351174078,-0.23574932288083936,0.4922947639204776
1729841853.4759781,2.3734407355263123,0.7364236479928559,11.79127260682937,0.031022580307304065,-0.09891833676886685,0.0030853410448735945,0.9946070796211912,-0.7090911174742786,0.014352968766599972,0.4396857891879153
1729841853.4842715,2.1952367960521153,0.4021104412371198,10.961749959361294,0.018239295992419503,-0.09858264938375126,0.0018071862298101548,0.9949600612085453,-0.7281203041840716,0.20655765983980467,0.5009208377471007
1729841853.4919755,1.9784205761664257,0.39234038949813127,10.36491642214998,0.018828845844818635,-0.0940818057919403,0.0017796653105342035,0.995384810600635,-0.7489029975621122,0.3772201824737916,0.5193571942397447
1729841853.4999986,0.978517381100246,-0.30041809784409,10.466263598407174,-0.014331108391865075,-0.046570043577786324,-0.0006681941594819259,0.9988119962685615,-0.8107526607185321,0.5481537959495708,0.38100179656215793
1729841853.5079758,0.6299666383769443,-0.6181503423490321,10.448063249376336,-0.02952942988467766,-0.030040997549232697,-0.000887881981388735,0.999111987167865,-0.861058850517707,0.6422001628057977,0.20944502517150332
1729841853.515975,0.5568268470398385,-0.8655322683977005,9.653520836588692,-0.04467629231179672,-0.028661232240282223,-0.001282286300056898,0.9985894644014548,-0.8746406520001928,0.6479708656055521,0.0013655171559887463
1729841853.5239632,0.5385609300012468,-0.8075812409214328,8.320868295410246,-0.0483310606218295,-0.03212309346302868,-0.0015551660018870877,0.9983134762709763,-0.8708704111687473,0.6250405034747588,-0.16094291306197878
1729841853.531956,0.5711758499929356,-0.8376934894259065,7.1877644794434135,-0.057931185950242034,-0.03930733262114501,-0.0022827271524437118,0.9975438338506016,-0.8630742958708737,0.5878693328158711,-0.29025472580241163
1729841853.5399559,0.4834845676129489,-0.8469022923860126,6.770546111982454,-0.062139369425637234,-0.03529398125822613,-0.0021987727846047088,0.9974408248375288,-0.8600993869379976,0.4953277702793032,-0.4257356618055077
1729841853.5479846,0.5591990071693318,-0.6960862057538731,7.392183336134785,-0.04689244289923075,-0.037535881175197766,-0.0017633357050083963,0.9981928907132805,-0.8561859912709617,0.40617331790186195,-0.5065985333459033
1729841853.5559726,0.1660099267625366,-0.3735984129054488,8.665864335176964,-0.02153971880980849,-0.009565959434382895,-0.0002061053310545404,0.9997222066425686,-0.8683114159604493,0.31734837137404864,-0.5087160395707792
1729841853.5639796,-0.29495847753622806,0.05668080699305885,9.510278690217506,0.0029795640525168577,0.015501417715628808,-4.619322241947422e-05,0.9998754052946041,-0.903256524769174,0.2644790935188227,-0.47593133838874213
1729841853.571987,-0.531795772556893,0.4067856826821635,10.1435805710641,0.020032169108133737,0.026160201783702285,-0.000524330353478412,0.9994568930780054,-0.9850972688434793,0.24935943920270637,-0.3668656047724933
1729841853.5799844,-1.276039867098589,0.8550716732811731,10.745025353136507,0.03962342722972613,0.058836357583677494,-0.0023371920111568342,0.9974782226065686,-1.0793248618030378,0.30243839558649316,-0.21415970200302753
1729841853.5879803,-1.7465283404251692,1.0929186460585476,10.961043021940498,0.049510321816047344,0.07844432929162973,-0.003900652184947256,0.9956806717759413,-1.1409696983163173,0.40920722023408285,-0.10423148769848072
1729841853.5959747,-1.9143785850656483,1.466188449598019,11.566381493095937,0.06278648474086493,0.08112183578467623,-0.005120434533703337,0.994711458787419,-1.1515638164136393,0.6929245867370449,-0.049342500713765454
1729841853.6039782,-1.9265032704241545,1.5730738705400613,11.584580116560685,0.06719734101596514,0.08138311243448983,-0.005499526935259758,0.994399849946865,-1.142169754997937,0.9367993872717535,-0.005766856986385502
1729841853.611979,-2.0178145599107427,1.1736876816990367,11.372359695912975,0.051193996055168604,0.08712116314886427,-0.004483072645566624,0.9948713382941268,-1.0769367095438314,1.0792930570394204,0.11573310301753757
1729841853.6199734,-1.7477081683194926,1.0389220011092657,11.415973442059503,0.045227420644319574,0.07549910538682722,-0.0034279516545580183,0.9961137558808756,-0.9790516537896075,1.1098752409714185,0.3193199278887351
1729841853.627964,-1.5480553673002893,0.8474504760561845,10.874955316456404,0.0387745677435543,0.07037779800445118,-0.002737731385041639,0.9967627617799577,-0.904144398001516,1.1158795395482186,0.49723742086297973
1729841853.6360846,-1.9202721278508765,0.8161251989637889,10.604932238946107,0.03823418679690381,0.08912340202734358,-0.0034237187482231567,0.9952805857249427,-0.8200365588741543,1.085426913777336,0.6699698761741415
1729841853.6439786,-1.9795993704605257,0.5380379929134296,10.491281265975086,0.025501363365042773,0.09296398231653599,-0.0023818075281392655,0.9953399949018796,-0.7495644225090217,1.0139440806320525,0.7778662499754588
1729841853.6519809,-2.174888966758737,0.4920928531211045,9.586077781801848,0.025476225565896942,0.11114280212596474,-0.0028500995239190007,0.9934737623104135,-0.6817397370022202,0.8054609468361521,0.8366444133957807
1729841853.6599689,-2.3267786486099302,0.47027185323008464,8.827956382215874,0.02637795838138206,0.1282795218676146,-0.0034131689061123486,0.9913813180906046,-0.5865565978309992,0.5599007791648569,0.8821278729230626
1729841853.6679702,-2.4236585417050205,0.4449688248286757,8.597180817854914,0.025599660488984648,0.13674051631666165,-0.0035349062874752493,0.9902697577013246,-0.4783639069528229,0.36573877180125636,0.8987756971028809
1729841853.6759713,-2.086503783470278,0.545666368139393,8.382819286611387,0.032244737672589646,0.12136069177282577,-0.00394449686011736,0.9920767613090066,-0.33129011056374497,0.16495493521361376,0.8236263793183656
1729841853.683983,-1.7817390974747447,0.4530954080418389,7.919492975775425,0.028389962404554565,0.1102040165458862,-0.003149162327022824,0.9934984486895085,-0.22559254021035496,0.01724046932745818,0.7432045135463078
1729841853.6919918,-1.7130837050668781,0.26347753901455645,7.772460020084395,0.016838589578711045,0.10817988982958703,-0.0018326162328185867,0.9939870295206077,-0.12471327258966217,-0.11353152628897628,0.6404630662159331
1729841853.6999714,-1.2380611288018455,0.12073697751029636,7.713210086757668,0.007800152688618023,0.079481169545072,-0.0006219519873423663,0.996805655321792,-0.020765325748119276,-0.28011256638147747,0.47537551288243457
1729841853.7079778,-0.845787348667826,0.056640455549146554,8.184752038382726,0.0034552891244672224,0.051461458590998474,-0.0001780512064945813,0.9986689879807629,0.05479983426212943,-0.42220450652171937,0.35248433744046176
1729841853.7159882,-0.8613354145717893,-0.17886025425840268,8.681239997443697,-0.01028680898797455,0.04941399685008332,0.0005089611312578279,0.9987252772583218,0.0818342576254113,-0.580678361177334,0.28428360297428446
1729841853.7239826,-0.7823182128544018,-0.17172017721324476,8.686082489677156,-0.009872977743763629,0.044885672401214854,0.0004436240471849633,0.9989432435935821,0.0763447185088168,-0.7191830602398299,0.21271347786931177
1729841853.731983,-0.49117816282006294,-0.15474686218732187,7.5773601542066835,-0.010203977202603295,0.03235155980196815,0.00033030469959248373,0.9994244075098596,0.058151842887689,-0.8597540379747017,0.06036905701058608
1729841853.739962,-0.253047788805319,0.18631579626182562,7.322014077143151,0.012717927939146898,0.017265215877487975,-0.00021962827869408846,0.9997700327540617,0.10257582550507643,-0.9483535252302452,-0.06381573023722578
1729841853.7479663,0.008343417781261749,0.3090716945539704,7.491544814694094,0.020614879621172928,-0.0005562638353931713,1.1469751207692832e-05,0.9997873359756038,0.15817713925492705,-1.0159866796732802,-0.12811004111082414
1729841853.7559872,0.13596888147930392,0.6231030802089447,8.134113412253956,0.038216496686770546,-0.008326570240963338,0.00031845604560826885,0.9992347402861649,0.21111967033209084,-1.0825336660882852,-0.1471048848077297
1729841853.7639718,0.16250534500086358,0.6599689465140386,8.724119392567218,0.03774182168882281,-0.009279213788667856,0.00035047926183949724,0.9992443786438633,0.23905397842523085,-1.1250159983060604,-0.15467058047271476
1729841853.7719808,0.554077463592315,0.49318595531076687,9.25673042460283,0.026598681558101907,-0.029835452646222442,0.0007942186477401361,0.9992005429950012,0.22261073848707638,-1.1390117659772507,-0.17751467051457315
1729841853.780001,1.1548547484190608,-1.1319902969307272,11.84623963781834,-0.047557883387998004,-0.04829731823789161,-0.0023022190707456046,0.9976975075472684,0.1940144318198543,-1.0886639980982045,-0.1916468146011502
1729841853.788186,1.3446145409459678,-0.5041780368010144,14.95282436252499,-0.016834174034968473,-0.04479459107268884,-0.0007549450439872811,0.998854086067215,0.24113584710028785,-1.0392992846049853,-0.1605369253371275
1729841853.796005,1.4074739211007838,-1.3020860151958429,14.42305237752476,-0.04494690219756451,-0.04837474347897298,-0.0021790559509146366,0.9978150689839019,0.40264968550616387,-0.7934299052863418,0.026276582498788614
1729841853.8040063,0.3527153316643766,-1.522975283433912,14.5584115607922,-0.05208860210841091,-0.012029077112093606,-0.0006274752140208887,0.9985698198469042,0.5361673338354243,-0.39815666192425325,0.188596114452858
1729841853.8119721,0.549929893578704,-1.631566827775191,13.134631907178445,-0.06173965549405604,-0.020721623568251805,-0.001282068580954805,0.9978763378076086,0.6286229346153793,0.15146378920613107,0.22298570452891897
1729841853.8199892,0.6196563370261287,-1.4508372438819115,11.331781417256288,-0.06360259927447047,-0.027035392181470056,-0.001723644947629777,0.9976075510857062,0.7053807981564539,0.4654855276102664,0.24574790888186568
1729841853.827986,0.5690760190125522,-1.18007262098735,9.901714781750258,-0.059249748992745425,-0.028449420978103823,-0.001689276170586447,0.9978362811785944,0.7756998497844345,0.6202690557972472,0.29686595690229245
1729841853.83596,0.5483046348450313,-0.7588006477877225,9.577342350495467,-0.03950479063848416,-0.028478623855709026,-0.001126379275989284,0.9988128306993364,0.8349188832197041,0.705051061541657,0.3390304173740234
1729841853.843965,0.25428368911014376,-0.6712373784187272,9.81511171156681,-0.03413132317531024,-0.012912731500460493,-0.00044102240431360886,0.9993338379354211,0.8623621921130873,0.7669882065863156,0.33665923966202993
1729841853.851985,-0.6377557545514918,-0.789884835498502,9.620430314293602,-0.040925967984728966,0.032953159558556676,0.0013505067451759349,0.9986177099126334,0.863503335236484,0.8454424295749279,0.3003299479949473
1729841853.8599656,-1.4001891582973012,-1.051172921562773,8.759503599953113,-0.0594885685177973,0.078476959732186,0.0046913364619391145,0.9951283677843261,0.8782357931387692,0.9142251565026589,0.22276697494317152
1729841853.8679676,-1.852621377058459,-1.1852008574298512,8.328659990782414,-0.0701871418004197,0.1078984300099511,0.007636835931982511,0.9916518404481602,0.9070827007688557,0.9818875764699434,0.14472812656391573
1729841853.8759806,-2.181780968324919,-1.524430818412989,8.440297401940152,-0.08850469145546581,0.1237314450088178,0.011080467262564788,0.9882988780483594,0.9652570912472627,1.0901697482227775,0.05107891077553878
1729841853.8839865,-2.537054612489092,-1.9657130198563872,8.2300312963887,-0.11566750046940265,0.14414265645802993,0.016967393494575614,0.9826271070362264,1.0171893279927882,1.1389628289389204,-0.0280978820164371
1729841853.8919775,-2.238577904212205,-1.8677607892087542,7.829735542969939,-0.11569995049711918,0.1342844224216166,0.01578871123777658,0.9840385825501494,1.083680945141452,1.0745868638469593,-0.11391606322320547
1729841853.8999825,-2.446155447361307,-1.7187280482322838,7.754039744971417,-0.10758454152973008,0.1479484152207748,0.016192350649500364,0.9829926961264476,1.1269814359223467,0.9376268805940533,-0.2011649371100771
1729841853.9081488,-2.7291981231531124,-2.0468571731776515,7.592503485654724,-0.12937798719947047,0.16481767143707135,0.02181330144884898,0.9775585156348324,1.1380625782397122,0.8218213757868092,-0.2879951564206247
1729841853.9159741,-3.2143400872707732,-1.705039274609716,8.972804154381116,-0.09235769384859757,0.1676513418370365,0.015777610552150986,0.9813837939218655,1.1391772928311252,0.7208370083542726,-0.42182577980766334
1729841853.9239728,-3.4130090816593386,-1.708962340400595,9.970494033156013,-0.08360687189440753,0.1613996065816167,0.013724055961889697,0.9832454974497907,1.1568737240444542,0.6074608202734585,-0.5327738382651528
1729841853.9319813,-3.782883392110837,-1.689289524601685,10.178134829317436,-0.0808243298340473,0.17422306351665506,0.014350115616220394,0.9812786688945958,1.17345124363292,0.4402493231043167,-0.6580879018214068
1729841853.939965,-3.741685215930565,-1.3408610817043705,9.722125404426398,-0.06729177344980404,0.1806915714983015,0.01239257116184602,0.9811568668645463,1.1514710007763473,0.20668143556521573,-0.7779737964086724
1729841853.9479654,-3.499812219646229,-1.161013276219888,9.171271197245682,-0.06184789017516638,0.1796127723662272,0.011315448886719237,0.9817260570547623,1.1238093929726944,-0.014766098697492888,-0.8503310232224939
1729841853.9559689,-3.2653846999517997,-0.9223811822846671,8.823759841150144,-0.05121224230611338,0.17518705641822072,0.009125393879230689,0.983159971056617,1.0706030830047681,-0.28598388923027834,-0.8916169090034767
1729841853.9640033,-3.283224338037486,-0.39924212245673774,9.218591845852197,-0.02131015224062458,0.17005382088895651,0.0036783212912970095,0.9851974651637234,1.0263342852416133,-0.49724323055662123,-0.9308619025617754
1729841853.9719706,-3.256339154824445,-0.23475687015373015,10.35331667123202,-0.011198307055877958,0.15172775786826767,0.0017191089366595767,0.9883573898523825,1.0146721587348915,-0.6486888589172247,-0.9778218520771664
1729841853.9799867,-3.061361180882948,-0.27852071755122243,11.09735849028804,-0.012427892137360714,0.13412816437518446,0.001682264823163311,0.9908846315305482,1.0034179822162383,-0.7284882943355739,-0.9357589616451658
1729841853.9879782,-2.8354382209809406,0.04046485340481341,11.156162332942355,0.0017989507449887381,0.12412261412134908,-0.00022503103206405846,0.9922652315792055,0.9681442421870902,-0.7601917332510264,-0.8522016889656671
1729841853.9960043,-1.9299091911334862,-0.06095466705867446,11.42104857774393,-0.0026587739120083626,0.0835993328675171,0.0002230533316175163,0.9964958769170107,0.8243812604685361,-0.7357934103311705,-0.7156522428811753
1729841854.003971,-1.3355952778636855,0.15951231573159222,11.302731772378777,0.007043146755774744,0.058768990969764436,-0.0004146456358789793,0.9982466768555601,0.6895948044307321,-0.7186002762104848,-0.5932820193915873
1729841854.0119715,-0.8813235021674299,0.6856386785014553,10.201037874462422,0.03351730337397839,0.042956773035868104,-0.0014419386231865905,0.9985135085905892,0.5491263222033653,-0.7661782440969098,-0.445789814603441
1729841854.0199697,-0.5462717734195985,0.3666116360559513,8.78919989508761,0.02083178872525344,0.030997786266428132,-0.0006461902882815787,0.9993021346235574,0.3754503199599186,-0.8849713178587154,-0.27726476017569135
1729841854.0279796,-0.061767259608399745,1.1467624442800552,8.472891615519362,0.06721254060813724,0.003603821102565716,-0.00024277254577073133,0.9977321423708626,0.23591244351250196,-1.0115868701058628,-0.14550004309377526
1729841854.035974,0.7008325958951165,1.027076421646158,8.674798039379978,0.0588413859025527,-0.03994868940365862,0.002356610477158859,0.9974649066042653,0.08791051836328517,-1.107989324404329,0.014014208771698358
1729841854.043966,1.4974114642753509,1.2566947970794917,9.478528787006892,0.06565291166124602,-0.07742700398067488,0.005109772218888009,0.9948209107537136,-0.040479812442213825,-1.130072831820598,0.18932680138438246
1729841854.051974,1.4697033946784919,0.9864938594488669,9.922220588854527,0.049390335290272584,-0.07301602871356266,0.0036204040125660626,0.9961004703370039,-0.2077603039554639,-1.0488197426257884,0.4681959020285018
1729841854.0600662,1.2802171930570951,0.9979529172318201,11.011801620890843,0.045096019712013026,-0.05754473616981472,0.0026020106413248882,0.9973205010857354,-0.3817729794963455,-0.8221294434177733,0.630834771738891
1729841854.067992,1.0786582711565225,1.345762668307842,12.41254115808138,0.05392051764972178,-0.043014081835751485,0.002324884925770143,0.9976156381343946,-0.5278982108441534,-0.6094910528297985,0.7177758420285738
1729841854.0760164,0.8528568853013354,2.1654487826253304,12.887150866723829,0.08309621359846034,-0.03246718259612303,0.002708710899914043,0.9960088173430643,-0.6002485074402051,-0.3035438827244225,0.7886708469067129
1729841854.084027,0.7899203640909574,2.3548727815380888,12.539608033462033,0.0926370546107958,-0.030778448046419944,0.002864919075491157,0.9952200035608113,-0.6108805506652597,-0.015255825541537094,0.8248224989116658
1729841854.0922189,0.6939793510229337,2.2856101740498063,12.203231964852609,0.09240552703033454,-0.02779605113694182,0.002580559800511451,0.9953300652680771,-0.6240708175836849,0.32203337249253833,0.7439221853022879
1729841854.1000068,0.3637151740903228,1.9028788729845714,10.631204713579534,0.08842847255555665,-0.01676530480579929,0.00148857343297286,0.9959403164574645,-0.7098862589822919,0.5771924589342755,0.6102439848442549
1729841854.1079953,0.05422629073349052,1.6284685213005083,9.388952575462174,0.08576247745783608,-0.002834772738480505,0.00024401717857301,0.9963115486530465,-0.7741462256653169,0.7213484195086151,0.4708661460262127
1729841854.1159692,-0.3881254572493589,1.5437886457392893,8.917976802845663,0.08558016323153902,0.021348527442114858,-0.001834162128672872,0.9961008542746072,-0.8067425448146635,0.7610160890923954,0.22292307901104316
1729841854.1239688,-0.569500027767584,1.0483774721115422,8.488147937176146,0.06137024056814474,0.0331758704312354,-0.002040988157068641,0.9975614715700886,-0.8305572369188918,0.762255117585176,0.03499375314743454
1729841854.1319687,-0.7930070296000035,0.7247945496731754,9.021055426124049,0.04003573806913494,0.043651321105917594,-0.0017506892138194614,0.9982427745444713,-0.8329267304604919,0.6957395049698433,-0.11437318765646534
1729841854.1399696,-0.9201680458850021,0.5160401660832021,9.047749636289662,0.02844496710991399,0.050552655603027595,-0.0014403954044362366,0.9983151997834534,-0.8203006545572049,0.5196093177327935,-0.31041586750431316
1729841854.147968,-0.95001714344897,0.5337213750405463,8.949083902867548,0.029737051463961082,0.05273994997309848,-0.0015712150694935788,0.9981641832535718,-0.8152791493840049,0.3483749359254108,-0.5016858560459533
1729841854.1559713,-1.1862777933936008,0.7380210147215933,9.09171566276545,0.04039964936993319,0.06456465116956142,-0.002615996620897948,0.9970919870863564,-0.7935358835757556,0.20647082118647428,-0.678598598144394
1729841854.164022,-1.411831241465848,0.819420529975534,9.310172910842866,0.04375129748978527,0.0748209125244692,-0.0032858954661708576,0.996231327507799,-0.7702733626157172,0.1417614752932899,-0.766441570760591
1729841854.1720047,-1.6343122507388836,0.9951529271161798,9.617939342208844,0.051340112620672014,0.08351042890725253,-0.004308225564040154,0.995174175856826,-0.7729177624367134,0.15146453476405086,-0.7514626345578463
1729841854.1799994,-1.5142549004921584,1.1463216171095516,9.408274187600696,0.06038727720338037,0.07898624968366942,-0.00479357206019623,0.9950334520908203,-0.8038770165701913,0.1811250138883812,-0.6790474536783567
1729841854.188,-1.3239469283324043,1.4663873501485436,9.546555537951043,0.07594883948100772,0.06786312941982983,-0.005181139500377398,0.9947861706117115,-0.8509738031682341,0.23467926652579008,-0.6206991929994918
1729841854.1960132,-1.4944327224291303,1.3546025992981103,9.932869698503048,0.06752511899334059,0.07375465414970711,-0.005005443385591996,0.9949751528720232,-0.9464909048380608,0.41452626943556037,-0.559297452781527
1729841854.2039967,-1.5213068465922437,1.3229659333581631,10.38851605005886,0.06311994723840064,0.07192245622214968,-0.004560718490299527,0.9954005386769924,-1.020403078236976,0.5875650505851134,-0.4986177652088743
1729841854.2121813,-1.5304881362756588,1.1478819855520073,10.523758425201331,0.054150645446940045,0.07162225710082162,-0.0038941502607235876,0.9959532094828605,-1.0579393412929328,0.7382142260356687,-0.35195622674661653
1729841854.2199667,-1.4105407430935204,1.1261498346417513,10.753104933050485,0.05203596933817318,0.06473084384831455,-0.003380029176411374,0.9965393876573512,-1.0374664029188416,0.8256239008757675,-0.07580429650304385
1729841854.2279685,-1.2751259631900966,1.1392073421913007,10.838519241568571,0.05224515035416002,0.058124088993981936,-0.003046032722861664,0.9969366861680545,-1.0098577976817538,0.8767926355954407,0.1767276341813542
1729841854.2359934,-1.9478111980312454,0.8331620090745461,10.832785827167706,0.038213612275299735,0.08851508969231665,-0.003398331996831678,0.9953357474105275,-0.9541291488849941,0.8589652094205731,0.42360136635948814
1729841854.2439718,-2.2187835669632787,1.0191995455326182,10.498945949425623,0.04809738677441938,0.1033547562523449,-0.005003776513874573,0.9934683678739296,-0.890042275181672,0.774624373082721,0.5742797460351406
1729841854.2519853,-2.117286545207264,0.8557282966555084,9.845659068678811,0.043083671510479024,0.10523020089085225,-0.004563348343104706,0.993503687925489,-0.8256230572104949,0.5230941622699309,0.6676666042707664
1729841854.2599669,-1.8696406026614678,0.6602015397608831,9.518090964888927,0.03445049225342183,0.09654490224280618,-0.003343651724566034,0.9947266284902444,-0.7601530525556806,0.30023441539517354,0.7752072166490476
1729841854.2680163,-1.8165816833742245,0.5826292331827018,9.281806355056402,0.03118768315541313,0.09625373091981139,-0.0030174298008659043,0.9948635297470759,-0.6902213653375258,0.14438268407429347,0.8788950697305232
1729841854.2760181,-1.9001468518214097,0.7158903939135273,8.70596682817056,0.040766513140683594,0.10679912701692269,-0.004382600378767887,0.9934348648445421,-0.5839831537258661,-0.030009466396020576,0.9700547057588267
1729841854.284024,-1.7805370551846427,0.666081360371554,8.169884659890617,0.04042137406399068,0.10665575752997707,-0.004339533032494131,0.9934645591854525,-0.5032126243003889,-0.161888920611779,0.9941008029505425
1729841854.2920024,-1.6639996061576605,0.6838405532834793,7.802745527379683,0.043445971399636664,0.10437512159213964,-0.004563987997296476,0.9935781054226832,-0.431763043326153,-0.27166627756650036,0.8718819515362599
1729841854.30048,-1.0307214861067058,0.4924254489134469,7.827867718039139,0.031337089098734505,0.06525375105903233,-0.002050245697485764,0.9973744188177898,-0.3446215283495601,-0.4120284524951887,0.6555187800364478
1729841854.3080099,-0.7623244114394141,0.26097876544181814,7.841265091272702,0.016614171547619124,0.048405221872970305,-0.0008052681501973332,0.9986892686628915,-0.2706264262290408,-0.5294495822464402,0.49249705234252206
1729841854.3159719,-0.872070374402711,0.25762256932368466,8.324073704421824,0.015447102755506963,0.052137341758554494,-0.0008065644925811732,0.9985201220128375,-0.19941089108462123,-0.6548162780257931,0.2703825177792534
1729841854.3239603,-0.8433469866045172,0.2627914566332733,8.535707898190203,0.01536880086555136,0.049192437950830545,-0.000757035047536582,0.9986707820429841,-0.15327604950627324,-0.7704768513322979,0.028562831368474095
1729841854.3322754,-0.5397664353709134,0.2548794613823077,7.739244834128965,0.01644963152033303,0.034785118580253904,-0.0005726265479752506,0.9992592642788155,-0.11537858308417567,-0.9301194883461515,-0.27914258395648955
1729841854.3399642,0.05514226158018632,0.4026429099836815,7.325771020350426,0.027449992459804413,-0.0037564132815513093,0.00010315311522605669,0.999616114632337,-0.0556050678837204,-1.1135972232156421,-0.5165514007727596
1729841854.3479648,0.5741749321434243,0.5813229615663807,7.286461116848927,0.039764006257105675,-0.03915377202978568,0.0015593426759011448,0.9984404711311754,0.000692164186730293,-1.2798749522503248,-0.6785784336897751
1729841854.355969,1.001234474666914,0.8290706299671722,7.299027619816387,0.0563858653172356,-0.0675713252714094,0.003824937074743632,0.9961125037112356,0.06299173754695682,-1.4132711045266348,-0.7536587702439588
1729841854.3639967,0.9859677319192889,0.5800423352556939,7.935763717885926,0.036401057264413714,-0.06156228691886282,0.0022466912416375467,0.9974367149036661,0.10633114242356118,-1.4311580469189642,-0.7629490070136582
1729841854.3720021,0.610255412100792,0.4866496772764632,9.525680114276478,0.025505587950589773,-0.03193101719679481,0.0008151005827771577,0.9991642561336513,0.11275304252227034,-1.25501227537253,-0.7600093478462373
1729841854.3800445,1.3434663649362566,0.1619846562193935,10.212676467003387,0.00791218804022422,-0.06534215349724218,0.0005181229994362008,0.9978314145211687,0.07957114723429909,-1.103775975868232,-0.7854897162793548
1729841854.3880138,2.1145110262371443,0.7668489980773392,11.487026296461798,0.03318034830377231,-0.09064727062038971,0.003021833337543435,0.9953255775568084,0.12010999878912482,-1.035595769423141,-0.7390528784272308
1729841854.3960006,2.6240641755567395,0.1919588129089035,11.71892632475208,0.008137646341871533,-0.10990113368636767,0.0008998175237803742,0.993908803590596,0.28533672006595273,-0.8290942116473561,-0.5877406578919672
1729841854.4039965,2.4897418000117777,-0.1730865921374704,12.91247275285906,-0.006670244548088872,-0.09508523978426574,-0.0006371429801261837,0.9954465827263963,0.39085810375397995,-0.5080987785249644,-0.4871624541571823
1729841854.4119978,2.0512152264914416,-0.43760366670826345,13.587899181500593,-0.016049511550945642,-0.07479596565788142,-0.0012039675821715523,0.9970689681071928,0.436717641446853,-0.049019540176297616,-0.36466478294285476
1729841854.4199686,1.9058940040589272,-0.9839351602300361,12.559507084583949,-0.03896658744136671,-0.07494570751748722,-0.0029308660542524305,0.996421675803999,0.4744499255376655,0.25963182762694087,-0.22944112130226366
1729841854.4279788,1.4351501646423876,-0.7239575487747405,11.505051183123417,-0.03135334235123529,-0.061858571515951304,-0.0019441575154495647,0.9975904496861261,0.5528546940436792,0.5384744618305308,-0.045289929444097335
1729841854.43596,0.8256559142151201,-0.4044470085128911,10.425380192295925,-0.019370575836740848,-0.039468624024170416,-0.0007652701872854515,0.9990327436430361,0.6650281345509783,0.759416990096901,0.09627616015753077
1729841854.4439676,0.3886121544861033,-0.209867642363594,9.603279716940055,-0.010922594926963802,-0.020214864777024666,-0.00022085709261805282,0.9997359688358985,0.748934111252377,0.8587786822626844,0.1795130536726595
1729841854.452031,0.015534361783458836,-0.2633477607111252,8.887598097498017,-0.014810581894798678,-0.0008734545432772264,-1.2937794033449833e-05,0.9998899357297841,0.7903382059825135,0.829852164778052,0.1843320432667614
1729841854.4599762,-0.25260504455101845,-0.27436685711026887,8.392827420510528,-0.016336850602712415,0.01503372168307941,0.00024566422463731687,0.9997534867025116,0.7985787504235762,0.7844007102307784,0.1569994426594183
1729841854.4680202,-0.7838716851778768,-0.6384326228110832,7.798126327794598,-0.04077962465567257,0.04986371255894604,0.0020376596150344975,0.9979210792072059,0.7920294454287389,0.7375480946751609,0.12697780032822742
1729841854.4760292,-1.2118072652571168,-1.0994047104053999,7.628292821823242,-0.07128096391172555,0.07769942080424745,0.005569625059572247,0.9944097764338379,0.8310945586395018,0.7439174203202149,0.097045493208576
1729841854.4840088,-1.491313529076145,-1.3276250894268335,8.09549445285957,-0.08084349253925797,0.08949423610169217,0.007288420401441814,0.9926741612163991,0.887311761298536,0.7911594019763746,0.05652453567929747
1729841854.4919999,-1.8290056052386559,-1.9316660607361782,9.189365155602461,-0.10291216421736041,0.09552190019907833,0.00992922616285664,0.9900434654631398,0.9716992002079382,0.9135820945531794,0.039874382268046925
1729841854.5000389,-1.9217269947349904,-2.065444384976863,9.175550532570462,-0.10989650286829,0.09999029698442474,0.011112619542703017,0.9888383127959725,1.0406363361964468,0.9942724411441167,0.0447834423724677
1729841854.5080245,-2.2464680950343534,-1.7968761976365084,7.651732107872355,-0.11391105000635798,0.13782615771418597,0.015959182281929843,0.9837548106297044,1.0615654948393745,1.002246093259786,-0.026341192259273335
1729841854.5160947,-2.8543125415909243,-2.0314968196561236,7.388185064283959,-0.1315515768700663,0.1757579665971315,0.0237064062666352,0.9753160134554143,1.017080521789219,0.90273621947099,-0.21502766411979476
1729841854.5239656,-3.3449542168490862,-1.9357220688444554,8.26339427465436,-0.11269284967370938,0.1853824442808522,0.021406125640168187,0.9759484867399266,0.9857069472830432,0.7549124524750719,-0.38783615584079206
