Time,Accel_x,Accel_y,Accel_z,Orientation_x,Orientation_y,Orientation_z,Orientation_w,Gyro_x,Gyro_y,Gyro_z
1729497702.6711454,-0.4963158870119426,-0.12980867470227814,9.836424157492212,-0.006595756574666393,0.025201685945036925,0.00016628061906314787,0.9996606140943491,-2.384355666941305e-24,0.009441664408332481,0.0023158403811967317
1729497702.679064,-0.48477668186536865,-0.12529039769246061,9.84079506578439,-0.006363476125417538,0.024606102382506878,0.0001566309433449137,0.9996769585040411,-1.430613400164783e-24,0.009496209198157773,0.0030922644745661654
1729497702.6871445,-0.49030300741023686,-0.13790232211157014,9.837432106609304,-0.007006285402224455,0.024894044471905817,0.00017447313674718047,0.9996655281011835,-8.583680400988698e-25,0.009954626133514981,0.003983808992049857
1729497702.6950717,-0.49433706323520465,-0.14379353560092645,9.841639255420661,-0.007302389013564066,0.02508750481625427,0.00018326129026167718,0.9996585710291731,-5.1502082405932185e-25,0.010229676294729305,0.0049444257640021035
1729497702.7031038,-0.48933547158370094,-0.15235608718086835,9.846318326201613,-0.007733529591246025,0.024821965360354217,0.00019202631702836928,0.9996619557038291,-3.090124944355931e-25,0.0103947063914579,0.0055207958271734515
1729497702.7111218,-0.4896863989170174,-0.14145246700578662,9.84577388634597,-0.007180548815334296,0.02484161633643006,0.00017843610866904254,0.9996655950752028,-1.8540749666135587e-25,0.010068034388033024,0.005440927803614229
1729497702.7191355,-0.48247493017052295,-0.12892479075034696,9.852390407247034,-0.0065403617086719395,0.02446057207336194,0.00016003229726131574,0.9996793878400352,-1.1124449799681353e-25,0.010723411308902163,0.004967316928016664
1729497702.727157,-0.481499931246845,-0.1348157142939582,9.851811336633379,-0.006839577844445945,0.024412418014940252,0.0001670243214482507,0.9996785614008383,-6.674669879808812e-26,0.011116637461423644,0.002980390156809998
1729497702.7351038,-0.48402739405084133,-0.14361751207246867,9.859125339577684,-0.007280624066482369,0.024521777546508597,0.00017859228487189,0.999672767981582,-4.004801927885287e-26,0.011352573152936534,0.003490994339934125
1729497702.743163,-0.472854602934411,-0.14602554874738743,9.859443598522002,-0.00740254523324785,0.023955848737198297,0.00017739002624969917,0.9996855946587051,-2.402881156731172e-26,0.011068444506382237,0.003797356849808601
1729497702.7511857,-0.4735729534110373,-0.1388512447757762,9.86298643621281,-0.007036377236521654,0.02398389270070499,0.00016881245904185413,0.99968756808748,-1.4417286940387032e-26,0.011749347441373723,0.0022784141098851607
1729497702.7591817,-0.47376454353099734,-0.13263130106468446,9.859366054842921,-0.006723685858000534,0.024002632227067732,0.0001614363217194951,0.9996892715403967,-8.650372164232219e-27,0.013009269325292675,0.0013670484659310965
1729497702.7671852,-0.4765131194291452,-0.14015208264076381,9.871559035981926,-0.007096098636906485,0.024111565505082706,0.00017115211845934532,0.9996840743454812,-5.1902232985393314e-27,0.013765222455644047,0.0008202290795586578
1729497702.7752259,-0.47672574397194023,-0.1396367281000833,9.86881917769267,-0.0070719688680182195,0.024129011472764923,0.0001706935870852405,0.9996838244792081,-3.1141339791235986e-27,0.013793104272392838,0.0004921374477351946
1729497702.783192,-0.46488231039683603,-0.13142664989715933,9.853767733422242,-0.006666481493240849,0.023566786367096644,0.00015715468765495252,0.9997000249611041,-1.868480387474159e-27,0.01295845323951805,0.00029528246864111675
1729497702.7913003,-0.47884522486114844,-0.13583798945001435,9.844976287026,-0.006896237721497894,0.02429483936045703,0.00016759644479571632,0.9996810364297054,-1.1210882324844955e-27,0.01288335268125521,0.0018799297270327964
1729497702.7991877,-0.4817163097213766,-0.1466250788262586,9.846405183836694,-0.0074426833453192995,0.024436228709142666,0.00018193048202843514,0.9996736688001717,-6.726529394906973e-28,0.013689672469221568,0.003256408143529836
1729497702.807201,-0.4796082379812634,-0.14256284514731765,9.851093244579358,-0.007233095815919198,0.02431811110847672,0.00017595186862117145,0.9996780886055138,-4.0359176369441836e-28,0.013747774280539353,0.005359365377814155
1729497702.815272,-0.48217411759344553,-0.14946289141456248,9.850554198700742,-0.007583508543602078,0.024448997492447628,0.00018546996032393372,0.9996722975658959,-2.42155058216651e-28,0.013782635367330022,0.006621139718384746
1729497702.8232217,-0.4844319058588017,-0.16102494432139375,9.84687888884935,-0.00817305851285442,0.024571854949518235,0.00020089458105883106,0.9996646361156589,-1.4529303492999058e-28,0.013377861957942392,0.0069525142612650685
1729497702.8312864,-0.49512396529262476,-0.16317377274518,9.846349644100625,-0.008282432032199596,0.02511440817874992,0.00020808115492452155,0.9996502510997014,-8.717582095799435e-29,0.011857927727923719,0.005874268802607167
1729497702.8395343,-0.5029757219490123,-0.1601535068111705,9.841004273765062,-0.008133485471152025,0.025525891383275334,0.00020768901633332954,0.9996410516522679,-5.23054925747966e-29,0.010520277128450484,0.005227321527412426
1729497702.8472192,-0.5072079356108137,-0.15115874227029605,9.848570959034427,-0.007670827606059207,0.02572098287545393,0.00019737233670816511,0.99963971033964,-3.138329554487796e-29,0.010143376830228576,0.0031363929164474557
1729497702.8552284,-0.5121414654680506,-0.14241000122155262,9.860293575176517,-0.007218295358518231,0.025940286249177047,0.00018731256444411238,0.9996374156039934,-1.8829977326926774e-29,0.00991723665129543,0.0018818357498684734
1729497702.8632517,-0.5131862220542679,-0.14530104223683782,9.860862800379346,-0.007364373850393738,0.025991460973557264,0.00019148072215360135,0.9996350200395065,-1.1297986396156065e-29,0.00935586248247351,0.001129101449921084
1729497702.8712413,-0.498011345048967,-0.14631740634796206,9.861443755667059,-0.007415593429013615,0.025222853520011034,0.00018710710393653657,0.9996543310691628,-6.778791837693639e-30,0.008593347919718327,0.0006774608699526505
1729497702.879194,-0.487230477683677,-0.15099736763690222,9.860116387677579,-0.007653877825046072,0.024680936330644054,0.0001889679750296216,0.9996660611560174,-4.0672751026161834e-30,0.008135839182065218,0.00040647652197159026
1729497702.8871684,-0.4819590580945812,-0.14949578142198508,9.861953588710064,-0.007576418407638677,0.02440992143386425,0.00018500021647967232,0.9996733063329364,-2.44036506156971e-30,0.007861333939473351,0.0023723362204931125
1729497702.8952043,-0.47544432401690495,-0.1371026617242848,9.84725417837252,-0.006958854756385107,0.02411696978564104,0.00016787938713238383,0.9996849093216069,-1.464219036941826e-30,0.007696630793918233,0.003977542101068057
1729497702.9032495,-0.47105664323826796,-0.12894852940761775,9.848729599308669,-0.006544090723396299,0.023891547831608816,0.00015639645067860828,0.9996931250933779,-8.785314221650956e-31,0.008023498968047191,0.005366355690875056
1729497702.9112928,-0.47776142124569515,-0.12788677267386753,9.853206154360594,-0.006487212150841898,0.02422006867395826,0.00015717013959695727,0.999685590398044,-5.271188532990573e-31,0.0086453099339866,0.005773953783297223
1729497702.9192832,-0.47915066622397956,-0.1399389874324455,9.858286289051902,-0.007094819227507652,0.02427737625898873,0.0001722987193619033,0.9996800702501074,-3.1627131197943436e-31,0.008592706452088213,0.006018512638750523
1729497702.9273145,-0.49027928034962215,-0.13591756848485795,9.853194084222158,-0.006894424589782329,0.024853191756873574,0.00017140547906813685,0.9996673228575763,-1.897627871876606e-31,0.008986834424411212,0.00531386782909844
1729497702.9352,-0.492886306002742,-0.14906702790732101,9.853251223482514,-0.007561252478243177,0.02498435383108196,0.00018897740537153832,0.9996592288435814,-1.1385767231259636e-31,0.00922331120780501,0.0031883206974590637
1729497702.9432082,-0.47529690811336395,-0.15097119941040824,9.859510431355135,-0.007653138755007036,0.024078976738515175,0.00018433860048440155,0.9996807482220026,-6.831460338755781e-32,0.00936519727784129,0.0019129924184754382
1729497702.9511752,-0.4762354373484871,-0.15043776115015117,9.857759292260345,-0.007627446619272959,0.024130742581408904,0.00018411492359339047,0.9996796964139237,-4.0988762032534686e-32,0.009450328919863058,0.001147795451085263
1729497702.9592896,-0.4693765297430766,-0.14413219404360633,9.855511507973393,-0.007309524831369787,0.023789494710999278,0.00017394378100292327,0.9996902522940273,-2.459325721952081e-32,0.009927097966538151,0.0006886772706511578
1729497702.9672115,-0.46789480700600217,-0.14034885377967943,9.863260803709817,-0.007112111057421571,0.0236960912431487,0.00016858083589914777,0.9996938955083227,-1.4755954331712486e-32,0.011064539517467269,0.00041320636239069466
1729497702.975193,-0.4679634540278201,-0.14837391675999514,9.866952700487609,-0.007515898413057411,0.023690359674168975,0.0001781093590269995,0.999691075486127,-8.853572599027491e-33,0.01174700444802474,0.0002479238174344168
1729497702.9831972,-0.46992000356903574,-0.14217562691146582,9.859830452079676,-0.007207154077482667,0.023806666319722416,0.00017163141719694672,0.9996905871876065,-5.312143559416494e-33,0.01173079334489719,0.00014875429046065007
1729497702.991189,-0.46103828632110894,-0.14994882097109824,9.849571598884523,-0.007609120613162983,0.02338139233151828,0.00017796564327325352,0.9996976443427101,-3.1872861356498964e-33,0.012146756744482692,8.925257427639004e-05
1729497702.9991913,-0.460737079458681,-0.1546127374068777,9.860415118754542,-0.007837128410542182,0.023340282596336498,0.00018297626244998552,0.9996968426209454,-1.912371681389938e-33,0.012396334784233996,0.0017563117904139604
1729497703.0072582,-0.45816215368106794,-0.15597456627225162,9.864766449182413,-0.007902685094005681,0.023199770704079626,0.0001833955746778759,0.9996995971658919,-1.1474230088339627e-33,0.011694701485160714,0.0031822373815585344
1729497703.0152454,-0.45158937472817196,-0.15200326027116348,9.854209138308276,-0.007709815657575805,0.022892106199932073,0.000176545435311705,0.9997081969494731,-6.884538053003776e-34,0.011273721505716745,0.004037792736245278
1729497703.0231996,-0.4617714971513563,-0.15464830015683872,9.85625445759434,-0.007842227319960668,0.02340245272874405,0.00018358328295931705,0.9996953490809684,-4.1307228318022655e-34,0.012298203702436459,0.0049768160105193564
1729497703.031248,-0.48583728305643875,-0.14354605528941575,9.8562845483359,-0.007279080870765187,0.024620386346974145,0.00017927287962997608,0.9996703553767298,-2.4784336990813594e-34,0.012487202959006254,0.0046888498521597405
1729497703.0391965,-0.4964460319432383,-0.15053165783185254,9.852950720456619,-0.007635727998602821,0.025165149354869385,0.00019222071944230656,0.9996541271695293,-1.4870602194488157e-34,0.01260060251294813,0.00451607015714397
1729497703.047229,-0.49227679397063046,-0.15783548151551777,9.840894776756393,-0.008015989421660076,0.0249843469139943,0.00020034324199025378,0.9996556838159119,-8.922361316692894e-35,0.012668642245313257,0.00483809240159654
1729497703.0552363,-0.49073293185112826,-0.15311980941712316,9.853054243983522,-0.007766965529970971,0.02487570297504304,0.00019327437115773387,0.9996603604689801,-5.353416790015736e-35,0.012283776023270302,0.00460561568680605
1729497703.0632029,-0.4833422700970051,-0.156275910308477,9.855322100833474,-0.007925281631658414,0.02449596315431158,0.00019420178569084097,0.9996684950451664,-3.2120500740094417e-35,0.012052856290044527,0.0027633694120836297
1729497703.071225,-0.4877664191871093,-0.15218406669289872,9.847345428468834,-0.007724010237870064,0.024739953320443243,0.00019115586915814515,0.9996640624904854,-1.9272300444056648e-35,0.012339994511571094,0.0016580216472501777
1729497703.079241,-0.4865901859849219,-0.1437434563731611,9.846868988038333,-0.007296046461858706,0.024681991162136506,0.00018014063264652834,0.9996687124080913,-1.1563380266433989e-35,0.012512277444487036,0.0009948129883501065
1729497703.0872824,-0.48037778224524996,-0.12551098105045916,9.857117611084718,-0.0063641661747050274,0.02434291947422352,0.00015497144902805972,0.999683397703604,-6.938028159860392e-36,0.0126156472042366,0.0005968877930100639
1729497703.0952344,-0.47497439883933745,-0.1289367058177755,9.86278794458052,-0.006534138158653736,0.02405563815220607,0.00015723172215044562,0.9996892550136763,-4.1628168959162356e-36,0.01267766906008634,0.00035813267580603835
1729497703.1031754,-0.4889706207489149,-0.1403295271527747,9.85565565737331,-0.007116423630908876,0.024780603705594678,0.00017640791738571932,0.9996675682820456,-2.497690137549741e-36,0.01228919211213415,0.000214879605483623
1729497703.111232,-0.49425589173645834,-0.12849044700455545,9.861910772353674,-0.006511942515915998,0.02503261314176201,0.00016306549753291049,0.9996654121722967,-1.4986140825298447e-36,0.012056105943362837,0.0018316880091383
1729497703.1191735,-0.5003000963211719,-0.12809076356406138,9.853692833041109,-0.006497046683004825,0.025359251972469007,0.00016481673055217255,0.9996572760497675,-8.991684495179067e-37,0.01191625424210005,0.0036531531742551695
1729497703.1272418,-0.5051237199020782,-0.13263935682007744,9.849001489619587,-0.006730889021909708,0.02561524741872593,0.00017247389136238245,0.9996492007126344,-5.39501069710744e-37,0.011406653159880346,0.00432034221186326
1729497703.1352236,-0.5120880368728875,-0.1324954707814996,9.852172187717064,-0.006721362778001908,0.025959372490734416,0.00017454512865540983,0.9996403872374765,-3.237006418264464e-37,0.011100892510548525,0.004294965572966082
1729497703.143254,-0.5064504002487324,-0.1324091391583529,9.855032287239615,-0.006715087535314894,0.02566671989815825,0.00017241496321650582,0.9996479867243984,-1.9422038509586785e-37,0.010066055998025368,0.0025769793437796494
1729497703.1512184,-0.4961246334597864,-0.1203863318836836,9.866085733427752,-0.006098675528862208,0.025116794813156627,0.0001532303748042201,0.999665908839328,-1.1653223105752071e-37,0.009019464029049441,0.0015461876062677895
1729497703.159183,-0.4889714927223562,-0.12346771465755389,9.869605338982431,-0.00625258765895967,0.024746401181074986,0.00015477947050192918,0.9996741953353941,-6.991933863451242e-38,0.007540128724739822,0.0009277125637606737
1729497703.1672354,-0.47318744031114807,-0.1329779896343761,9.879139127461723,-0.006727780847151128,0.023925540890649594,0.00016101553473996694,0.9996910920539206,-4.195160318070745e-38,0.007078217603616083,0.0005566275382564042
1729497703.1752303,-0.4601257063741888,-0.13030444880992254,9.882944039221174,-0.006590106048748797,0.023257358018145085,0.00015331325719080096,0.9997077784509467,-2.5170961908424467e-38,0.0068010709309418394,0.0003339765229538425
1729497703.183239,-0.4563588088342789,-0.138516551121891,9.869425255319815,-0.007014992307571318,0.02309847538894616,0.00016208286305057724,0.9997085695575368,-1.510257714505468e-38,0.007486163050261356,0.0002003859137723055
1729497703.1912265,-0.4562534518044735,-0.1434438125090721,9.863229346307122,-0.0072690493956546675,0.023107425285605773,0.0001680183213322261,0.9997065467362897,-9.061546287032808e-39,0.008322908383315099,0.00012023154826338328
1729497703.1992335,-0.4547537165904967,-0.14831553066950576,9.856159918575289,-0.007521284380354609,0.023047869199266692,0.0001734005488735468,0.9997060547675466,-5.436927772219685e-39,0.008399265521685313,0.0017748991748061562
1729497703.207472,-0.46606430392890735,-0.1593788472102972,9.855270144260407,-0.008082831057351251,0.023621777604955336,0.00019099037452944163,0.9996882729068883,-3.262156663331811e-39,0.00844507980470744,0.0031933898121938517
1729497703.215229,-0.47141413533586,-0.15428524900000642,9.847553674691012,-0.00783063367669419,0.023911393850786923,0.00018730066616902852,0.9996833955502084,-1.9572939979990865e-39,0.008898258435982749,0.004470174256088501
1729497703.2233434,-0.4703144711917504,-0.15122909007383198,9.849866977763826,-0.007673757631654643,0.023850263069387322,0.0001830786115349865,0.9996860731637476,-1.1743763987994518e-39,0.009170165614747934,0.00523624492242529
1729497703.231223,-0.4756401768556752,-0.14388873089976795,9.848860757947358,-0.00730204601148703,0.02412266336519633,0.00017620077280944082,0.9996823226352975,-7.046258392796711e-40,0.009758999983469078,0.005270197260765332
1729497703.2394884,-0.4711741549415301,-0.13134422975079824,9.838440799250836,-0.006672620304214511,0.023922344727842167,0.00015967397643635182,0.9996915384583483,-4.2277550356780265e-40,0.010112300604701762,0.004864878602307325
1729497703.2475638,-0.4778319282676524,-0.1463230246668852,9.835780126523158,-0.007435407803794261,0.024265677672140898,0.00018048334685114972,0.9996778776304218,-2.536653021406816e-40,0.010324280977441373,0.002918927161384395
1729497703.2552729,-0.47775644944106016,-0.13974799082552175,9.846633571519362,-0.007093528223902968,0.02423545667276217,0.00017196973765936857,0.999681096612119,-1.5219918128440894e-40,0.01045146920108514,0.001751356296830637
1729497703.2632651,-0.4803447839712767,-0.14466151666328178,9.85410331918115,-0.007337310180568028,0.02434787180099372,0.0001787056802983252,0.9996766042487722,-9.131950877064536e-41,0.010527782135271401,0.0010508137780983822
1729497703.2712147,-0.4763911208710473,-0.14808847249796908,9.859064008110252,-0.007507359701139545,0.02413553799274069,0.00018125207710536188,0.9996804902086482,-5.479170526238721e-41,0.010573569895783157,0.0006304882668590294
1729497703.2792156,-0.48575051114567525,-0.14870812500268768,9.868025925618104,-0.007531836199467202,0.024586531156744394,0.00018524298243710404,0.9996693151308488,-3.287502315743232e-41,0.011026732613552241,0.0003782929601154176
1729497703.287207,-0.47939513700967074,-0.1390242695328626,9.867178151806408,-0.0070421014166266085,0.024267936101965877,0.00017095185684069445,0.9996806724451821,-1.9725013894459392e-41,0.011724320305675724,0.00022697577606925053
1729497703.295207,-0.47701843352416184,-0.14542438471776442,9.854219638886578,-0.007375941313698306,0.024179242108486144,0.00017840168568124666,0.9996804128888566,-1.1835008336675635e-41,0.012142872920949814,0.0001361854656415503
1729497703.3033977,-0.4775077727609815,-0.14184242868222113,9.84093786731632,-0.007203990472845572,0.024236763403046663,0.0001746572550183601,0.9996802745457445,-7.101005002005381e-42,0.011968314428652236,0.0017844715252330566
1729497703.3112204,-0.47780137630307323,-0.14759412053941082,9.847812854667135,-0.007490831154898944,0.024234483501869315,0.00018159485756483838,0.9996782203695918,-4.260603001203229e-42,0.011437889271811658,0.0031991332224499923
1729497703.3192067,-0.49545521054746894,-0.1443413710052871,9.85505030923583,-0.007320227864380127,0.025109974553199355,0.0001838736429307469,0.9996578762919015,-2.5563618007219372e-42,0.01069394411624528,0.0044736203022421855
1729497703.3271866,-0.4974283851175439,-0.13688305746645352,9.848858294672356,-0.006946380780365633,0.0252259413632967,0.00017528900867534567,0.9996576258650525,-1.533817080433162e-42,0.010247577022905453,0.004812622488655469
1729497703.3352368,-0.5105832981603701,-0.14222429614979398,9.846100766598335,-0.0072192818710968155,0.02589872526407091,0.00018703781454165117,0.9996384861617813,-9.202902482598972e-43,0.009979756766901555,0.0028875734931932814
1729497703.3432686,-0.5033927755270814,-0.14159831670354825,9.850192333738296,-0.007184599135628609,0.02552415892284111,0.0001834453548825457,0.9996483707756161,-5.521741489559383e-43,0.008967684490375154,0.0017325440959159689
1729497703.3515375,-0.5048245459314833,-0.14529287185806644,9.846182929539854,-0.007375013270346039,0.02560683854542052,0.00018891786475075747,0.9996448685953483,-3.3130448937356297e-43,0.008786131185921345,0.0010395264575495814
1729497703.359265,-0.49299433937529624,-0.1506220671089805,9.865085681796177,-0.007630957439635558,0.02495983124229346,0.0001905323220869974,0.9996593114708355,-1.9878269362413776e-43,0.00867719920324906,0.0006237158745297488
1729497703.3673327,-0.4796712911251777,-0.14591871878101328,9.856076619038644,-0.007399591479655979,0.02430887913673748,0.00017993387668688345,0.9996770938982495,-1.1926961617448265e-43,0.008611840013645688,0.00037422952471784926
1729497703.3754058,-0.4707197815110441,-0.13543526447173296,9.864318130847016,-0.006862393736234833,0.023836573229378658,0.0001636262983173751,0.9996923019386135,-7.156176970468959e-44,0.008572624499883665,0.00022453771483070954
1729497703.383228,-0.4600816320902202,-0.14542576317522726,9.858489130461333,-0.007372975357259764,0.023312089829194006,0.000171930865426505,0.9997010333804573,-4.293706182281375e-44,0.00854909519162645,0.00013472262889842573
1729497703.3911998,-0.4630361289123352,-0.1413644154246676,9.86672331836469,-0.007161097346777486,0.02344217924176921,0.00016792218277651838,0.99969953221922,-2.576223709368825e-44,0.008109287545210092,0.0017835938231871818
1729497703.3991983,-0.4545137598669323,-0.14419485042667557,9.859692822805922,-0.007309736860025727,0.023027666577200612,0.00016837533355958735,0.9997080903787833,-1.5457342256212949e-44,0.007845402957360276,0.00404998672414653
1729497703.407215,-0.4649626492307063,-0.15499107773647408,9.867924374103476,-0.007850287617489035,0.023536082965894548,0.00018482191838991547,0.9996921484256059,-9.274405353727769e-45,0.008112762266112418,0.005409822464722139
1729497703.4152226,-0.4530360502317831,-0.1502160663196188,9.868314321727711,-0.007608286731807174,0.02293264133955824,0.00017452906526711616,0.999708046118367,-5.5646432122366614e-45,0.008698867912825734,0.005800033847605473
1729497703.4232447,-0.45880877979727297,-0.14998468129567755,9.860408004657721,-0.0076026027211912135,0.02324298332172574,0.00017676003333477657,0.9997009217331253,-3.3387859273419965e-45,0.01032760148523982,0.005608470615873442
1729497703.4311888,-0.459638795710395,-0.15415541326959403,9.862607399230178,-0.007812226390819889,0.02327959099793776,0.00018192029270408896,0.9996984528680608,-2.0032715564051978e-45,0.010879151567226238,0.005493532676834223
1729497703.4392376,-0.4685165110688151,-0.15282712979769392,9.854589649499045,-0.007751135711590676,0.023747802999884063,0.00018412990804540905,0.9996879152235643,-1.2019629338431187e-45,0.011635771677880123,0.00499887985194866
1729497703.4471936,-0.468815316797539,-0.14412929423603824,9.858876965968959,-0.007306889637898856,0.023753003698781756,0.0001736141991950233,0.9996911393211481,-7.211777603058712e-46,0.012515433805734485,0.002999327911169196
1729497703.4552493,-0.48431749085977344,-0.14393841638537294,9.855942692032547,-0.007299241270764872,0.024544340160171492,0.00017921382874692556,0.9996720783963992,-4.327066561835227e-46,0.01261754102098507,0.0017995967467015176
1729497703.4631872,-0.4890698121428172,-0.13400766286833313,9.860646472153123,-0.006792435398075524,0.024773378491683994,0.00016832712049992912,0.9996700026536013,-2.596239937101136e-46,0.01182742522721136,0.0010797580480209105
1729497703.4712243,-0.49766728889701844,-0.1457663030432655,9.85461019408289,-0.007392789277984603,0.025222927636880055,0.00018653223621459356,0.9996544982111774,-1.5577439622606814e-46,0.011353355750947133,0.0006478548288125463
1729497703.4791791,-0.5071353379378204,-0.13869569735330303,9.858171032221216,-0.007031617947982597,0.02569291744503408,0.00018072691294023185,0.9996451358757162,-9.346463773564088e-47,0.010643224003726564,0.0020914731431356543
1729497703.487203,-0.5101825455361297,-0.14187535908580992,9.862941156930386,-0.007189290751367044,0.025834368910081357,0.000185797608272906,0.9996403678127244,-5.607878264138453e-47,0.010642835016856256,0.0012548838858813926
1729497703.49526,-0.5012369626244122,-0.13779765197492344,9.869394534246121,-0.006978212580294023,0.025365894624364324,0.00017706989552911586,0.9996538623870475,-3.364726958483072e-47,0.01064260162473407,0.0007529303315288355
1729497703.50322,-0.5104742430043349,-0.1214646580794853,9.854591787686344,-0.006160349167234679,0.025871854721501972,0.0001594360554710888,0.9996462733445023,-2.018836175089843e-47,0.010642461589460759,0.00045175819891730127
1729497703.511202,-0.5097916869158821,-0.11884746672269118,9.86031476987743,-0.00602413706739991,0.025822471633357956,0.00015561282497363375,0.9996483809400115,-1.2113017050539057e-47,0.01021668750683474,0.0002710549193503808
1729497703.5192392,-0.49453810296984174,-0.12278381572697407,9.852016971057319,-0.006229004773351042,0.025072210919666223,0.00015622706634815895,0.9996662239628971,-7.267810230323434e-48,0.009109842934335064,0.00016263295161022845
1729497703.5272396,-0.48203407027799877,-0.11006215467055944,9.849671913591422,-0.00558509941221457,0.024445701536902426,0.0001365746193919339,0.9996855484042458,-4.36068613819406e-48,0.00844573619083526,9.757977096613706e-05
1729497703.5352166,-0.47908063381718985,-0.11463958650350753,9.859517626914618,-0.0058115748639296335,0.02427181222466357,0.00014110140777729642,0.9996884938916344,-0.0017027602458481264,0.008472962206197409,5.8547862579682236e-05
1729497703.5432847,-0.47850567277078265,-0.12768111274194827,9.850581004615568,-0.006478499728204914,0.024264191943189222,0.0001572451596637743,0.9996845769064238,-0.0010216561475088757,0.008489297815414697,3.512871754780934e-05
1729497703.5512154,-0.4834279397952821,-0.14939239811391897,9.853119896714652,-0.0075779479882465755,0.024506092806380143,0.00018576702486971234,0.9996709416654388,-0.0006129936885053254,0.00807340911948304,2.1077230528685603e-05
1729497703.559221,-0.47704391353537234,-0.153081782862492,9.857755694132306,-0.007761473791988099,0.024171520418152584,0.00018766711128752082,0.9996776790077422,-0.00036779621310319523,0.007823875901924045,0.0017154065841653377
1729497703.5671906,-0.4796778422618484,-0.15122527088937018,9.864846735571179,-0.007661829727868539,0.024287397602188517,0.00018614628347909495,0.999675639411352,-0.00022067772786191713,0.00809984603285068,0.0010292439504992026
1729497703.5751922,-0.4917926868024215,-0.14963252337346586,9.86167933528802,-0.0075834612338217325,0.024907735409935686,0.00018895090543863795,0.9996609725952189,-0.00013240663671715028,0.00826542811140666,0.002320306616147648
1729497703.5832255,-0.4724859550990311,-0.1508316563580639,9.858342374122032,-0.007646998583344936,0.023939653615323825,0.00018312433865224706,0.9996841415481797,-7.944398203029017e-05,0.008364777358540248,0.0013921839696885887
1729497703.5911815,-0.46999988238559054,-0.1651980856117133,9.854424836094312,-0.008378567132170984,0.023822658608664855,0.0001996634231781229,0.9996810694837349,-4.7666389218174096e-05,0.008850076968282434,0.0008353103818131532
1729497703.5991917,-0.4610862136110418,-0.162325775195153,9.861890540084321,-0.008226781691433756,0.023354086249204334,0.00019218789631236078,0.999693387885645,-2.8599833530904456e-05,0.009566946795589776,0.0005011862290878919
1729497703.607283,-0.46004757533459384,-0.16874267458974804,9.856074895339656,-0.008556977651099355,0.023314968845360554,0.0001995672283098475,0.9996915276894868,-1.7159900118542672e-05,0.009997068691974182,0.00030071173745273516
1729497703.615222,-0.4584667117046625,-0.15343920094525507,9.85952869330731,-0.007778374510319478,0.02322759351334368,0.00018072715274200716,0.999699926541586,-1.0295940071125602e-05,0.010255141829804826,0.0001804270424716411
1729497703.6231997,-0.4711651429895944,-0.15574928472730928,9.862798072917979,-0.007892719640045362,0.023861851795426266,0.00018839442183391002,0.9996840908572661,-6.177564042675361e-06,0.010835675773965242,0.00010825622548298466
1729497703.6312761,-0.4699256556179754,-0.1585718559926356,9.84943681005938,-0.008046633079407695,0.02383126933073713,0.00019182217405822754,0.9996835926944209,-3.7065384256052164e-06,0.011183996140461493,6.495373528979079e-05
1729497703.6392484,-0.4687031228629727,-0.15835003742370637,9.855067001807111,-0.008030804498828066,0.023755835080176927,0.0001908384829650299,0.9996855155794838,-2.2239230553631297e-06,0.010967298298897213,0.0017417324870220008
1729497703.647278,-0.46916670404004923,-0.1553439042901613,9.850304831211218,-0.007882176860986046,0.023790908744891842,0.00018758307681306945,0.9996858650404205,-1.3343538332178779e-06,0.011262969655420675,0.002747799738061327
1729497703.655207,-0.47016311324434207,-0.1623987705526124,9.846250428023607,-0.008243450713950213,0.023850802759047846,0.0001966755538085367,0.9996815223093813,-8.006122999307267e-07,0.011440372469334752,0.0016486798428367961
1729497703.6631925,-0.48297138723371463,-0.16184328698977057,9.85195807175557,-0.008210370280909478,0.024485261982414196,0.0002011001432407346,0.9996664550359962,-4.80367379958436e-07,0.011546814157683199,0.002691968151550204
1729497703.671191,-0.4920928726234319,-0.15887637502589358,9.863283523473262,-0.008050544794894846,0.024918410002121777,0.00020067559726574005,0.9996570518436692,-2.882204279750616e-07,0.011184989109230235,0.003743631198240281
1729497703.679227,-0.49684750335921535,-0.14775884137295803,9.862656769357397,-0.007487726648336425,0.025160863707182308,0.00018846262232039563,0.9996553552945077,-1.7293225678503694e-07,0.010542204018696426,0.003948938964792295
1729497703.6871786,-0.49754550030654476,-0.1525804891499467,9.866829700042171,-0.007728747603927891,0.02518527718026869,0.00019471823639885137,0.9996529049418285,-1.0375935407102216e-07,0.010582223025838172,0.0023693633788753766
1729497703.6951995,-0.5034709622933019,-0.1573888391442649,9.876276643267492,-0.00796458003065282,0.025460072815161622,0.00020285098397922243,0.9996440911687821,-6.225561244261329e-08,0.01060623443012322,0.001421618027325226
1729497703.7031882,-0.49098508836230925,-0.1593161684767933,9.862791195921432,-0.008073239900902794,0.02486363460858919,0.0002007987134430358,0.9996582326732621,-3.735336746556797e-08,0.009769261149770184,0.0008529708163951356
1729497703.711196,-0.48564834549785435,-0.15376880142787286,9.863079633324343,-0.007792009326387828,0.024593429502389384,0.00019169603804994854,0.999667150139784,-2.241202047934078e-08,0.009267077181558362,0.0005117824898370814
1729497703.7192254,-0.49250194675183756,-0.15474994418680185,9.867562258754372,-0.00783808879623492,0.02492850230020155,0.0001954585657089481,0.9996584896518612,-1.3447212287604468e-08,0.00896576680063127,0.002009829739750375
1729497703.7271972,-0.4877555613616494,-0.1570145710042686,9.853731842557309,-0.007963972992307838,0.0247231663713306,0.00019696108516260283,0.9996625937710605,-8.06832737256268e-09,0.008784980572075014,0.001205897843850225
1729497703.7351866,-0.4829923687994115,-0.15286668327638928,9.8427999710129,-0.007762277966369895,0.0245095039520111,0.00019031249164154206,0.9996694428849742,-4.840996423537608e-09,0.008676508834941261,0.0024262989521582614
1729497703.743262,-0.48276807508824066,-0.1455895473193492,9.852281999209303,-0.00738571373885173,0.024474956295946194,0.0001808241244033563,0.9996731441073704,-2.9045978541225646e-09,0.008611425792661009,0.0031585396171430833
1729497703.7511997,-0.48598538118575685,-0.15750383703418763,9.861801938783396,-0.007982270785051124,0.024613464324261834,0.00019653714667739212,0.9996651549895207,-1.7427587124735386e-09,0.008572375967292857,0.003597884016133976
1729497703.759267,-0.47067751289114157,-0.15339966306035635,9.851233331238786,-0.00778279594977471,0.023865236562294397,0.00018579681616730194,0.9996848723725758,-1.045655227484123e-09,0.008548946072071966,0.004287180716990544
1729497703.7671862,-0.46819655656281,-0.1514159990080888,9.850638250696399,-0.007682659486561457,0.023741178883979742,0.0001824522085273767,0.9996886014552752,-6.273931364904738e-10,0.008534888134939432,0.004700758737504485
1729497703.7752426,-0.4662291424337798,-0.15070464090875954,9.854590765359244,-0.007643526579147394,0.023632152446101843,0.0001806887305241197,0.9996914850211442,-3.764358818942843e-10,0.008952143434121942,0.004948905549812849
1729497703.7832074,-0.468639996446596,-0.1553056495354901,9.860792996813204,-0.007871866232669575,0.023739021453349753,0.00018692887648660814,0.9996871798918137,-2.2586152913657055e-10,0.008776806552169418,0.005097793637197867
1729497703.7912536,-0.4571578198894419,-0.15854509504355968,9.871696940666046,-0.008027274288997419,0.023132655971593308,0.00018574786927992267,0.9997001593442496,-1.3551691748194232e-10,0.008671604422997903,0.0047614364281668466
1729497703.7992284,-0.45721169876960266,-0.17150208998512018,9.878478727143767,-0.00867719823529062,0.02311889335183668,0.0002006684154576009,0.9996950448677632,-8.131015048916539e-11,0.009034173206957027,0.0028568618569001078
1729497703.8072278,-0.469454454564496,-0.1632351358270096,9.852620278278449,-0.008280551039043562,0.02379950762168375,0.00019713564033362198,0.9996824381017176,-4.8786090293499235e-11,0.009677404538794534,0.0034168773599881908
1729497703.8152306,-0.4662656207367445,-0.15827496333214328,9.848597376928005,-0.008032291161249467,0.023647996709998165,0.00019000686558818096,0.9996880605707442,-2.927165417609954e-11,0.010489033399359068,0.004178576723303073
1729497703.8234124,-0.4689013035943904,-0.1555382800012391,9.854563341928289,-0.00788863250667234,0.023767209686152705,0.0001875496026338921,0.9996863778435994,-1.7562992505659722e-11,0.010124630592773725,0.004209906279829969
1729497703.8312285,-0.46521546965663424,-0.15269916917261844,9.847847853789785,-0.007749976746726635,0.023596879809076855,0.0001829317045678863,0.9996914982431794,-1.0537795503395834e-11,0.009905988908822518,0.004228704013746108
1729497703.839198,-0.4749749775947618,-0.1275325264059148,9.858423191033637,-0.006465846745459831,0.02406635278471675,0.0001556576896612748,0.9996894414067748,-6.3226773020375e-12,0.010200493959913827,0.002537222408247665
1729497703.8471973,-0.46862025389084144,-0.12847369186893953,9.847530141426823,-0.006520809507449523,0.023771094572506417,0.00015505389279149679,0.9996961488694867,-3.7936063812225e-12,0.010377196990568612,0.0015223334449485989
1729497703.855231,-0.4741448061430986,-0.12808071048269185,9.845064454485,-0.006502447561475795,0.024056875484650655,0.0001564771681346089,0.9996894319900167,-2.2761638287335e-12,0.01005752874749945,0.0009134000669691593
1729497703.8632264,-0.46453084852960913,-0.10821246803766198,9.846218664146077,-0.005493291900149434,0.023567863796119946,0.00012950308176174722,0.9997071385006407,-1.3656982972401e-12,0.009865727801657955,0.0005480400401814956
1729497703.871232,-0.46402971761385925,-0.11736049718001906,9.839489164796241,-0.005961709965230333,0.02355824008656683,0.00014048888383733633,0.9997046801936998,-8.1941897834406e-13,0.009750647234153057,0.00032882402410889735
1729497703.879238,-0.46588382055854993,-0.11566670968496456,9.850534935645323,-0.005869079808533768,0.023625800082064774,0.0001387028129921306,0.999703634200763,-4.916513870064359e-13,0.009255908832188086,0.00019729441446533842
1729497703.8871863,-0.47848845029411435,-0.12087536150433811,9.851895154502426,-0.006132400710325776,0.024260353901016,0.00014882081408722415,0.9996868543411436,-2.9499083220386154e-13,0.008533375729547073,0.0018211368945273295
1729497703.89527,-0.486051228135453,-0.13764750205885287,9.864203453785441,-0.0069744145260822125,0.02461173773843688,0.00017170865428376098,0.9996727416628157,-1.7699449932231692e-13,0.008951235990886527,0.0036468225054885877
1729497703.9032364,-0.48651875201799055,-0.13813397975093672,9.86488466870681,-0.0069985729043277115,0.024633649392823927,0.00017245695136505876,0.9996720329955691,-1.0619669959339015e-13,0.009627642209152232,0.005167923933527374
1729497703.9112527,-0.4836868041893099,-0.13770760586814015,9.856434851517054,-0.006982976014768092,0.024511490551094337,0.00017121877187604927,0.9996751450151559,-6.371801975603408e-14,0.010033485940111657,0.006506274851812677
1729497703.9192173,-0.47384734984757026,-0.13984598319861846,9.85351974269734,-0.007093579691931827,0.024020732675567247,0.00017044645411998404,0.9996862790280205,-3.823081185362045e-14,0.009425612055763246,0.006883595341321828
1729497703.927203,-0.47440802172494845,-0.1514240767355773,9.85967154288403,-0.007675975587473764,0.02403360996522091,0.00018454014899728366,0.9996816647992268,-2.293848711217227e-14,0.009486577786616233,0.006684297573565286
1729497703.9353697,-0.4618157358865315,-0.16220165551400262,9.858813639841745,-0.008223048724013342,0.023398267913366924,0.00019246430193269967,0.9996923854295526,-1.3763092267303362e-14,0.009523157225128025,0.006139028851449329
1729497703.9432733,-0.4652736920202002,-0.15765487514433904,9.862847881170671,-0.007989286999428254,0.02356377406230383,0.00018831605750515142,0.9996903942632659,-8.257855360382017e-15,0.008693724765311037,0.003683417310869597
1729497703.9512274,-0.4678273060324326,-0.15923636991082218,9.869817409122325,-0.008063695585877061,0.023676111477352782,0.00019097670418064718,0.9996871421033225,-4.95471321622921e-15,0.008621755350882875,0.002210050386521758
1729497703.9592676,-0.4695988946057877,-0.16401598942696205,9.876153907387456,-0.00830034213469333,0.023750165699077883,0.0001971969242514133,0.999683447428778,-2.972827929737526e-15,0.008578573702225978,0.0013260302319130547
1729497703.967415,-0.46683112509355074,-0.17526346694719286,9.876364503856303,-0.008869253782303159,0.023609340522248362,0.0002094638641945147,0.9996818951558237,-1.7836967578425155e-15,0.00855266471303184,0.0007956181391478328
1729497703.9751916,-0.46684640454831794,-0.16597080233628447,9.870505357587218,-0.00840407994437463,0.023624577771015298,0.00019860529043731802,0.9996855562232398,-1.0702180547055092e-15,0.00938849944243942,0.00047737088348869964
1729497703.9832442,-0.475953538529772,-0.14818477510294256,9.86411682783358,-0.007508400002015375,0.02410107598759628,0.00018101820698593723,0.9996813138686041,-6.421308328233055e-16,0.009464310218621937,0.002414872837403378
1729497703.991222,-0.4809389785866132,-0.14086504108715617,9.85693182765718,-0.007142726664573615,0.024371125485267035,0.00017413245467859742,0.9996774476681289,-3.8527849969398325e-16,0.009084106622869414,0.004003064071214217
1729497703.999372,-0.47746589813829604,-0.13360015868549682,9.854775609045477,-0.006775915605512706,0.024201033894371015,0.0001640359764377898,0.9996841351238644,-2.3116709981638996e-16,0.00843029440395587,0.005381668872962752
1729497704.0072665,-0.46293220123649326,-0.13331137206676683,9.860185642526897,-0.006757687137076462,0.023452769290799612,0.00015853370555521883,0.9997020936980247,-1.3870025988983397e-16,0.008463697134069775,0.006634521815473904
1729497704.0152156,-0.4657041510641615,-0.132419839597482,9.862952822283715,-0.006710595621961578,0.023586395361955302,0.00015832637539171752,0.9996992671763778,-8.322015593390037e-17,0.008483738772138118,0.006960543519518563
1729497704.0232415,-0.46521253946662194,-0.13356086127802044,9.861021827647573,-0.00676973946048493,0.023566097535778537,0.00015958431993688945,0.9996993469075671,-4.993209356034022e-17,0.008921453816441155,0.005879086357559264
1729497704.031226,-0.4622839506819263,-0.12299272648360912,9.86680641568034,-0.006230512469945952,0.023404693140261973,0.0001458660227214154,0.9997066468602054,-2.995925613620413e-17,0.009184082843022977,0.003527451814535558
1729497704.039283,-0.4538230327626714,-0.13987560171047797,9.873868470990233,-0.007080645645741551,0.022959958136803835,0.00016261827591172802,0.9997112974928771,-1.7975553681722478e-17,0.009767350320434104,0.0021164710887213345
1729497704.047223,-0.4425215576947122,-0.15431488983488054,9.865177015211328,-0.00781843216827516,0.022408141112963766,0.00017524589481128746,0.999718318637389,-1.0785332209033486e-17,0.01054300086834281,0.0012698826532328007
1729497704.0552704,-0.43310705082776474,-0.13999412677202205,9.86020156191,-0.007096634187279183,0.021943751470717674,0.00015576821009580198,0.9997340072693677,-6.471199325420091e-18,0.010582701135626002,0.0007619295919396804
1729497704.063218,-0.44637253982283076,-0.14863992088743197,9.851709626110845,-0.007541210474808941,0.022633938974046162,0.00017073589553435748,0.9997153623908897,-3.8827195952520545e-18,0.010606521295995918,0.0004571577551638082
1729497704.0711946,-0.4526558920577609,-0.15646101918284983,9.859064313264163,-0.007931961831209821,0.022934603879407843,0.00018196999565391671,0.9997054840368355,-2.3296317571512327e-18,0.011046503453679898,0.0002742946530982849
1729497704.07919,-0.46001720588895345,-0.16139309832611612,9.85605510040967,-0.008184372355410297,0.023313842340651418,0.0001908674432434782,0.999694675575539,-1.3977790542907395e-18,0.011736182809752319,0.0027187171606311606
1729497704.0872004,-0.4629974731915752,-0.16554944664215404,9.85496783319502,-0.008395994749328005,0.023467013533460538,0.00019709015130382271,0.9996893355955448,-8.386674325744436e-19,0.011298610300471707,0.0046110607266129176
1729497704.0952082,-0.4671798352333045,-0.16277601197943303,9.853836632534199,-0.008256270503376097,0.02368149287719612,0.00019558233313545406,0.9996854418466007,-5.032004595446661e-19,0.011461756856365371,0.005320776804739941
1729497704.1032357,-0.45963360548568577,-0.1625484721778942,9.86441065994044,-0.008235977497906822,0.023274684446017303,0.00019174822912702177,0.9996951640231181,-3.0192027572679964e-19,0.011985334851363601,0.005320916390154123
1729497704.1112218,-0.46635861543984897,-0.16313020879501777,9.862614790739656,-0.00826688208338785,0.023618919126493658,0.00019531598557441106,0.9996868345494909,-1.8115216543607977e-19,0.011873791586900509,0.0048953100799406
1729497704.1192129,-0.47374550373656565,-0.1637186709313075,9.86608625237348,-0.008293703533712333,0.023983936180483147,0.00019897974345325974,0.9996779209795759,-1.0869129926164786e-19,0.011381175566760621,0.00293718604796436
1729497704.1272228,-0.4757834350544394,-0.1717331935255814,9.866014347859636,-0.008699656255879276,0.024086689858379418,0.00020961467616080498,0.9996719979145076,-6.521477955698872e-20,0.01108560595467669,0.001762311628778616
1729497704.1352646,-0.49161082397211675,-0.1660074197774582,9.859985701000937,-0.008414628674971248,0.024901983377721936,0.00020961337299823423,0.9996544609565606,-3.912886773419323e-20,0.0104825741259643,0.0010573869772671695
1729497704.1432798,-0.49799479516452005,-0.16592383785280307,9.86929720185056,-0.008402394070420195,0.025201002167765243,0.0002118235100719853,0.9996470699173915,-2.3477320640515937e-20,0.010120755028736864,0.0006344321863603017
1729497704.1512887,-0.49464257289949326,-0.1618035458757443,9.861715993229476,-0.008200114669760665,0.02505110011716234,0.00020549329862941165,0.9996525187658094,-1.408639238430956e-20,0.010329353631862435,0.002934799680588371
1729497704.1592574,-0.4955042815326646,-0.14688152205669658,9.860040310049014,-0.007445262366383486,0.025099656065127308,0.00018693760478283666,0.9996572114420222,-8.451835430585737e-21,0.010880202855199809,0.005166400300049275
1729497704.1672583,-0.49266942438834876,-0.1386465682633148,9.856640698480579,-0.0070303535987576195,0.024965292094429742,0.00017557389731177566,0.9996635821578792,-5.071101258351442e-21,0.010785022327740201,0.006505360671725817
1729497704.175241,-0.48187054379316546,-0.1368180581454889,9.854600931539519,-0.006939181095630174,0.024424187504467593,0.0001695385216188805,0.99967758706853,-3.042660755010865e-21,0.009876533888340373,0.006457356771807679
1729497704.1831956,-0.4658144087954305,-0.13596037224080895,9.845955046228399,-0.006901877936210088,0.023632476842244676,0.00016315792761058463,0.9996968758072344,-1.825596453006519e-21,0.008905750763238445,0.0038744140630846075
1729497704.191191,-0.4655181142713989,-0.12515069355932912,9.85489330483665,-0.006347449953510435,0.023596517979043517,0.0001498224537382256,0.9997014013052021,-1.0953578718039112e-21,0.008323280888177288,0.0023246484378507642
1729497704.1992335,-0.4684527997151831,-0.12393213000278497,9.847806411368786,-0.006290150869084063,0.023762124639163593,0.00014951252552192283,0.999697840890277,-6.572147230823467e-22,0.007973798963140594,0.0013947890627104586
1729497704.2074692,-0.4802692579541098,-0.12559519352901471,9.850976300434553,-0.00637240391493301,0.024352568943570047,0.0001552335976232324,0.9996831101687793,-3.9432883384940805e-22,0.00818979986958061,0.0008368734376262751
1729497704.2152445,-0.47514870443066903,-0.12228346865647133,9.85862431785839,-0.006199625254872527,0.024074852481590036,0.0001493012088497826,0.9996909241529793,-2.3659730030964484e-22,0.00874509047490665,0.000502124062575765
1729497704.2232091,-0.4668091286642608,-0.12867613954349216,9.86584675013886,-0.006518981584126241,0.023635491532624512,0.0001541256678854087,0.9996993761448466,-1.419583801857869e-22,0.009503954899564307,0.00030127443754545904
1729497704.2312446,-0.45773524038215013,-0.11886479261281403,9.85629383987824,-0.006027876177459417,0.02319959400730769,0.00013988447294961204,0.9997126707104494,-8.517502811147213e-23,0.009533583492896867,0.00018076466252727542
1729497704.2392395,-0.46617727704179013,-0.12423073225714154,9.854392816378116,-0.006301111131229264,0.02363110689739251,0.0001489467840394583,0.9997008775629695,-5.1105016866883276e-23,0.009551360648896404,0.0022369091048265234
1729497704.2472007,-0.4695665578754647,-0.13511174135623805,9.858519445930384,-0.006850037105610278,0.02379224727560598,0.00016302775401137777,0.9996934427029016,-3.0663010120129965e-23,0.009562026942496128,0.0038962858316681035
1729497704.2552283,-0.4727972272057476,-0.14092208631764905,9.867938608476198,-0.007137728384383807,0.023932592252262908,0.00017087764341030938,0.9996880786837605,-1.8397806072077978e-23,0.00914273665719393,0.004891911867773052
1729497704.263221,-0.4500753517043079,-0.14033815047223006,9.863773879197046,-0.007111354102859421,0.022793892747393678,0.00016214167258250258,0.9997148797563844,-0.0017027602458481264,0.009316852547474642,0.005063597427973989
1729497704.2714226,-0.44458251204797533,-0.14884633510755677,9.863190402957681,-0.0075429130903110035,0.022517109782707222,0.00016989251387760357,0.9997179879174323,-0.0031501064548190337,0.009847012143105103,0.0030381584567843933
1729497704.2792583,-0.44679347207253517,-0.1556271870508622,9.875290165846875,-0.007876799040076928,0.02260094394596688,0.00017807410828561926,0.9997135197941686,-0.0035928241187395465,0.010165107900483378,0.0018228950740706359
1729497704.2872553,-0.4495565690833648,-0.1505977319082517,9.872494376607733,-0.0076244189395230635,0.022747150657006495,0.00017348374163930524,0.9997121612125229,-0.0021556944712437277,0.010355965354910342,0.0010937370444423814
1729497704.295239,-0.45432688944806576,-0.15883280662541976,9.859564155261515,-0.008051754785549228,0.023017858333106544,0.00018538928347614989,0.9997026123170051,-0.0012934166827462366,0.011321859950490586,0.0006562422266654289
1729497704.3035655,-0.45694966150087074,-0.1553941456451737,9.860425148430345,-0.007876758170162416,0.023148667542642193,0.00018239099354633304,0.99970098659812,-0.0007760500096477419,0.01190139670783873,0.0003937453359992573
1729497704.3111994,-0.4546926020763037,-0.1645836968597605,9.854237979683205,-0.008347728777794704,0.023048508896118737,0.0001924605397866551,0.9996994771534387,-0.00046563000578864514,0.011823428700785586,0.00023624720159955438
1729497704.319248,-0.4526201059235166,-0.16076004111390318,9.84621611544664,-0.008160489649588093,0.022962459987302276,0.00018744058611295513,0.9997030042497808,-0.00027937800347318706,0.011776647896553699,0.0022701986282698907
1729497704.3272595,-0.4525737090619225,-0.16588787281287315,9.856725887529702,-0.008411762418226136,0.02293542860705736,0.0001929849745007551,0.9997015410233344,-0.00016762680208391224,0.011748579414014568,0.0034905694842720927
1729497704.3353202,-0.4585313750953566,-0.16130312651975512,9.861834649949461,-0.008175035470905204,0.02322507389546664,0.0001899233841903056,0.9996968183738045,-0.00010057608125034735,0.01215742838595312,0.005499862182259508
1729497704.343198,-0.46617611753768273,-0.17962125335325932,9.856280781424756,-0.009108240532743353,0.0236239761157365,0.0002152418634947701,0.999679399296505,-6.0345648750208406e-05,0.01197704770765422,0.006705437801051957
1729497704.351192,-0.46765050084487525,-0.16571243218773682,9.861088745954461,-0.008398997931094734,0.02368776600838412,0.0001990163662525806,0.9996841035886144,-3.620738925012504e-05,0.012294509362136911,0.007428783172327427
1729497704.3592699,-0.47715425680575324,-0.1635920638048296,9.855114978529707,-0.008296473729836098,0.024183049584748453,0.00020069964415104371,0.9996731007464813,-2.1724433550075022e-05,0.012484986354826526,0.007437100333630677
1729497704.3672523,-0.4680124600893113,-0.15082767480633524,9.846502894588527,-0.007656027263435205,0.02374183388647862,0.00018182471312793116,0.9996887903292815,-1.3034660130045014e-05,0.012599272550440296,0.007016400568950596
1729497704.3751895,-0.46779462571178987,-0.13407107509864488,9.849236509702337,-0.006803700552356532,0.02372495724114161,0.00016146669412716815,0.9996953585924097,-7.820796078027009e-06,0.012667844267808558,0.004209840341370358
1729497704.3832502,-0.4621572612669177,-0.11300378763731193,9.858777544249136,-0.005729208834990613,0.023417664309847343,0.00013420369645749912,0.999709343336234,-4.692477646816205e-06,0.012708987298229514,0.0025259042048222146
1729497704.3912575,-0.46787280890858807,-0.10610949914488715,9.847503333190108,-0.005385821605502214,0.02373410976940677,0.00012786555618424762,0.9997037904346903,-2.815486588089723e-06,0.012733673116482087,0.0015155425228933286
1729497704.399199,-0.4782453223080434,-0.11801407717247915,9.848160831701174,-0.005989524770132885,0.02425733189602921,0.0001453352647286644,0.9996877944238264,-1.6892919528538337e-06,0.0123227945459716,0.0009093255137359971
1729497704.4075253,-0.48782071267193544,-0.10193306788551874,9.863638801266797,-0.005165265753319072,0.02470394064000039,0.00012764307814004206,0.9996814587926484,-1.0135751717123002e-06,0.012501957465127339,0.0022483555540897247
1729497704.4152565,-0.4763276949371456,-0.11048039493053001,9.843955742918281,-0.00560961517125993,0.024170806173805674,0.00013563068230170014,0.9996920955728602,-6.081451030273801e-07,0.01218376515515875,0.0039031537012260246
1729497704.423226,-0.47469912794861546,-0.12111545497589613,9.848187059032218,-0.006146921642191458,0.024077598503434768,0.00014804883123106227,0.9996911836593217,-3.6488706181642807e-07,0.011141469646253534,0.005747412712431867
1729497704.4312532,-0.46677880294104424,-0.12342634818085017,9.860302655341204,-0.006256562522308856,0.023647422959441836,0.00014799586479029872,0.999700771686211,-2.1893223708985683e-07,0.010516092340910405,0.006428278057693341
1729497704.4397075,-0.4581958852802515,-0.12050332111554135,9.86038940814613,-0.006108420101814767,0.023213216467044148,0.00014183694623777499,0.9997118653229012,-1.313593422539141e-07,0.010140865957704527,0.006411107203388194
1729497704.4472296,-0.44777889103143215,-0.11132747972987168,9.851582913686507,-0.005648447407669917,0.022706847709368344,0.00012829356168535394,0.9997262013420216,-7.881560535234845e-08,0.009915730127781002,0.005975114629343074
1729497704.45527,-0.44631709780245304,-0.12329964701761051,9.85731234464745,-0.006252191282678901,0.02261929343101411,0.00014145910833489021,0.9997245909039985,-4.728936321140907e-08,0.008929268506902822,0.0035850687776058446
1729497704.4631958,-0.45094668568342494,-0.1359896112086132,9.849736675587298,-0.006900839186189945,0.022870616843105665,0.00015787150490378143,0.9997146034645739,-2.837361792684544e-08,0.007911701472913882,0.0021510412665635067
1729497704.4712691,-0.4348102452967737,-0.13354794275055853,9.842557652325036,-0.006782022493746606,0.022069594231527143,0.0001497163956256652,0.9997334218512207,-1.7024170756107264e-08,0.00772685131398255,0.001290624759938104
1729497704.4792476,-0.4382964901956423,-0.1373501853280695,9.843038641687992,-0.00697471658755019,0.022245050580845693,0.0001551951042902477,0.999728206547989,-1.0214502453664359e-08,0.00761594121862375,0.0007743748559628623
1729497704.4871926,-0.44014881696894786,-0.13939211070856042,9.839496512649513,-0.007080922223733418,0.022346868516133656,0.00015827993501873883,0.9997251887171025,-6.128701472198615e-09,0.007975085222870503,0.00046462491357771734
1729497704.4952686,-0.4498793390094938,-0.15617957672787064,9.850539344357285,-0.007924570201705575,0.022813847542961233,0.000180842687173891,0.9997083058789334,-3.677220883319169e-09,0.009041951748342618,0.001981535193994757
1729497704.5032537,-0.4415918624388994,-0.16266075384922238,9.854531421555777,-0.008250100465507988,0.022384866355232364,0.0001847299761729295,0.9997153692303641,-2.206332529991501e-09,0.009682071663625887,0.0033173714237070126
1729497704.5112717,-0.44308372097896465,-0.17181670377437716,9.874883180326044,-0.008696422433112444,0.022413732624217832,0.00019497564732631027,0.9997109376270782,-1.3237995179949006e-09,0.01049183367425788,0.004118873161534366
1729497704.5192578,-0.44182405460886315,-0.15839608061423568,9.861236857658518,-0.008028378922933378,0.022381614268292285,0.00017973890176697192,0.9997172481099555,-7.942797107969404e-10,0.010126310757713013,0.005025464265692809
1729497704.527257,-0.4451383976090678,-0.1608781940228383,9.859992248872453,-0.008155157670561892,0.02255198122379569,0.00018396787320517047,0.9997123924919964,-4.765678264781642e-10,0.010332687069248125,0.005143728866725844
1729497704.5352416,-0.46699887718848754,-0.1468051512769842,9.865949248249251,-0.007437210377830905,0.02364408054398906,0.00017590004472402588,0.9996927600098939,-0.0017027605317888222,0.010456512856169192,0.0030862373200355063
1729497704.543265,-0.47365082045371754,-0.15248711542439367,9.873354170531583,-0.007719156988191355,0.023962080764331244,0.00018502570721021767,0.9996830493042898,-0.0010216563190732933,0.010956498389783863,0.0018517423920213036
1729497704.5512013,-0.48506401155933987,-0.14991078976244868,9.859122350951761,-0.007599596919323039,0.024573915658345637,0.0001868136680955983,0.9996691122049004,-0.0006129937914439759,0.011682179771414697,0.0011110454352127822
1729497704.559274,-0.49430612788286954,-0.13615456589848485,9.852738040698009,-0.006906727441920033,0.02505808449645058,0.00017312785580752573,0.9996621226915409,-0.00036779627486638555,0.011266208477469133,0.0006666272611276693
1729497704.5672603,-0.49554183468870605,-0.12694315091604405,9.84387963105943,-0.0064452990278724,0.025143558245521325,0.00016211237367730897,0.9996630598950697,-0.00022067776491983132,0.010165245578177733,0.0003999763566766016
1729497704.575263,-0.48263630930931734,-0.1400910748757983,9.849099072580971,-0.007109117113727519,0.024476426489464173,0.00017406233275392823,0.9996751145759674,-0.00013240665895189878,0.009504667838602893,0.00023998581400596093
1729497704.583243,-0.4729776327535592,-0.14917693008172897,9.857737401312255,-0.007563579364926732,0.023966066923552385,0.0001813265223786813,0.9996841436294259,-7.944399537113926e-05,0.00953401125632002,0.00014399148840357656
1729497704.5911927,-0.47412561163455735,-0.14744583822481863,9.854061852408446,-0.00747859970492011,0.024033157336643438,0.00017979132618540464,0.9996831725951801,-4.766639722268356e-05,0.009977307368412328,0.0026405352618143357
1729497704.5992434,-0.4649981721565156,-0.14066109912629743,9.85640550622046,-0.0071329111967475016,0.023565973129120236,0.0001681449712577319,0.9996968231497014,-2.8599838333610134e-05,0.010243285035667713,0.004564151587322823
1729497704.6072536,-0.4679014142802375,-0.15071604546210657,9.856854017843604,-0.007642335120540074,0.023711338165765972,0.00018126625402382785,0.9996896189812312,-1.715990300016608e-05,0.009977181574558912,0.005718321382627915
1729497704.6152406,-0.4531233680993925,-0.14669336629093582,9.856883704651475,-0.007438504763586958,0.022963758057135835,0.00017086581225617305,0.9997086101798112,-1.0295941800099647e-05,0.0093918294364316,0.005559443136886907
1729497704.6232672,-0.4495237840432293,-0.15409598559487397,9.847085289929558,-0.00782161203300987,0.022803921076535755,0.00017841528103036867,0.9997093436278005,-6.177565080059788e-06,0.009466308215017243,0.005038426127980271
1729497704.6312344,-0.43946316813101566,-0.16859320414989312,9.861556955207735,-0.008544861633840455,0.022260998744825327,0.0001902712561941246,0.9997156581105402,-3.706539048035873e-06,0.009936685543630662,0.0030230556767881626
1729497704.639255,-0.44970736987275,-0.16891182947235775,9.861620828398078,-0.008560847710310553,0.022778957237554406,0.00019506495188480582,0.9997038526200221,-2.2239234288215236e-06,0.010218911940798714,0.0018138334060728975
1729497704.6472654,-0.4582480925779469,-0.16646938283966464,9.854715967497832,-0.008442905137798674,0.02322722967951922,0.00019616521729113324,0.9996945406840314,-1.3343540572929141e-06,0.010813937840561576,0.0010883000436437385
1729497704.655212,-0.45499282039051814,-0.16189145270184566,9.848178849297527,-0.00821625044659786,0.023077995725649707,0.00018967151564154648,0.9996998866492892,-8.006124343757485e-07,0.011170953380419294,0.0006529800261862431
1729497704.6632798,-0.4616587830546233,-0.15531397196290425,9.862213090828515,-0.007871223430938342,0.02338261031964521,0.00018410579471513737,0.9996955854065758,-4.80367460625449e-07,0.01053378258140986,0.0003917880157117459
1729497704.6712117,-0.4639824194909772,-0.14945212219141443,9.862732770268593,-0.007573779843474125,0.023499139511231316,0.00017803158176985605,0.9996951518367339,-2.882204763752694e-07,0.010577170163466232,0.0002350728094270475
1729497704.6792386,-0.46561602151880505,-0.13731588635195802,9.85921385527639,-0.006961313372472787,0.02359066550111632,0.00016427171545378423,0.9996974510481399,-1.7293228582516166e-07,0.010603202712700056,0.0018438039315043547
1729497704.687231,-0.46659618273550174,-0.14224457331508106,9.864045691095523,-0.00720759938694699,0.023628476086762645,0.0001703565805869027,0.9996948117338261,-1.03759371495097e-07,0.01061882224224035,0.0011062823589026128
1729497704.6954787,-0.4568892123268479,-0.14113164267068926,9.856889145614343,-0.007156489237866427,0.023154526321153317,0.0001657538053882263,0.999706269410324,-6.22556228970582e-08,0.011053884021426557,0.0006637694153415677
1729497704.7032626,-0.45417749223985876,-0.14692822876647604,9.863369125796341,-0.007445507320675725,0.023001978733161944,0.00017131147893956187,0.9997076792980406,-3.735337373823492e-08,0.011740611150400313,0.00039826164920494063
1729497704.711203,-0.46308494749235274,-0.1425053149454325,9.862468710585226,-0.007221994377519331,0.023454692576267557,0.0001694406933845388,0.9996988003810025,-2.241202424294095e-08,0.011726957366322534,0.00023895698952296438
1729497704.719196,-0.46052855516533353,-0.13554200366452512,9.853309335481995,-0.0068755560369453865,0.023347358416180842,0.00016057363991866893,0.9997037570201861,-1.344721454576457e-08,0.011293075034413836,0.00014337419371377862
1729497704.727271,-0.4645013835874814,-0.1390254622084807,9.848771391084117,-0.007055445698178577,0.023559119522907346,0.0001662703795074803,0.9996975347211107,-8.068328727458742e-09,0.011458435696730648,8.602451622826717e-05
1729497704.7352424,-0.4623360974864732,-0.1435097389950103,9.85706195208211,-0.0072768824178475,0.023429603442934148,0.00017054580526096734,0.9996989904860922,-4.8409972364752455e-09,0.011131962032658704,5.16147097369603e-05
1729497704.7431898,-0.4576850435016495,-0.15194638905130303,9.867782372665284,-0.007696281474768008,0.023168764938465772,0.00017836650254555848,0.9997019274604195,-2.9045983418851472e-09,0.01093607783421554,3.096882584217618e-05
1729497704.7512054,-0.4604010749291147,-0.1591631605792193,9.858173473892139,-0.008069575800468161,0.023328368178432524,0.00018830741815520672,0.9996952704323694,-1.7427590051310882e-09,0.011669927438073702,1.8581295505305705e-05
1729497704.7592402,-0.45245388714496876,-0.16636626548815658,9.844267848983721,-0.008446684327219076,0.02295830364448848,0.0001939795975330968,0.9997007213109129,-1.0456554030786528e-09,0.011258857077464539,0.0017139090231513099
1729497704.7673998,-0.4433760114862,-0.1572805991366439,9.842628238687107,-0.007986897308048437,0.0225025498052631,0.00017977681502695088,0.9997148655511476,-6.273932418471916e-10,0.011012214861099039,0.003582485782662976
1729497704.7752435,-0.43433798360070436,-0.1676309302827676,9.852897220311872,-0.008503613634498882,0.02202110979016717,0.00018731120873430223,0.9997213232662769,-3.7643594510831493e-10,0.010864229531279739,0.004277941776907944
1729497704.7832088,-0.44615341882253196,-0.16546142315989493,9.850918323642201,-0.008395150118193407,0.022623890387144248,0.00018998628385044402,0.9997087800672031,-2.2586156706498896e-10,0.01120112839485019,0.004269525311992893
1729497704.7912567,-0.4482148564693005,-0.15649827357367133,9.854519388960712,-0.007937548935985358,0.022720393459452995,0.00018039649014720035,0.9997103312935417,-1.3551694023899337e-10,0.011828957774454495,0.002561715187195736
1729497704.799215,-0.45471896270970524,-0.1551905266442028,9.862426112136193,-0.007864865362764558,0.02303118713447712,0.00018119085579914064,0.9997037938719029,-8.131016414339602e-11,0.011779965340755044,0.0015370291123174415
1729497704.8071887,-0.4543118634656669,-0.15560297931659978,9.851368415084451,-0.007894612825169756,0.023036360857656365,0.00018191709919564665,0.9997034400625746,-4.878609848603761e-11,0.012176259941997405,0.0009222174673904648
1729497704.81536,-0.46077136856768136,-0.153935089591913,9.854550023660044,-0.007807425712468325,0.023355913566527088,0.00018240488168047645,0.9996967100744487,-2.9271659091622564e-11,0.012414036702742822,0.0005533304804342788
1729497704.8231897,-0.4694354749492026,-0.14766711210475716,9.86028971146165,-0.007485138193741118,0.02378081275954943,0.00017805801765718462,0.9996891586618604,-1.7562995454973537e-11,0.01213101269772804,0.0003319982882605673
1729497704.8312402,-0.4794223420984278,-0.13648430046597929,9.865888305636757,-0.0069143639879062704,0.024272586261795136,0.00016788297517244323,0.9996814517345578,-1.0537797272984123e-11,0.011961198294719172,0.00019919897295634037
1729497704.8392735,-0.48804808421413476,-0.13360533613896258,9.86374079832346,-0.006769931714797264,0.024713996444638068,0.0001673670274304914,0.9996716252813168,-6.322678363790474e-12,0.01185930965291385,0.0018222796296219305
1729497704.8471856,-0.47909773968863706,-0.13690578102908066,9.861255193105404,-0.006938972347840087,0.024267536522852545,0.0001684454309685798,0.9996814037282101,-3.7936070182742844e-12,0.011372486406368627,0.0032218180850833167
1729497704.855222,-0.49000810426240105,-0.12787272032643276,9.861679191302695,-0.0064808280283512095,0.02481848106049945,0.0001608972502982117,0.9996709538533124,-2.2761642109645705e-12,0.010229012335517429,0.004061541158360148
1729497704.863193,-0.4934418608484562,-0.13801519469585966,9.849962581920288,-0.007003077110255778,0.025021305487878603,0.00017528531274433356,0.9996623732329477,-1.3656985265787423e-12,0.00954292789300671,0.004565375002326247
1729497704.871249,-0.48927719048368307,-0.13619981383900015,9.842214355792798,-0.006916449690605151,0.024830086760395578,0.0001717931250500071,0.9996677448043778,-8.194191159472454e-13,0.008279897104576215,0.0048676753087059065
1729497704.8791952,-0.497791715901538,-0.13295580383074385,9.85408541157138,-0.006743533314970018,0.025231141348513775,0.00017020510186236784,0.999658884467549,-4.916514695683472e-13,0.0070963885700558865,0.0054747455539957334
1729497704.8871846,-0.49859086816396964,-0.1544725740953213,9.857616742548297,-0.007831866805939188,0.0252615329286254,0.0001979141960228902,0.9996501776353571,-2.9499088174100827e-13,0.0059605933878816575,0.006264677762631661
1729497704.8952005,-0.49811267885736615,-0.15110206496500528,9.841779028683275,-0.007673332941242036,0.02527804158830731,0.00019403454909915692,0.9996509905590183,-1.7699452904460497e-13,0.00527911627857712,0.006312947026351186
1729497704.9032838,-0.5047689500878572,-0.14692497799267504,9.856218416965824,-0.007450258136328062,0.025577934215983034,0.00019062987652001024,0.9996450503029538,-1.0619671742676298e-13,0.004870230012994399,0.0063419085845829015
1729497704.9112449,-0.47284968792380805,-0.15184075095576127,9.85746002478887,-0.007698834506841289,0.02396014450681193,0.00018452363471382717,0.9996832525222563,-6.371803045605779e-14,0.0046248982536447655,0.005933595458059899
1729497704.9192493,-0.4623172566019411,-0.14377688709689426,9.85964151047879,-0.0072885205974574695,0.023422520800262824,0.00017076691390549068,0.9996990716338205,-3.823081827363467e-14,0.004903389259497017,0.003560157274835939
1729497704.927233,-0.4579131591369459,-0.14205103093977717,9.869090687537273,-0.007194194143952895,0.023177658859934322,0.00016679370463078445,0.9997054625639753,-2.2938490964180803e-14,0.0054961739244704,0.0021360943649015632
1729497704.9354134,-0.44234201169310505,-0.13910015591738192,9.869253529954005,-0.007044784443172602,0.02239046826994683,0.000157779495754282,0.9997244685654305,-1.3763094578508481e-14,0.006277534784916461,0.001281656618940938
1729497704.943275,-0.4318022223967224,-0.1461881770465229,9.86240805058959,-0.007408928958733705,0.021872601049089533,0.00016209577828453945,0.999733299845509,-8.257856747105089e-15,0.007172041362646129,0.0007689939713645627
1729497704.9512458,-0.4388858781157678,-0.15115925022205434,9.857343082306878,-0.007664693742219068,0.022242082058535104,0.00017052594563180397,0.9997232182841616,-4.954714048263053e-15,0.00813443537074596,0.0021641566286668638
1729497704.9593256,-0.4242218784319607,-0.1481563899769826,9.847839756854832,-0.007519828431213753,0.02152081790134755,0.00016187492857311226,0.9997401064145269,-2.972828428957832e-15,0.00871187177560586,0.003426944284510277
1729497704.9673123,-0.42332434410019204,-0.1485094553240802,9.847883845567978,-0.007537719515184334,0.021475238482303354,0.00016191626831965733,0.9997409517968946,-1.7836970573746992e-15,0.009909713741445864,0.004184616878016324
1729497704.9752688,-0.4285319074855058,-0.15925578183702624,9.858444786100552,-0.008074353876283028,0.02171533613168549,0.0001753843863591282,0.9997315730867389,-1.0702182344248194e-15,0.010628418920949866,0.005064910495581984
1729497704.9832442,-0.43237470601474093,-0.157323871934247,9.860471787431816,-0.007974750040411102,0.021905376168944946,0.00017473738843971478,0.9997282267314128,-6.421309406548916e-16,0.010633951967190237,0.00559308666612138
1729497704.9912207,-0.4425812506107976,-0.15137632267226694,9.856181324412214,-0.007676569435286318,0.02243170615630329,0.0001722469701937766,0.9997188900744067,-3.8527856439293493e-16,0.01148865191785852,0.005058612245520955
1729497704.999219,-0.4676193704836661,-0.14613185195296954,9.858395449920765,-0.007408768891963708,0.023693578537864753,0.00017559436591198176,0.9996917993292703,-2.3116713863576095e-16,0.012427161949721523,0.004737927593160699
1729497705.0072231,-0.48359992307144967,-0.14083038802725048,9.857569143731757,-0.007140484040790043,0.024504144577944375,0.00017502847550284677,0.9996742118066262,-1.3870028318145657e-16,0.013415958030301356,0.0028427565558964193
1729497705.0152817,-0.46709145652841666,-0.13573414834369404,9.860185822176554,-0.006880447201771441,0.023663031061227205,0.00016286169681359834,0.999696300825089,-8.322016990887394e-17,0.013583545617187224,0.0017056539335378515
1729497705.0232377,-0.46676318324322186,-0.13076104320543516,9.845235837788353,-0.006638452035842771,0.023682468803224326,0.00015726250865835946,0.999697477687353,-4.9932101945324363e-17,0.013258408107856714,0.0010233923601227109
1729497705.0314257,-0.478058387240855,-0.13567804560099547,9.851588737780432,-0.0068835058915070295,0.024238747833746382,0.0001669005567981729,0.9996824858895438,-2.9959261167194616e-17,0.01348901566372044,0.0006140354160736265
1729497705.0393174,-0.4788500054890442,-0.12186883541723792,9.847978452629198,-0.0061852514733237,0.02428825253842162,0.00015027615888921588,0.9996858510901901,-1.7975556700316768e-17,0.013627380197238675,0.0003684212496441759
1729497705.0472667,-0.4762125142797547,-0.131060981426124,9.846769962202517,-0.006652562077653012,0.024157305580478385,0.0001607584496532869,0.9996860217896494,-1.0785334020190061e-17,0.014136088978811648,0.00022105274978650552
1729497705.0552204,-0.4844462463608215,-0.1418435126837994,9.851312111598853,-0.007196400722496039,0.024562464117236213,0.00017681926417307308,0.9996723792863733,-6.471200412114036e-18,0.013589934124831367,0.0001326316498719033
1729497705.0632374,-0.48172504029696167,-0.15166491376262337,9.851882619742515,-0.007694183601229452,0.02442287656685858,0.0001879757355197806,0.9996720898894964,-3.882720247268422e-18,0.012836551150981167,7.957898992314198e-05
1729497705.07125,-0.47721927466645825,-0.15181167042554278,9.870420857245898,-0.007687218252794996,0.02414948689289697,0.00018570202659499367,0.9996787856472202,-2.3296321483610532e-18,0.011958831305209017,0.0017505076398020116
1729497705.0792341,-0.48169842026862497,-0.15573044707954442,9.860953665470586,-0.007893134552548775,0.024398915229807742,0.00019264727809535943,0.9996711230447592,-1.397779289016632e-18,0.011432199397745726,0.0027530648297293334
1729497705.0872772,-0.48199170596976876,-0.15568751141178916,9.862455955385867,-0.007889754795371578,0.02441003524116672,0.00019265259875841145,0.999670878256324,-8.386675734099791e-19,0.011541910314729783,0.0033545991436857263
1729497705.0952082,-0.482167677390455,-0.16284435499160474,9.855695884022536,-0.008258022535878162,0.024435287279475342,0.00020185431294646216,0.9996672851775248,-5.032005440459875e-19,0.011607736864920217,0.003715519732059562
1729497705.1032457,-0.4813155795788043,-0.1613923771551191,9.859780126849069,-0.008181027434875438,0.024382172888987218,0.00019953722912910646,0.9996692156009485,-3.019203264275925e-19,0.011221542733572447,0.0039320720850838636
1729497705.111205,-0.4798466402277513,-0.15812698879307147,9.858399949888737,-0.008016672515867606,0.024311451155181612,0.00019496083672504848,0.9996722704440565,-1.8115219585655549e-19,0.010564136193301751,0.002359243251050318
1729497705.1192615,-0.48064121777922886,-0.1755607892231085,9.866909230187147,-0.008892648096979486,0.024329772884935978,0.0002164287394870687,0.999664411750159,-1.0869131751393328e-19,0.009744002207677304,0.001415545950630191
1729497705.127217,-0.47393535932964664,-0.1831480274889432,9.85142466408885,-0.009291514052756454,0.024028124957235438,0.00022333178933202095,0.9996680784643265,-6.521479050835996e-20,0.009251921816302635,0.0008493275703781145
1729497705.1352608,-0.4632080796114598,-0.17094095882735028,9.852189571402528,-0.008671810160687543,0.023484003878871975,0.00020371267091889966,0.999686580769944,-3.9128874305015977e-20,0.008530983520015802,0.0005095965422268687
1729497705.1432698,-0.45246214879226654,-0.1746300452671133,9.859591700605188,-0.00885238404799899,0.02292269389826433,0.00020298178492101886,0.9996980265057585,-2.3477324583009586e-20,0.008098420542243702,0.00030575792533612124
1729497705.1512039,-0.4443386491386412,-0.17157625347862734,9.867624280617019,-0.008690625616648703,0.022493633441430776,0.00019554061151008884,0.9997091933381742,-1.408639474980575e-20,0.009115952939966537,0.00018345475520167273
1729497705.1592944,-0.43611266702224716,-0.16782861707741076,9.872683248790134,-0.008496572215300667,0.022066713680208214,0.00018754386781906978,0.999720377523257,-8.45183684988345e-21,0.01015216244006227,0.00181283309896913
1729497705.1672518,-0.43979620372897327,-0.16318583357652458,9.870451386041658,-0.008263404489790151,0.022258061555463237,0.00018397923123661557,0.9997180907604272,-5.07110210993007e-21,0.011199578201581743,0.0027904601052296044
1729497705.1755342,-0.4446399475791808,-0.161597264306071,9.869112268392572,-0.008184041616920799,0.022505954963163138,0.00018424251397455182,0.999713193625404,-3.042661265958042e-21,0.012679407781417488,0.003802726370447921
1729497705.1833215,-0.4425183704029772,-0.1594470219137207,9.86399923481484,-0.008079367747808893,0.022410419204340854,0.0001811134196099718,0.9997161917893551,-1.825596759574825e-21,0.013141615467856905,0.004410086129578911
1729497705.1912582,-0.4438790459234269,-0.1509742714978418,9.859494893672107,-0.00765360124649007,0.022489854020763353,0.00017217697003348796,0.9997177597748154,-1.0953580557448949e-21,0.012567559956796492,0.004774501985057505
1729497705.1994455,-0.4478079133938999,-0.14517236075026757,9.838356936203265,-0.007375290231841613,0.022737519625834472,0.0001677437391238753,0.9997142502521903,-6.572148334469369e-22,0.011797436588698211,0.004993151498344661
1729497705.2074993,-0.4520805952043087,-0.1373816513134418,9.8508132791536,-0.006970697561959691,0.022925477276071915,0.0001598524682838184,0.9997128619330414,-3.943289000681621e-22,0.011761052629301275,0.0029958908990067967
1729497705.2152805,-0.4474615993100852,-0.13079186432322132,9.865230269738253,-0.006626724203365567,0.022658761303142934,0.00015019522384637028,0.9997212834104986,-2.3659734004089724e-22,0.013016292438049207,0.001797534539404078
1729497705.2232192,-0.44708440343370737,-0.1254014711329953,9.869092060768734,-0.0063511656358525145,0.022631046934292402,0.00014377325204150847,0.9997237006988361,-1.4195840402453834e-22,0.013769436323297966,0.0010785207236424467
1729497705.2312713,-0.4540406908883494,-0.11761825206456279,9.861353488414366,-0.005961636811084642,0.023000897263909848,0.00013716172212007374,0.9997176595410575,-8.5175042414723e-23,0.01379563259298519,0.000647112434185468
1729497705.2392957,-0.4491164970525408,-0.1177367239438158,9.857428605499791,-0.005970051045945452,0.022760874931508888,0.00013592122137561104,0.9997231029581554,-5.1105025448833797e-23,0.014237040416259557,0.0003882674605112808
1729497705.2472124,-0.4554993672256651,-0.1319335968662895,9.860819759735424,-0.0066874868435871666,0.023075391042505368,0.00015436093054461308,0.9997113483504403,-3.066301526930028e-23,0.014501885110224176,0.00023296047630676846
1729497705.2552135,-0.4645963329818834,-0.13326911563930494,9.862615032110785,-0.006753868648327204,0.02353115158971254,0.00015897395504751608,0.9997002775284324,-1.8397809161580165e-23,0.014235101865140917,0.00013977628578406106
1729497705.2632098,-0.4726881342617863,-0.1474779561999892,9.85722785105358,-0.007477841366538499,0.023952736268756433,0.00017917118158951347,0.9996851085273922,-1.1038685496948099e-23,0.014075031918090963,8.386577147043663e-05
1729497705.271217,-0.4787403158598061,-0.1514542773821029,9.86476944988996,-0.007673499549221695,0.02424019055805171,0.00018606724765968325,0.9996766957098464,-6.62321129816886e-24,0.013553299888398956,0.0021787697701924204
1729497705.2792432,-0.4895542297990868,-0.14857282643902736,9.854210938732805,-0.007535488517223368,0.02481337599953587,0.0001870438160557066,0.999663682344679,-3.9739267789013154e-24,0.013240260670583754,0.0038614022308876422
1729497705.287242,-0.4879022925181239,-0.15522366168372892,9.857213218513118,-0.007870372979102631,0.024721963367319223,0.000194636593912772,0.9996633652750464,-2.384356067340789e-24,0.012626747078432598,0.0048709817073047754
1729497705.2952447,-0.4907418528057962,-0.15610170067234672,9.856620384721152,-0.007915330547612334,0.02486702627128282,0.0001968977937210122,0.9996594118888713,-1.4306136404044735e-24,0.012258638923141905,0.004625349270230991
1729497705.3033428,-0.4831082025037902,-0.15543142323543926,9.856743524778004,-0.007881329411709255,0.024480639880211295,0.00019300382927384018,0.9996692181253164,-8.583681842426841e-25,0.012037774029967491,0.0027752095621385946
1729497705.3112645,-0.46416280236164914,-0.16963388690024792,9.858972190306254,-0.008599591637378999,0.023516237426698665,0.00020229346840444488,0.999686447181472,-5.150209105456105e-25,0.01190525509406284,0.0016651257372831568
1729497705.3192163,-0.46404831007909886,-0.17145160045069563,9.865097792943518,-0.008686328415922125,0.023495784098032633,0.00020415616579565465,0.9996861778320881,-3.0901254632736627e-25,0.011400053671058022,0.000999075442369894
1729497705.3272145,-0.4699651188599593,-0.15314919513369862,9.857041566391109,-0.00776552263014885,0.02381517548907393,0.00018499533560990567,0.9996862006907122,-1.8540752779641976e-25,0.010245552694331066,0.0005994452654219364
1729497705.3352437,-0.4732757839624599,-0.14935035692396917,9.865375939590525,-0.007566509496634974,0.023962609651635384,0.00018137058954095791,0.9996842043252608,-1.1124451667785185e-25,0.010404232231218957,0.0003596671592531618
1729497705.3432136,-0.4687978385415384,-0.14084612968172525,9.857926714877362,-0.00714115750103519,0.02375454744960873,0.0001696871772890471,0.9996923009362789,-6.674671000671111e-26,0.010925130014813721,0.00021580029555189707
1729497705.3512485,-0.46371686962882924,-0.13239171101216016,9.86997717150454,-0.006704415391380886,0.023469230738686068,0.0001573943648828328,0.9997020662426421,-4.0048026004026664e-26,0.010386288562046517,0.0022579304846412967
1729497705.3592088,-0.46449901093745377,-0.12803732030846796,9.865236437180068,-0.006487041464106149,0.02352019709998465,0.0001526219288681335,0.9997023033523368,-2.4028815602415998e-26,0.009637293628924163,0.003908898659556967
1729497705.3672745,-0.4618558335644254,-0.12446700522219016,9.855927652102963,-0.006312145059055137,0.02340876126351801,0.0001478029450154777,0.9997060392311085,-1.4417289361449598e-26,0.00918789666905075,0.0053251696259684015
1729497705.3752017,-0.4583545658124833,-0.12687379932472034,9.851539481886778,-0.006437078452923036,0.02324182969746228,0.00014965300964724348,0.9997091371880532,-8.650373616869759e-27,0.008918258493126703,0.005749242144353231
1729497705.3832335,-0.43973381370623993,-0.1285572959522541,9.849624840255114,-0.00652389445062333,0.022303328840051803,0.00014554386691898813,0.9997299531077541,-5.190224170121855e-27,0.009182165649034306,0.005577995593922096
1729497705.391207,-0.4347862867589002,-0.12621551160455557,9.845603013283926,-0.0064077225439562405,0.022061836037090346,0.00014140344567884213,0.9997360634125078,-3.1141345020731127e-27,0.0097662000040409,0.005475247663663416
1729497705.399211,-0.4411551570651057,-0.12959884431624896,9.848936001085589,-0.006577191729338606,0.022376834943185434,0.00014721678241387602,0.9997279610644587,-1.8684807012438676e-27,0.010116620617044856,0.0032851485981980496
1729497705.4072635,-0.4485677817390634,-0.12779812128701498,9.848302171940416,-0.0064861759121272984,0.022753778218982088,0.0001476263365608654,0.9997200474659209,-1.1210884207463206e-27,0.010326872984847229,0.0019710891589188296
1729497705.4156659,-0.44343854990281306,-0.1362944941100996,9.853189118105655,-0.006913948629046534,0.022482531479960134,0.00015548608818798896,0.9997233161813742,-6.726530524477923e-28,0.011304404528452716,0.0011826534953512976
1729497705.4232032,-0.4413186914651253,-0.12918188933715352,9.853966504310657,-0.006552687852159716,0.022373724902634718,0.00014664789549732627,0.9997281916652586,-4.035918314686754e-28,0.012316613516078042,0.0007095920972107786
1729497705.431213,-0.44363807889274703,-0.12874504912963586,9.851799314207486,-0.006531949924744978,0.022496089274125098,0.00014698366370064246,0.9997255813438775,-2.4215509888120524e-28,0.013775319031577297,0.0021285155041745937
1729497705.439281,-0.43760768620283574,-0.12632816351098464,9.856723924461992,-0.006406188456372387,0.02217977325509264,0.00014212568906362682,0.9997334635832206,-1.4529305932872314e-28,0.01465054234087685,0.0029798695483528826
1729497705.4472253,-0.45027002187795145,-0.12775107413198142,9.854650867128367,-0.006479600877242058,0.022825303754918973,0.00014794050946911227,0.9997184595647781,-8.717583559723388e-29,0.015175676326456583,0.004342062097783919
1729497705.4552507,-0.47366915424005207,-0.13123844233075135,9.853646452894209,-0.0066569447123359556,0.024011766953516974,0.0001598946524919402,0.9996894990788725,-5.230550135834033e-29,0.015065066656342392,0.004307997504518477
1729497705.463206,-0.48603269249520314,-0.14338651022266954,9.862860031160352,-0.00726614625146058,0.024613891569347325,0.00017890706625253697,0.999670609477305,-3.1383300815004195e-29,0.014998700854273878,0.004287558748559213
1729497705.4712,-0.490098933124075,-0.14349274597735173,9.865754556293869,-0.007269358782629664,0.024812165875226288,0.00018042885612716284,0.9996656842629428,-1.8829980489002517e-29,0.014533191311570739,0.0025725352491355277
1729497705.4792168,-0.4776946272084294,-0.1461901092563329,9.854562582409134,-0.007414508335226051,0.024212581309735,0.00017958197420617632,0.9996793204437016,-1.129798829340151e-29,0.014253885585948853,0.0015435211494813166
1729497705.4872572,-0.47911058980162013,-0.14230186340536222,9.867958692023606,-0.007207531187250865,0.024251499322292286,0.00017484940846450447,0.9996798916165565,-6.778792976040906e-30,0.013660612089113691,0.0009261126896887899
1729497705.4952123,-0.48474857067784705,-0.14044775622681108,9.85947636633721,-0.0071196995254547936,0.024557517131775525,0.00017489932633903303,0.9996730503725783,-4.0672757856245435e-30,0.013730338052474627,0.0005556676138132739
1729497705.503249,-0.48142759455514567,-0.12425182146069602,9.852471609597249,-0.006303287085260569,0.024407553953336072,0.00015389672682659359,0.9996822076028627,-2.440365471374726e-30,0.013772173630491186,0.00033340056828796435
1729497705.5114033,-0.48278689120574364,-0.13512439487837075,9.861436864684128,-0.006848538377590732,0.02445369416959259,0.00016752609164260492,0.9996774911432983,-1.4642192828248357e-30,0.013797274977301124,0.0002000403409727786
1729497705.519279,-0.47809580537774304,-0.1438027204231162,9.858915152257742,-0.0072902223955766034,0.024222310708448172,0.0001766425577310136,0.9996799993591816,-8.785315696949014e-31,0.013812335785387084,0.00012002420458366715
1729497705.5272431,-0.48557622101961456,-0.14900971574996347,9.854529082809723,-0.00755743871085943,0.024611302338503414,0.00018606008566475685,0.9996685122074112,-5.271189418169408e-31,0.013395682208776629,0.0017747747685983267
1729497705.5353189,-0.4819241847602062,-0.15811941709646246,9.846151357156536,-0.008026231470637343,0.024446832557583304,0.00019628092703319268,0.9996688919137571,-0.0017027602458481264,0.01186861987842426,0.003193315168469154
1729497705.543362,-0.48021180333659247,-0.16334581773834622,9.846870805749,-0.008290885661870478,0.024358083065772362,0.00020201697000847,0.9996688972822184,-0.0010216561475088757,0.010526692418750809,0.004044439408391651
1729497705.5512788,-0.4916342231152367,-0.1758190445980858,9.846105374074401,-0.00892439968179439,0.024937657004980702,0.0002226317290617153,0.9996491478456503,-0.0006129936885053254,0.01014722600440877,0.005832184136731243
1729497705.5592823,-0.49034738933789196,-0.1725290732432265,9.852110459552062,-0.008752124364646476,0.024857561774611937,0.00021763206285734516,0.9996526669688889,-0.00036779621310319523,0.009068166032879483,0.007330521035197031
1729497705.5672512,-0.4778437009367195,-0.17031567026429525,9.857628872166785,-0.00863517416159309,0.024211418363865256,0.00020913892547893284,0.9996695440238833,-0.00022067772786191713,0.008420730049961911,0.007803833112814471
1729497705.575273,-0.4619617820854692,-0.17018472930701464,9.851602533261008,-0.008633982678555911,0.02342235405475517,0.00020229124229147148,0.9996883548145858,-0.00013240663671715028,0.008457958521673399,0.006810750174998841
1729497705.5832644,-0.4644036390755003,-0.17345804705686504,9.836015721616763,-0.008813916877489853,0.023583020898408247,0.00020792469677122853,0.9996830061383971,-7.944398203029017e-05,0.008054605543238261,0.0057892103508474305
1729497705.59126,-0.46754469443162827,-0.17518261754075964,9.852760432725917,-0.008886376165984543,0.02370190124849714,0.00021069152590344234,0.9996795525591808,-4.7666389218174096e-05,0.007812593756177178,0.003473526210508458
1729497705.599229,-0.4555429580163988,-0.16233099020219016,9.857540015739065,-0.008230729853955546,0.023083933954040656,0.00019005471100581124,0.9996996303682839,-2.8599833530904456e-05,0.008518766806864591,0.0020841157263050748
1729497705.607259,-0.4540880001516361,-0.15701421545920471,9.855858782392659,-0.007962574611628009,0.023014492098035737,0.00018330897909874774,0.9997034044939739,-1.7159900118542672e-05,0.008516780575815008,0.0012504694357830448
1729497705.615228,-0.4395680759698879,-0.1504722682891947,9.851737580226612,-0.007634197858004202,0.02228928558617757,0.00017020806597468197,0.999722400369391,-1.0295940071125602e-05,0.008515588837185258,0.0007502816614698268
1729497705.6232426,-0.4380387264413077,-0.1412798563348449,9.84447645560667,-0.007173192076007699,0.022228589399017788,0.00015949345631609927,0.999727167626552,-6.177564042675361e-06,0.00894056385546944,0.00045016899688189607
1729497705.631217,-0.43855763772025336,-0.12882122434778195,9.84634470515111,-0.006539471715005635,0.02225114956341195,0.0001455499140771418,0.9997310140572903,-3.7065384256052164e-06,0.009621238927901982,0.003249931828363359
1729497705.6392655,-0.44581216930207385,-0.12613444847585667,9.844832033051604,-0.00640402561249377,0.022622232501924504,0.00014491341581047434,0.9997235628175847,-2.2239230553631297e-06,0.010029643971361506,0.005355479588714268
1729497705.647286,-0.4338843169621037,-0.13362034926129523,9.861641522077054,-0.00677258331178753,0.021980116901350575,0.00014890156375220787,0.9997354572108624,-1.3343538332178779e-06,0.01070037705889925,0.007895878429310908
1729497705.6552575,-0.43654383236476224,-0.12470436043568339,9.856643745033344,-0.0063239134808486756,0.022126169620553318,0.00013996104745631676,0.9997351755075513,-8.006122999307267e-07,0.010677126849959867,0.009420117733668892
1729497705.6633458,-0.44604040708487297,-0.11145390166180066,9.855799860301255,-0.005652454828350492,0.022609159293506025,0.00012783197170005063,0.9997283927794796,-4.80367379958436e-07,0.010663176724596237,0.00948328119335962
1729497705.671216,-0.45892095689740814,-0.1032642062314554,9.85864541178622,-0.00523555268008393,0.023254572185809584,0.00012178514186577739,0.9997158591464718,-2.882204279750616e-07,0.01108049671084009,0.00781841902332593
1729497705.679242,-0.4580301608083667,-0.11774342242051386,9.847663473878372,-0.005976242589934742,0.023234865392482366,0.00013889717205504195,0.9997121617056958,-1.7293225678503694e-07,0.011756578764048432,0.004691051413995557
1729497705.687228,-0.45845336381900437,-0.1202060278175427,9.837004168311399,-0.006107825589856438,0.023281365670132576,0.0001422397301103225,0.9997102841558432,-1.0375935407102216e-07,0.01258791805743547,0.0028146308483973344
1729497705.6952035,-0.4481727983206995,-0.12335953221786937,9.849522778086449,-0.0062601574325297045,0.02273112428549965,0.000142339986530218,0.9997220044377163,-6.225561244261329e-08,0.013086721633467694,0.0016887785090384006
1729497705.703204,-0.4482293833381228,-0.1245333743600185,9.844105254986635,-0.0063231948218127314,0.022746436550028663,0.00014387025231443756,0.999721259218224,-3.735336746556797e-08,0.013811693840549057,0.0010132671054230403
1729497705.7113261,-0.4398836285380299,-0.12308289815116735,9.836784598304481,-0.006254265487769438,0.022340187946371416,0.00013975908204764086,0.9997308540968055,-2.241202047934078e-08,0.014246677164797876,0.0006079602632538242
1729497705.7192187,-0.43822805798219294,-0.13202883923249728,9.847715094920188,-0.006701351699909236,0.022231243867820775,0.00014901956188464224,0.9997303843910386,-1.3447212287604468e-08,0.014081977097885136,0.0003647761579522945
1729497705.7272716,-0.43891065681080016,-0.12997437873481085,9.851400350897427,-0.006594616175032971,0.022257582553206545,0.00014681978061461764,0.9997305084373204,-8.06832737256268e-09,0.01355746699627546,0.0002188656947713767
1729497705.7352765,-0.4534460059028863,-0.14214923173307403,9.839725134854861,-0.00722067582720341,0.023020275889148914,0.00016627034958714503,0.9997089081791543,-0.00170276508684455,0.013242760935309655,0.0026854597856350157
1729497705.7432833,-0.47126518166673176,-0.1511300846941413,9.843972753032055,-0.00767331378173294,0.02391267772799422,0.00018354737307828148,0.9996845854617575,-0.0031501093594168885,0.013053937298730172,0.00459110630161523
1729497705.7512167,-0.48219610729105467,-0.1483783108262504,9.840535819787984,-0.007536146305344451,0.024475001568300677,0.00018450770755555775,0.9996720195914268,-0.001890065615650133,0.012514953055320452,0.006160184272665391
1729497705.759218,-0.48827582233361716,-0.14576956584145334,9.849247567312243,-0.007397068144773635,0.02476127491230688,0.00018322203243096249,0.9996660087635597,-0.0011340393693900798,0.012191562509274619,0.006675940993833456
1729497705.7672741,-0.47779786156423276,-0.14803504150682512,9.860460119977189,-0.007503576305506719,0.024203265129953626,0.00018166938421978918,0.9996788810892783,-0.0006804236216340478,0.011571838120185089,0.005708324842148199
1729497705.7752752,-0.4765389085889303,-0.15490099072440755,9.860244466761703,-0.007851717669809098,0.02413980801927318,0.00018960005764749163,0.9996777401994327,-0.0004082541729804287,0.010774313425269338,0.005127755151137046
1729497705.7832663,-0.4597423856807019,-0.15566867793073827,9.858199713504288,-0.007892424313170412,0.023295149649605548,0.00018391084583433323,0.9996974601438497,-0.0002449525037882572,0.010295798608319886,0.0030766530906822273
1729497705.7912657,-0.4458337492795149,-0.15876291208070858,9.857691122047886,-0.008049822475027306,0.02259251676378051,0.00018191808134165836,0.9997123313484787,-0.00014697150227295432,0.010008689718150216,0.0018459918544093362
1729497705.799201,-0.43677030694075586,-0.1625348138988158,9.850921622691622,-0.008246779457979142,0.022148921238385844,0.00018270830783990603,0.9997206522495279,-8.818290136377259e-05,0.009836424384048414,0.0011075951126456017
1729497705.80721,-0.43372644319765663,-0.16719215664983633,9.850451225568099,-0.008483470784406765,0.021995620773421674,0.00018665108483079853,0.9997220556492762,-5.2909740818263557e-05,0.009733065183587332,0.000664557067587361
1729497705.8152096,-0.4340549064459377,-0.16232511698794866,9.852563188954141,-0.008234796647051134,0.022007770962447274,0.0001812795755289699,0.9997238685152824,-3.1745844490958135e-05,0.010522429786234747,0.0025271845478625748
1729497705.8232093,-0.4481383540238127,-0.16323561584706603,9.857421669476,-0.00827676121424145,0.022709531423270975,0.00018801630238195698,0.9997078258452357,-1.904750669457488e-05,0.010996048547823196,0.0036447610360277032
1729497705.8312654,-0.45180001925022517,-0.16689437732073964,9.853872413306693,-0.008465245521059084,0.022902849635656364,0.00019393606999547076,0.9997018362920194,-1.1428504016744928e-05,0.011705909866238297,0.005166687051850843
1729497705.8392227,-0.4537575982200569,-0.15568210490806875,9.851264019273078,-0.007898715511713377,0.02300854062021103,0.00018179171825625083,0.999704048358095,-6.857102410046957e-06,0.01255751671874939,0.0065055327228067585
1729497705.8473015,-0.4561292464320342,-0.14656053980031,9.854966226505253,-0.0074331883818071764,0.023120344084948806,0.0001719085791173909,0.9997050404230813,-4.114261446028174e-06,0.013494170891718076,0.006457460002456245
1729497705.8552408,-0.4575522353592205,-0.12935601260088914,9.859581752504715,-0.006557656900677866,0.02318222657591611,0.00015206522697768616,0.9997097370652757,-2.468556867616904e-06,0.013630473334037257,0.005577236247321873
1729497705.8632627,-0.4641521126999073,-0.13196198524608035,9.859478026112201,-0.006689764256767728,0.023516207792817163,0.00015736492894841958,0.9997010604483287,-1.4811341205701425e-06,0.013712254799428766,0.003346341748393124
1729497705.8712575,-0.47218218192658495,-0.11556905638202322,9.853430286126306,-0.005862357069948955,0.023937636525759087,0.00014037361048159679,0.9996962551807397,-8.886804723420854e-07,0.013335633617201638,0.0020078050490358744
1729497705.8792136,-0.46191675300360724,-0.12368981151476081,9.867039894087894,-0.006265675624546666,0.023385554881021137,0.00014656926432012448,0.9997068748634899,-5.332082834052513e-07,0.012683970846403329,0.0012046830294215247
1729497705.887249,-0.4615035796341956,-0.11802777728971586,9.860122188405862,-0.005983083971842737,0.023381238938743734,0.00013993267720985352,0.9997087079698371,-3.1992497004315077e-07,0.012292973183924343,0.0007228098176529148
1729497705.8952155,-0.4631710369406736,-0.12444678356132952,9.852619682672424,-0.0063132268830211734,0.023483179067690076,0.00014829849117854336,0.9997042870142929,-1.9195498202589045e-07,0.012058374586436953,0.0004336858905917489
1729497705.903229,-0.4656080323206541,-0.1426633972852352,9.855540204378844,-0.00723506094861394,0.023598810858033777,0.00017079087245907963,0.9996953140080403,-1.1517298921553426e-07,0.01191761542794452,0.00026021153435504935
1729497705.9112458,-0.4740134143630956,-0.15048090336137548,9.856095416572618,-0.007630942124098458,0.024022392924796354,0.0001833717510752672,0.9996822793944415,-6.910379352932056e-08,0.011833159932849058,0.003135957350847251
1729497705.9192789,-0.4790566435885605,-0.15421372634299715,9.86576593036349,-0.0078124912132512,0.02425360294774393,0.0001895426056952867,0.9996752931820896,-4.146227611759233e-08,0.011782486635791782,0.005712784963666635
1729497705.9272592,-0.48567388361407376,-0.1535803781397827,9.860315490835282,-0.0077846426198102375,0.024601609593754147,0.00019157853300808648,0.9996670062787628,-2.48773656705554e-08,0.010900702534633353,0.007258881531358265
1729497705.9353108,-0.48054626132078804,-0.14960906672761962,9.853932764960154,-0.007588339241696979,0.024358259024765648,0.00018489892183783476,0.9996744760857027,-1.4926419402333237e-08,0.010371632073938295,0.007760849410511211
1729497705.9432852,-0.480342729937004,-0.15680308652094677,9.856806894083514,-0.007950845232140367,0.024340531131940256,0.0001935912766458917,0.9996720888004862,-8.955851641399941e-09,0.010054189797521262,0.007210650015078916
1729497705.9512153,-0.4670525019758743,-0.14555718760592742,9.866432237036047,-0.007373637170788053,0.0236456909949676,0.0001744082557036757,0.9996931931117689,-5.373510984839964e-09,0.009863724431671042,0.00432639000904735
1729497705.959239,-0.4571630038710714,-0.14479515240730645,9.869573820981394,-0.00733279633908002,0.02313850283937402,0.00016971993484027264,0.9997053620839219,-3.2241065909039784e-09,0.009323755150698877,0.00259583400542841
1729497705.9672296,-0.4610455318148303,-0.14673213294829013,9.8606848638779,-0.007437532243145596,0.023355601082617288,0.00017376024423958688,0.9996995392714649,-1.934463954542387e-09,0.00942546364357761,0.0015575004032570459
1729497705.9752066,-0.4684028720674138,-0.1514856237631147,9.860379313102131,-0.007678602156109204,0.023728202099981627,0.00018225611625462276,0.9996889407594438,-1.1606783727254323e-09,0.009486488739304851,0.0009345002419542275
1729497705.9832656,-0.462522209080292,-0.1509858359277907,9.86666032711909,-0.007648460501290169,0.023415930782367672,0.00017915018740726523,0.9996965355260395,-6.964070236352594e-10,0.009097413735279163,0.0005607001451725364
1729497705.9912734,-0.46354279444231583,-0.15044654306058067,9.865401112042939,-0.00762210885472069,0.023470528333438285,0.0001789494197190658,0.9996954564933569,-4.178442141811556e-10,0.009715348855787814,0.00033642008710352186
1729497705.9992123,-0.45457833901890515,-0.14772876568009838,9.86440616283123,-0.007485277216868094,0.023019796885351218,0.00017236006748845296,0.9997069720014715,-2.5070652850869335e-10,0.009660419866630972,0.0023303023595722715
1729497706.0072467,-0.4525515480890775,-0.14849230091196527,9.856866008489753,-0.007529728158417363,0.02293478751012474,0.00017274305403391517,0.999708591978464,-1.50423917105216e-10,0.009201772411674835,0.005229391968901647
1729497706.0152762,-0.4594757591757121,-0.14511969939483543,9.850905394888773,-0.00736312618929511,0.023299343046273464,0.0001716072443533615,0.9997014031886153,-9.025435026312959e-11,0.009352274000163186,0.0073945357959613045
1729497706.023272,-0.4660244874878491,-0.1375894746661981,9.848526127558266,-0.0069827415792192244,0.02363688875166936,0.000165100441813683,0.9996962096317177,-5.4152610157877756e-11,0.010293955076180259,0.008693622092197099
1729497706.031272,-0.47091140513919383,-0.1424087263036251,9.848535088156051,-0.007227232789648164,0.023884103652938766,0.00017266974730222073,0.9996885949554782,-3.249156609472665e-11,0.01000758359886644,0.008621693747014512
1729497706.039262,-0.491560648015157,-0.1488915797763157,9.855004808997146,-0.007551024992058192,0.02491286579664941,0.00018818144874747065,0.9996610904337079,-1.949493965683599e-11,0.009835760712478148,0.007301466555518865
1729497706.047207,-0.483360059463391,-0.15014767003375817,9.856971280173678,-0.007613279766759961,0.024493068531101173,0.00018653395418801442,0.999670992262058,-1.1696963794101594e-11,0.010158357042107206,0.004380879933311319
1729497706.0552554,-0.4724542021819409,-0.13916973605345803,9.851686818397175,-0.007060607555655673,0.023954707798126938,0.0001691875609903479,0.999688096943652,-7.018178276460956e-12,0.009926224778422608,0.0026285279599867913
1729497706.0632422,-0.45465794001033644,-0.13354065632934042,9.854980485813696,-0.006772949674322071,0.023046392054721487,0.0001561371082259886,0.9997114416606288,-4.210906965876574e-12,0.010212635481673882,0.0015771167759920748
1729497706.0712135,-0.4384735188890143,-0.12896610766479175,9.864139291244076,-0.006535023572890075,0.022206817932314486,0.00014516097761165824,0.9997320289120047,-2.526544179525944e-12,0.01166155208801074,0.0009462700655952449
1729497706.0791981,-0.4242138830619242,-0.13555876494067193,9.868676893838243,-0.006865999432524852,0.021475541395585652,0.00014748854863044645,0.9997457863980658,-1.5159265077155663e-12,0.012956592113274885,0.0005677620393571469
1729497706.0872364,-0.4254743283723108,-0.1323317543257313,9.869244673900601,-0.006702179954541141,0.021538144107479458,0.00014438925728610724,0.9997455517700515,-9.095559046293398e-13,0.013307926066971343,0.0003406572236142881
1729497706.0952358,-0.43341320053901145,-0.13183206895286065,9.868627661273955,-0.006677232452439193,0.021940834768463827,0.0001465426002460632,0.9997369618363149,-5.457335427776038e-13,0.013518726439189218,0.0019071545800166993
1729497706.1032922,-0.4472744901476256,-0.134884140053357,9.872088176354216,-0.006829292851836229,0.02263343707693276,0.0001546135856016795,0.999720493127888,-3.2744012566656226e-13,0.014922276846906037,0.004549813239706272
1729497706.1112146,-0.46277386889326283,-0.14341914736209233,9.858123334279325,-0.007271503224543153,0.02344923541281624,0.0001705626037183589,0.9996985693236776,-1.9646407539993734e-13,0.015764407091536127,0.006561098496982047
1729497706.1192174,-0.46441205082814513,-0.14686421058522414,9.856448193682828,-0.007447392358544225,0.023535946672413925,0.00017533486515953283,0.9996952359689308,-1.178784452399624e-13,0.01584399517685215,0.0077678696513475125
1729497706.127222,-0.48023901028204324,-0.14893124851910325,9.870526579783917,-0.007541279046201462,0.024301904638797004,0.00018332680471327105,0.999676204044368,-7.072706714397744e-14,0.015891748028041764,0.008491932343966793
1729497706.1351953,-0.48997460612039784,-0.14251002596693071,9.870593905634022,-0.0072160462571999335,0.024793791653473184,0.00017897283012882978,0.9996665266680604,-4.243624028638646e-14,0.01592039973875553,0.00850067989807633
1729497706.1432295,-0.5144907365726293,-0.13985439326570528,9.856508511349162,-0.00709147677124615,0.02606914140311586,0.00018493621766182947,0.9996349716883172,-2.5461744171831877e-14,0.01551190070372176,0.0051004079388457975
1729497706.1512222,-0.5131592637209214,-0.14017637497309504,9.865295526731373,-0.007101488190648637,0.025978690787071674,0.00018455431190865848,0.999637255423273,-1.5277046503099126e-14,0.013989731098315403,0.0030602447633074786
1729497706.1592553,-0.5171487833302091,-0.13941188333346638,9.851414122679449,-0.007072668709811053,0.026217087430612622,0.00018549317720480612,0.9996312356445541,-9.166227901859476e-15,0.013076429335071589,0.0018361468579844871
1729497706.1672258,-0.5245703185821098,-0.14422043200203297,9.84547948190845,-0.0073209091281096796,0.026608291068240537,0.0001948711054120316,0.999619110042029,-5.4997367411156855e-15,0.0125284482771253,0.0011016881147906923
1729497706.1756237,-0.5239954162469221,-0.14997860319536038,9.847664781430225,-0.007611473467318944,0.02657301785597391,0.00020233713810894892,0.9996178766175428,-3.2998420446694113e-15,0.011773969580895497,0.0006610128688744153
1729497706.1832418,-0.5133554077071376,-0.1500816235871381,9.8506519023054,-0.007614505478324354,0.02602666493335365,0.00019825309451000493,0.9996322287293853,-1.9799052268016466e-15,0.010469902240233551,0.0003966077213246492
1729497706.1912434,-0.5096050244094388,-0.1381724275214235,9.849571132838317,-0.007011180741341969,0.025840304801012695,0.0001812360240553762,0.9996414803047674,-1.1879431360809879e-15,0.009261771774374351,0.002792105001566979
1729497706.1992085,-0.47958205517300706,-0.1453921198429322,9.850598612320177,-0.007376989603734157,0.024317877032322244,0.00017945068105157546,0.9996770421883662,-7.127658816485927e-16,0.008536893494858831,0.0050807834926364405
1729497706.2072148,-0.47162392060380426,-0.1482874142397437,9.863664948642105,-0.007513984780339375,0.02388329915071758,0.00017951502450325472,0.9996864987728673,-4.276595289891556e-16,0.008953346650073583,0.007731060771664211
1729497706.2152095,-0.46972208185447,-0.14954575054579936,9.854984758980187,-0.007584423381677741,0.023808005418594097,0.0001806263912752825,0.999687762640947,-2.5659571739349333e-16,0.008777528481740402,0.009746917200542906
1729497706.2232819,-0.46115895345838515,-0.14766713050326086,9.852889107341237,-0.007490834072292145,0.023379744458099285,0.0001751865917081337,0.999698576703815,-1.53957430436096e-16,0.007820657457816432,0.009679360873484028
1729497706.2312937,-0.4524297739304998,-0.14941300046992528,9.86025084233443,-0.007573809004845291,0.022920729193117828,0.0001736478293927995,0.9997085812559804,-9.23744582616576e-17,0.008097914966386111,0.008361756892862606
1729497706.2393286,-0.4560508123563468,-0.15477008543820517,9.85293629519558,-0.007851098068738786,0.023120760670334615,0.00018157749960966114,0.9997018344060151,-5.5424674956994556e-17,0.008264269471527919,0.007145504443027723
1729497706.2472162,-0.4610964774040424,-0.1455344877863606,9.859560894548986,-0.007377676035081053,0.023360887837885428,0.00017240080682333453,0.999699859504696,-3.325480497419673e-17,0.008789772236075036,0.004287302665816633
1729497706.2552598,-0.4521528681318786,-0.13975370902923823,9.862817393662985,-0.0070824117824575894,0.02290118339529829,0.00016224223414758549,0.9997126331701006,-1.995288298451804e-17,0.009105073894803306,0.00257238159948998
1729497706.2632241,-0.4506174252248302,-0.14298900642340232,9.8573492679849,-0.007250374352740724,0.02283603979985729,0.00016561738292726727,0.9997129187566234,-1.1971729790710823e-17,0.008442874767116205,0.001543428959693988
1729497706.271271,-0.45544224346497625,-0.13224091606107263,9.870348963867114,-0.00669659575027891,0.02305025523633096,0.000154402729743269,0.9997118672391032,-7.183037874426494e-18,0.008471245351965976,0.002628817621664519
1729497706.2791967,-0.4578582940770326,-0.13321408699015921,9.867853714257768,-0.006747554610824575,0.023178147258543284,0.00015644140654707782,0.9997085672947499,-4.309822724655896e-18,0.009339647825799902,0.004131430941770901
1729497706.2872822,-0.4619415462704383,-0.12709422489917366,9.868990186318333,-0.0064368380586780315,0.02338206694840057,0.00015055086018323012,0.9997058684410457,-2.5858936347935376e-18,0.01028637937156229,0.005458688995296761
1729497706.2952163,-0.46894048074077865,-0.12174636648247293,9.858419321751937,-0.006172574445746064,0.023761343232481646,0.00014671288035764793,0.9996985927607535,-1.5515361808761225e-18,0.01042872823755769,0.006255043827412278
1729497706.3033123,-0.46571781627649844,-0.12093185309260876,9.860217088656631,-0.006130190576557037,0.023594058958942184,0.00014467907420642731,0.9997028159474707,-9.309217085256735e-19,0.010939827618616962,0.006732856726681587
1729497706.3112214,-0.4800647888869928,-0.13097763236337776,9.865365891621714,-0.006635776665262629,0.024306568990597556,0.00016134418765211816,0.9996825151716955,-5.585530251154041e-19,0.010820797185790494,0.0061681643433191095
1729497706.3192785,-0.4783779053146175,-0.1384416209219329,9.863666770080451,-0.00701509606984043,0.024225161160088375,0.00016999590855174685,0.9996818999538252,-3.3513181506924247e-19,0.010749378926094613,0.005403658851839592
1729497706.327329,-0.46778896853056734,-0.14172291322698785,9.857858893835381,-0.007185663630361871,0.023703638081622742,0.00017037864388939216,0.9996931903094092,-2.0107908904154548e-19,0.00985514784735302,0.004944955556951881
1729497706.3352633,-0.4635903879542779,-0.1348331424674427,9.858683731076617,-0.0068358513996026014,0.023489568477175007,0.00016061927322624423,0.9997006979640696,-1.2064745342492729e-19,0.009318609200108064,0.0029669733341711286
1729497706.3432102,-0.4641837017667073,-0.14721927146679376,9.852235448606908,-0.0074685861593885945,0.02353441694679935,0.00017582242651222258,0.9996951137853123,-7.238847205495637e-20,0.00857099595029906,0.001780184000502677
1729497706.3512325,-0.4736376563627588,-0.14507414222577936,9.853633722777426,-0.007358648628189973,0.024009614036179124,0.0001767340501821523,0.9996846290152089,-4.343308323297382e-20,0.008548118061875689,0.0010681104003016063
1729497706.3593256,-0.4740427854680459,-0.140435182356952,9.860937031762159,-0.007118105901184555,0.024012557523002787,0.00017097756289673663,0.9996863010045987,-2.605984993978429e-20,0.008960081390283698,0.0006408662401809637
1729497706.367207,-0.45944181263824946,-0.14722861307628057,9.846404824037764,-0.007473523326791459,0.02330816056207107,0.00017424628969008252,0.9997003779825868,-1.5635909963870574e-20,0.008781569325866472,0.0003845197441085782
1729497706.3752074,-0.4581032540868559,-0.15585365466217457,9.845825785047658,-0.007911740086443747,0.023241336755918777,0.00018393486100468442,0.9996985599682384,-0.0017027602458481264,0.008674462087216136,0.0019334720923132732
1729497706.3831987,-0.44892041314547293,-0.15767679728949224,9.855294588460236,-0.007996676555299271,0.02275426248357753,0.00018201142637553494,0.9997090894729022,-0.0010216561475088757,0.009035887805487967,0.0028628435012360903
1729497706.3912594,-0.45490287654939315,-0.16667154834439848,9.861454710839814,-0.008447418737083013,0.023042206307264116,0.00019470581369286953,0.999698784602052,-0.0006129936885053254,0.009678433297913097,0.003420466346589781
1729497706.399206,-0.45154916977729215,-0.1529147856960922,9.84599717098631,-0.007762505710458158,0.02290908588089469,0.0001778839588153474,0.9997074000158717,-0.00036779621310319523,0.009638270531906142,0.003755040053801995
1729497706.407532,-0.45001578604606274,-0.14657608943523345,9.851327277201161,-0.007436775953924098,0.02281936090912825,0.00016975137482824377,0.9997119296655316,-0.00022067772786191713,0.010465552995226033,0.003955784278129324
1729497706.415208,-0.4447861928190439,-0.15929286313379631,9.849258097277726,-0.008083607942552895,0.022558751451331304,0.00018240848626801712,0.9997128211355161,-0.00013240663671715028,0.011813302596142031,0.00407623081272572
1729497706.4234977,-0.45673190734181696,-0.16812002818301217,9.846580068327574,-0.008533659102154185,0.02316951102527324,0.00019778101026912657,0.9996951091727166,-7.944398203029017e-05,0.012196262295229597,0.002445738487635432
1729497706.431213,-0.45336484875079325,-0.17054328522035417,9.852634696269982,-0.008651354439981378,0.022984748777497614,0.00019890920687987474,0.9996983624199434,-4.7666389218174096e-05,0.012000348053220106,0.001467443092581259
1729497706.4392931,-0.4599637395727416,-0.15116768499939998,9.856985733533474,-0.0076652052744855025,0.02330941896551132,0.00017872529601094435,0.9996988965047721,-2.8599833530904456e-05,0.012734179630938475,0.0008804658555487553
1729497706.4472818,-0.45410684725927,-0.15271043399768686,9.86893374236618,-0.007734106255824885,0.022985207850363825,0.00017782234220663795,0.9997058728444651,-1.7159900118542672e-05,0.013600168639031528,0.0005282795133292531
1729497706.4552498,-0.45418401436142136,-0.14645347841619025,9.869159362851349,-0.007417102472151213,0.022988858713086886,0.00017056049164702582,0.9997081923617042,-1.0295940071125602e-05,0.013694071982425327,0.00031696770799755184
1729497706.4632156,-0.4633282809313059,-0.14245988490127665,9.872407197300653,-0.007212427502464336,0.023443419749332582,0.00016913485229249622,0.9996991339164899,-6.177564042675361e-06,0.012899033865537545,0.0001901806247985311
1729497706.4712865,-0.47192730303143976,-0.137190686800141,9.867412713155781,-0.0069491377588122545,0.023890062423442666,0.00016606674487769604,0.9996904254936372,-3.7065384256052164e-06,0.012422010995404874,0.002242558682189277
1729497706.4798017,-0.4780443969555826,-0.14264829391602207,9.8589093588505,-0.007231711529389765,0.02421977634683598,0.00017520641675008403,0.9996804859977895,-2.2239230553631297e-06,0.012561487334787303,0.0034739855166237244
1729497706.4872563,-0.46016683836866207,-0.1396979338691445,9.86529951423608,-0.007077736720027174,0.02330057854816798,0.00016496428273047678,0.9997034367596362,-1.3343538332178779e-06,0.013070863199878793,0.004638531678746425
1729497706.4952557,-0.46524203417354093,-0.15061698663984607,9.864345204147115,-0.007631542732512933,0.023558931757558473,0.00017984615236634244,0.9996933049417336,-8.006122999307267e-07,0.013376488718933686,0.0053372593760200445
1729497706.503247,-0.46756889115842143,-0.1408878470132045,9.863293777761706,-0.007139399164101422,0.02367951127390483,0.0001691092145567806,0.9996940937744297,-4.80367379958436e-07,0.013559864030366624,0.005756495994384216
1729497706.511289,-0.4668102238552091,-0.1388810858934696,9.84853713213554,-0.007048267064313316,0.023676593769243644,0.0001669299014094943,0.9996948099161485,-2.882204279750616e-07,0.012818509094302322,0.006008037965402719
1729497706.519285,-0.46420024197914106,-0.13767702922162864,9.853090674056714,-0.006983965660651642,0.023533626537931736,0.00016440758590936469,0.999698637398176,-1.7293225678503694e-07,0.011948006071201708,0.005733273086551789
1729497706.5272691,-0.4731687401581878,-0.13120851123414903,9.853189177383246,-0.006655739542888061,0.02398755542442144,0.00015970441542923345,0.9996900883825933,-1.0375935407102216e-07,0.011425704257341341,0.005142724097779199
1729497706.5352817,-0.4672970912628814,-0.11990537529517693,9.851332918051042,-0.006083628570160609,0.023695280919073365,0.00014419644505355426,0.9997007063781499,-6.225561244261329e-08,0.01111232316902512,0.0030856344586675196
1729497706.5432396,-0.47909699255069754,-0.12677044319468428,9.854289305273984,-0.006429874755474093,0.024285035748684878,0.00015619903707578294,0.999684384869132,-3.735336746556797e-08,0.010498604454573356,0.0018513806752005117
1729497706.5512679,-0.481867370335106,-0.1328048452625137,9.845289230137046,-0.006742031641066799,0.024447250594215066,0.00016487716596521167,0.9996783731597152,-2.241202047934078e-08,0.010556063287364331,0.001110828405120307
1729497706.5592856,-0.4854449583338761,-0.12038433538016445,9.856169756343945,-0.006104790639149246,0.024601792815731032,0.00015023706885029927,0.9996786787514912,-1.3447212287604468e-08,0.010590538587038914,0.0006664970430721842
1729497706.567267,-0.4856761498050131,-0.1289731805738018,9.850727063767305,-0.006543893082141271,0.024626720998653845,0.00016120697544964567,0.9996752853244373,-8.06832737256268e-09,0.0097598436439196,0.0003998982258433105
1729497706.5752766,-0.47863225970722656,-0.1223948995552186,9.856080574197883,-0.006206846861032656,0.024257289646309875,0.00015060850253529408,0.9996864689832196,-4.840996423537608e-09,0.008835736616585982,0.0002399389355059863
1729497706.5832822,-0.47320882481847654,-0.12108155277024053,9.866235865270681,-0.006133979045096566,0.02395831528632845,0.00014700476839838868,0.9996941291311624,-2.9045978541225646e-09,0.00828127240018581,0.00014396336130359177
1729497706.5912287,-0.4608567975766328,-0.12364542702347243,9.865146434933893,-0.006264637035835126,0.023336451665682788,0.00014623709640199624,0.9997080288570139,-1.7427587124735386e-09,0.008374283931807738,8.637801678215506e-05
1729497706.5993,-0.4488965980772297,-0.12398665074533345,9.867844659056038,-0.0062802979365756675,0.02272555573847005,0.00014276294824679033,0.9997220046557673,-1.045655227484123e-09,0.008855780912242928,0.002180277117379451
1729497706.607281,-0.4498607640221191,-0.13185283029095005,9.86706939186917,-0.006679208639053497,0.022775783587913566,0.00015216707982314978,0.999718274664964,-6.273931364904738e-10,0.009570369161966073,0.004287996700661892
1729497706.6152318,-0.4506786837550683,-0.14136094133863253,9.864449450062908,-0.007162678610705149,0.022822798083818676,0.00016351915808128278,0.9997138536522489,-3.764358818942843e-10,0.009573432050337928,0.0051269383891693245
1729497706.6232662,-0.452366536424916,-0.15113595078950764,9.883707039422509,-0.007642962928952549,0.022863167495196193,0.00017479314123905823,0.9997093728364814,-2.2586152913657055e-10,0.010000959844823073,0.004778923279349721
1729497706.6312432,-0.46535025632760585,-0.15747979679206395,9.872516677266788,-0.007972605957606434,0.023544617935196615,0.0001877699861102892,0.9996909788844565,-1.3551691748194232e-10,0.01025747652151416,0.004570114213457959
1729497706.6393049,-0.4669155639528135,-0.16176494472562897,9.86101405665304,-0.00819903317534255,0.023650976920102033,0.0001939759295361336,0.9996866356609221,-8.131015048916539e-11,0.011262766650452876,0.002742068528074775
1729497706.647232,-0.4494193957447349,-0.16960327713811174,9.851957702790653,-0.008604311828277204,0.022786644044359726,0.00019612157934817808,0.99970330408951,-4.8786090293499235e-11,0.011014560604892042,0.0016452411168448651
1729497706.6552289,-0.4384428544878565,-0.17358801608755456,9.849396932465407,-0.008808821643567945,0.022236515799383984,0.00019593355610691705,0.9997139108947105,-2.927165417609954e-11,0.011291327039017572,0.000987144670106919
1729497706.6632607,-0.44694040019271386,-0.16209248982831398,9.850733512262446,-0.008224399319482427,0.022664321054412104,0.00018645463195218257,0.9997092842630033,-1.7562992505659722e-11,0.011883076960954923,0.0005922868020641515
1729497706.671296,-0.44485632263515956,-0.166447921875504,9.847944157650437,-0.008447753897343837,0.02256496920398124,0.00019067866656269196,0.9997096684840852,-1.0537795503395834e-11,0.012238126914117332,0.0003553720812384909
1729497706.679283,-0.45485862390336135,-0.16331509711944303,9.844594603721122,-0.008291504612833114,0.023079514694260457,0.00019142147640142384,0.9996992299239562,-6.3226773020375e-12,0.012451156886014779,0.00021322324874309452
1729497706.6872923,-0.4512831980236574,-0.1504220746290877,9.841387770533453,-0.007639565363046278,0.022906428271284814,0.00017504619800302307,0.9997084084590591,-3.7936063812225e-12,0.012153284807691215,0.00012793394924585672
1729497706.6952543,-0.4455466400056007,-0.14723524428917137,9.841379031948978,-0.007477799698219846,0.022615857380552343,0.0001691648523287558,0.9997162481873887,-2.2761638287335e-12,0.012400251622159108,7.676036954751403e-05
1729497706.7032876,-0.4471325286810947,-0.15489995272584658,9.849035234110794,-0.007860879321401608,0.022678283854677427,0.0001783226284874428,0.9997118936067237,-1.3656982972401e-12,0.012548431710839844,0.0017488164675766348
1729497706.7112389,-0.44856290221842243,-0.15040081147925793,9.846446350427415,-0.007634589215985458,0.022756890887714706,0.0001737895891680951,0.999711861869112,-8.1941897834406e-13,0.013063029825510317,0.0036034302493181706
1729497706.7192538,-0.4621103951396472,-0.1508137888895079,9.854709247024026,-0.00764900858229689,0.023423441037189775,0.0001792205208675568,0.9996963553788171,-4.916513870064359e-13,0.012946098632850568,0.0051418885798251235
1729497706.7272418,-0.4659293279041008,-0.15752591981807973,9.85655452282379,-0.007987839855605744,0.023611965996818238,0.00018866722787847228,0.99968926866346,-2.9499083220386154e-13,0.01287593991725472,0.005213583455205232
1729497706.7355454,-0.4684601077287886,-0.15724363538694158,9.866520234446226,-0.007965455903388714,0.0237160854273871,0.00018896858313543796,0.9996869825576037,-1.7699449932231692e-13,0.012833844687897212,0.004830910318971265
1729497706.743228,-0.4673449537974294,-0.15300412190599305,9.855021989300546,-0.0077597820136051055,0.023687474678291357,0.00018386677113394392,0.9996892794861197,-1.0619669959339015e-13,0.012808587550282706,0.002898546191382759
1729497706.751274,-0.4781680294073639,-0.14447490966703333,9.85410854636353,-0.0073278634207039365,0.024237726165952784,0.0001776677160665205,0.9996793503329827,-6.371801975603408e-14,0.012793433267714004,0.0017391277148296554
1729497706.7593114,-0.47221202614051205,-0.14725824780217311,9.854997001597415,-0.0074683963697386975,0.023934067484339294,0.0001788053143953809,0.9996856263335885,-3.823081185362045e-14,0.012784340698172782,0.0010434766288977932
1729497706.7673564,-0.4707932056745416,-0.13504188105435075,9.849065730255324,-0.006853052065380062,0.02387714894607982,0.00016368185749731853,0.9996913977042342,-2.293848711217227e-14,0.012353195094986016,0.0006260859773386759
1729497706.7752886,-0.4694630730629281,-0.14518973312479797,9.84430986661999,-0.007371519490572517,0.023820847905506582,0.00017565046309706096,0.999689050181294,-1.3763092267303362e-14,0.012094507733073957,0.0003756515864032055
1729497706.7833648,-0.4696226741600225,-0.14792656204284754,9.849357213917306,-0.007506602117451595,0.023816622327509845,0.00017883767900170078,0.9996881450945808,-8.257855360382017e-15,0.01151360525446469,0.0019281511976900496
1729497706.7912924,-0.47953466162491976,-0.14071011325109914,9.858131706280071,-0.007134017150326778,0.02429714438228356,0.00017339184961483048,0.9996793108339452,-4.95471321622921e-15,0.01116506376729913,0.0011568907186140297
1729497706.7992299,-0.46608882065659246,-0.13566198347800323,9.844961048914527,-0.006887425179257544,0.023648770651990482,0.00016292857257117177,0.9996965902089143,-2.972827929737526e-15,0.010530248813537762,0.0006941344311684178
1729497706.8072536,-0.47071058487442424,-0.13071774428602068,9.85836704927059,-0.006627388329232298,0.023850661527453985,0.00015811605013894064,0.9996935523789032,-1.7836967578425155e-15,0.00972366977981891,0.002119240904549177
1729497706.8152351,-0.4720471224090295,-0.12727236043879991,9.85803094367368,-0.006452938513534707,0.023919217597796597,0.000154396631526776,0.9996930562806415,-1.0702180547055092e-15,0.009665412421049631,0.0029743047885776325
1729497706.8232183,-0.4769191877520583,-0.1211349873082018,9.85160435599913,-0.006145764460559179,0.024181631408593994,0.00014866089207311552,0.9996886796305905,-6.421308328233055e-16,0.009204767944326031,0.0017845828731465794
1729497706.8312607,-0.4800818471238912,-0.12583226924038984,9.858522310865101,-0.0063795494074547696,0.024324477578545122,0.00015522829770258962,0.9996837485145311,-3.8527849969398325e-16,0.00850269119682984,0.0010707497238879476
1729497706.839307,-0.4609104681376159,-0.1320025207239214,9.855729898970234,-0.006694388791717395,0.023361102544251118,0.00015643450343443756,0.9997046661764005,-2.3116709981638996e-16,0.007230065025408062,0.0006424498343327686
1729497706.8475854,-0.45587198522827266,-0.12445192381130597,9.860997636647765,-0.006308183773451576,0.02309410600654004,0.0001457236316647875,0.9997133828502358,-1.3870025988983397e-16,0.007317869445479058,0.00038546990059966114
1729497706.8552012,-0.4554825173088386,-0.1314137336324867,9.858891035601939,-0.006662441765505737,0.023079065004922225,0.00015380731064255955,0.9997114308496882,-8.322015593390037e-17,0.007796242158983687,0.00023128194035979666
1729497706.863214,-0.44088362659624064,-0.13654850018925765,9.85523287331429,-0.00692541737895553,0.022348552958563073,0.000154815439184166,0.9997262409314689,-4.993209356034022e-17,0.008934645910010528,0.0018415294100640044
1729497706.8712106,-0.43332139299875994,-0.12646125099246083,9.840588127308886,-0.006423477416317098,0.0219987904556313,0.0001413458579419317,0.999737351596768,-2.995925613620413e-17,0.009191998099164602,0.0028076778918865288
