Time,Denoised_Gyro_x,Denoised_Gyro_y,Denoised_Gyro_z
1729143856.492628,0.0057484538537388406,0.006083521951700914,-0.00072945070217540796
1729143856.50203,0.0074931278961326044,0.0049271833554066433,0.0014779348552738975
1729143856.50966,0.0093913124444929275,0.002956310013243986,0.003015211220474497
1729143856.516959,0.012232983419357246,0.003476546253794518,0.0041504220703258727
1729143856.524523,0.033094038770067259,0.0037886879981248369,0.0080242240412019342
1729143856.53528,0.16799656465082732,0.021642110595397342,0.026311882528553758
1729143856.540552,0.46348587115614731,0.081734211283356506,0.036645942528771805
1729143856.54854,0.78977097657105033,0.13949966483069562,0.019646270179221905
1729143856.556643,1.0623790959138888,0.12116052430707616,-0.034399609561097284
1729143856.564551,1.2727698742804154,0.061202682924770838,-0.13493754723921386
1729143856.572409,1.4405091222928794,0.047789551352875326,-0.26592486004878102
1729143856.580494,1.599897899582118,0.079543693156437972,-0.35090259865645179
1729143856.588418,1.7140486836292599,0.10455583909904401,-0.37102671236505702
1729143856.596393,1.7593390457078641,0.08678499193203118,-0.40757835912428692
1729143856.604561,1.7675700552199662,0.032276407301234239,-0.45952049651289806
1729143856.612403,1.7405819063175754,-0.052362930975611788,-0.48813163857729258
1729143856.620554,1.6330784987925349,-0.14869537051815679,-0.48592942601940692
1729143856.628543,1.4768402460324428,-0.22671511216313026,-0.46587773578034608
1729143856.636458,1.2956179867459401,-0.30204819126807042,-0.4040409844458519
1729143856.644663,1.1019594639123631,-0.3787491032792249,-0.2994670589034234
1729143856.652344,0.93085033228361491,-0.45776063024922503,-0.18542705117179142
1729143856.66033,0.7858286921908938,-0.53858421625599462,-0.066345929218830535
1729143856.668417,0.67391283953973224,-0.59154811350540759,0.05852684666643098
1729143856.676434,0.57313381309353484,-0.55989863269721263,0.22199404498169048
1729143856.68477,0.4788240373395849,-0.45002411609015203,0.38541778840526802
1729143856.692583,0.40904177998189195,-0.3317395285660858,0.48070504905991135
1729143856.700392,0.32971170015861739,-0.26119446611310804,0.56001328864872302
1729143856.708541,0.20740504647806612,-0.22355001931740381,0.6599581099618399
1729143856.716575,0.026534313750572379,-0.13051164606801502,0.74887192692912818
1729143856.724548,-0.18117391020657719,0.017473276188148111,0.79647340127976374
1729143856.732435,-0.39987634816397599,0.1997031980327619,0.74734584967332429
1729143856.740359,-0.62091841390690394,0.36161387373009107,0.59676049622351257
1729143856.748329,-0.78653463311596816,0.44024276147489022,0.44383284511870685
1729143856.756389,-0.92655776551103075,0.46273007055697185,0.35612031003971278
1729143856.764385,-1.045265384957224,0.4528095026258091,0.30030011353135111
1729143856.772386,-1.0751980206631226,0.4049266908131014,0.19444068517778873
1729143856.78083,-1.0399463444039081,0.33341515254854254,0.027908033291839628
1729143856.788848,-1.0090044672347525,0.27369347216205697,-0.12649988570686987
1729143856.796429,-0.98745951050302483,0.21657596085706404,-0.22404007281290894
1729143856.80479,-0.96772149548059583,0.15548698020196033,-0.27170908850925057
1729143856.812537,-0.95332454609836614,0.095420638428486346,-0.30094903301924858
1729143856.820547,-0.95298733266753799,0.028943993969866709,-0.32530404070863994
1729143856.828431,-0.97215390240556343,-0.040740297007647287,-0.33778859501496455
1729143856.836413,-1.014303528673645,-0.11745745663404226,-0.33463707606220855
1729143856.844363,-1.0700301438290294,-0.19818149241903482,-0.32614796873789342
1729143856.852351,-1.1447580488840772,-0.26002515082608435,-0.3389334869247097
1729143856.860345,-1.2589822719354169,-0.254988029785573,-0.35150023354361282
1729143856.86839,-1.3771096979265474,-0.17981129174345178,-0.32562361169018517
1729143856.876427,-1.4556485746275423,-0.065317768899867915,-0.24922395978905809
1729143856.884444,-1.4908525789272022,0.048288646290526746,-0.14996006593489686
1729143856.892555,-1.4843051275119661,0.1145368901281844,-0.046768498322541902
1729143856.900766,-1.4469599868380549,0.12448753212843677,0.06005674372911541
1729143856.908434,-1.3996500338381794,0.088314601243847074,0.13330422528154348
1729143856.916457,-1.3220968599393894,0.012761049938146255,0.14809294500285114
1729143856.924452,-1.2187353323949341,-0.074075861837822318,0.12780640762548656
1729143856.932439,-1.1084025938923205,-0.14490837160773284,0.1073335290005582
1729143856.94037,-0.99218436856896353,-0.27105597454696839,0.084407550289050406
1729143856.948332,-0.88967529864237294,-0.47019465413449885,0.049367459989044155
1729143856.957397,-0.78730361078606359,-0.73079411726168064,-0.018056810890321049
1729143856.964597,-0.68246021180315075,-0.99783321111811796,-0.10640150533241872
1729143856.972809,-0.58294482712766826,-1.1618878779851385,-0.20240301820534254
1729143856.980446,-0.49833272772685,-1.141127460895982,-0.32981709600886999
1729143856.988454,-0.45395081900828949,-0.97010166274788134,-0.45841257522008533
1729143856.996533,-0.4539273026185302,-0.71700474713219275,-0.53173865219365624
1729143857.004407,-0.46306552910610826,-0.45106166129095521,-0.55402410524323509
1729143857.013216,-0.44513551161824338,-0.27148837689749716,-0.54376957866183973
1729143857.020411,-0.40181221142367896,-0.17906924847405548,-0.49568639165899236
1729143857.029561,-0.34325294160509495,-0.1738491986725102,-0.44086938570810008
1729143857.036391,-0.23085463355858582,-0.30629945336724013,-0.46480880534274582
1729143857.044558,-0.085514367483128545,-0.47495167406037375,-0.56558753960032571
1729143857.05288,0.051708374383934545,-0.44503046754594816,-0.6364841866606934
1729143857.060402,0.23195073364043964,-0.26084577463636943,-0.58281622100649488
1729143857.069556,0.4243827813638249,-0.081798858995235091,-0.45313241753917055
1729143857.076479,0.59901292854107857,0.075009337519041167,-0.34126693054181345
1729143857.084559,0.76423900557503921,0.21208895163527211,-0.26201547159173133
1729143857.092506,0.91105193867916312,0.33924702158925502,-0.23191788874162536
1729143857.10107,1.0161673010001189,0.44725577314056608,-0.20768683314036232
1729143857.108407,1.0530565796127771,0.51461516444012489,-0.15802876970898688
1729143857.116796,1.0230431142512733,0.54417570265257842,-0.10226683790097768
1729143857.124669,0.95948619845793359,0.5485027886439966,-0.053271991572808014
1729143857.132418,0.90964557229172394,0.55152473030030946,-0.037284320711960195
1729143857.140434,0.8895320680056249,0.5431213338190084,-0.090693847291832205
1729143857.148708,0.89108604740075048,0.50615254132057541,-0.18893436779710132
1729143857.156381,0.9022349965129145,0.43608113390703707,-0.30087709275228569
1729143857.16442,0.92169506782407384,0.36317576000291674,-0.41912553510084016
1729143857.172383,0.94571612239316849,0.311982959584859,-0.52859955107228662
1729143857.182579,0.96842971133313493,0.2663681271828533,-0.60407483206878121
1729143857.188422,0.97737527402103241,0.23516801718849153,-0.62892687771650058
1729143857.196893,0.96741776942113766,0.23581684898839694,-0.61850954644814127
1729143857.204438,0.95122670518611208,0.24855115985073911,-0.58224799835405239
1729143857.212567,0.94300198186021389,0.22383930169703001,-0.50983395218361727
1729143857.220546,0.94849655437049474,0.14962842323085113,-0.43573584005609001
1729143857.229494,0.95690157861420766,0.064235650250788784,-0.40532474480782066
1729143857.236495,0.930443528612245,-0.014457022501549663,-0.37239178053841904
1729143857.244792,0.86923270706536115,-0.080828678918744151,-0.3009106595091412
1729143857.252557,0.7799334915466698,-0.1455545413645897,-0.16437017336992749
1729143857.26035,0.6761225349829354,-0.2227021643636799,0.00013799023723484738
1729143857.268834,0.57722661575895984,-0.31751940516980559,0.13396231847214984
1729143857.27705,0.46425211648035869,-0.44464860979471621,0.25065341566810256
1729143857.284846,0.34666167972214024,-0.55774832288612841,0.34897646307289931
1729143857.293145,0.23417694661319907,-0.56877852753579439,0.44521817189370505
1729143857.300399,0.13859056269134029,-0.48621458244929838,0.54170099277923334
1729143857.308421,0.09017822362892769,-0.37090710090151691,0.60938155672417715
1729143857.316398,0.11008517725961378,-0.28703630485240794,0.63466505287851027
1729143857.324548,0.15055058355598155,-0.2648093712794366,0.62280383166827114
1729143857.333284,0.093523025594554166,-0.26360537788732175,0.60227786200607369
1729143857.340428,-0.047116024547810151,-0.20392490833956145,0.640619397522737
1729143857.349046,-0.18173088188574849,-0.097452076408208022,0.74854948609441019
1729143857.356517,-0.31124130832591412,-0.025693111112348382,0.87269130281136764
1729143857.364442,-0.43109088027475462,0.015872352850050293,0.98761694868043493
1729143857.3724,-0.55280636063511657,0.0516667277947713,1.104462468116354
1729143857.380532,-0.67606707610385353,0.090809490312278224,1.2137332654324124
1729143857.388438,-0.75875015164506732,0.13302551052711176,1.2641837466401453
1729143857.396728,-0.80580585660102344,0.20624525457049048,1.1971838563207107
1729143857.40471,-0.83425212460532816,0.31615906052313258,1.0256585381680132
1729143857.412735,-0.84961712516206278,0.46767104644858615,0.77417751582614558
1729143857.420427,-0.87352243261654361,0.6518043614640433,0.53687381994423267
1729143857.428864,-0.90659597979356155,0.81102586251072017,0.39619436266093305
1729143857.436546,-0.89728033888962311,0.93571853234887548,0.21770918470784431
1729143857.44484,-0.85401738390787019,1.0318186373248701,-0.025815586762590027
1729143857.452454,-0.85147256429923024,1.1192770046128091,-0.26409234795138048
1729143857.460376,-0.88974769328074632,1.1964420485503704,-0.4658036331464151
1729143857.470105,-0.92825045791302008,1.1648397936653554,-0.60875344242873042
1729143857.476515,-0.96454850859770724,1.0060392555440689,-0.67047183952551492
1729143857.484712,-0.99079708465387084,0.83966869240713793,-0.6674880120061546
1729143857.492544,-0.98100482659984711,0.72281875206649804,-0.65250132358921542
1729143857.500453,-0.94447978734216664,0.63291420000412968,-0.63733680464785247
1729143857.50917,-0.89915181040714665,0.53916944802000866,-0.61142333585528452
1729143857.517033,-0.83151446840724164,0.43056271926970613,-0.56565126021593937
1729143857.524443,-0.74623460675378528,0.32389390102697657,-0.51371083629826564
1729143857.534033,-0.64887931809308097,0.19476203067764797,-0.44636292672338862
1729143857.54042,-0.55811370022554407,0.047682583419008634,-0.373601736307348
1729143857.549802,-0.48407258667776859,-0.091860737342349758,-0.32185691088994506
1729143857.556503,-0.39707891240290011,-0.25561646135402677,-0.32039547491111453
1729143857.564539,-0.30124947653812073,-0.45071438474364511,-0.38124367223581074
1729143857.572411,-0.20160849893451199,-0.69697007243114273,-0.47330514365142357
1729143857.581159,-0.10308611677930185,-0.95114600040914932,-0.55216782491193406
1729143857.588459,-0.024178099628191306,-1.144092113034846,-0.5937386178385029
1729143857.599352,0.032957582076101742,-1.2547514998727198,-0.61655264328713411
1729143857.60537,0.06958028643671875,-1.2617633684014908,-0.64003192996993952
1729143857.613247,0.088361233592123709,-1.0848393683666588,-0.69456005781851582
1729143857.620409,0.096011436362939406,-0.77116106338301926,-0.76963309564313365
1729143857.630313,0.10698690894735931,-0.47738294515025165,-0.80297044164769849
1729143857.636386,0.13294109029453369,-0.2406680854829826,-0.72953388075952152
1729143857.644533,0.16234852610035433,-0.10204469017431742,-0.58458339966011374
1729143857.652395,0.19765912513452105,-0.12061057767854386,-0.45248996448549383
1729143857.66037,0.25141077425686648,-0.21646243241202401,-0.37578804374949404
1729143857.668404,0.32133533416966353,-0.17989604166900311,-0.37595426297652457
1729143857.676428,0.39734527503430433,0.023387758959634908,-0.34497862002601465
1729143857.684444,0.46849264324081064,0.25156770967159459,-0.22529184465847613
1729143857.692783,0.54246928368217373,0.44913651385710984,-0.058125205670457959
1729143857.700689,0.61409943188056171,0.59875317085514734,0.10475121675727159
1729143857.708458,0.68794005025559168,0.662556071304786,0.18842929818566226
1729143857.716447,0.75821151502979367,0.69402677059117668,0.1679715968399994
1729143857.724423,0.80080008395577695,0.72823403237564421,0.093971917120607151
1729143857.73259,0.82230916972747747,0.74577855901609036,0.013814144126161124
1729143857.740383,0.84287704229681437,0.7445987983101523,-0.058544853173842289
1729143857.748953,0.89033719590903415,0.72367066396714286,-0.10940982762942988
1729143857.756324,0.97457868612789222,0.67727142347510583,-0.17951798801875135
1729143857.764438,1.0623714606371348,0.61707943450876912,-0.28352078819506987
1729143857.772404,1.1454839647372157,0.56436232873194792,-0.43318893090057742
1729143857.780453,1.2296195171449578,0.529965079866352,-0.59620850709535156
1729143857.788452,1.2986183662632014,0.48293394673634837,-0.69551016802733301
1729143857.796405,1.3221386931527421,0.41278479580433614,-0.73678649194365453
1729143857.804419,1.2932561930788014,0.35558330806322669,-0.75005865463397259
1729143857.812446,1.2184585347370627,0.30976878375908617,-0.74248426500479925
1729143857.820484,1.1250512727253479,0.26440108659519657,-0.72942582999805461
1729143857.828454,1.0594288891354233,0.20482802362574837,-0.74138535685199236
1729143857.836446,1.0189912338278133,0.1052306766247747,-0.75111521333312714
1729143857.844403,0.9813194037071935,-0.0090160594429495346,-0.72311076733557655
1729143857.852345,0.90635642807499162,-0.10651102526300224,-0.65224546193136812
1729143857.860336,0.79795082353782776,-0.18416405752082526,-0.55566364088316511
1729143857.868388,0.67927051307131348,-0.24012105822768379,-0.43598948934224868
1729143857.876774,0.56059788493838847,-0.27667508908203314,-0.27010749483458985
1729143857.884504,0.46236298915579443,-0.30626992870095932,-0.090122876513670541
1729143857.892442,0.36085304554003483,-0.35531505198977431,0.093853570449853679
1729143857.900389,0.25418539776341065,-0.41411474020394345,0.26894432797019702
1729143857.908419,0.1618764200102111,-0.4576955093309546,0.42401736470419171
1729143857.916432,0.1096837088192566,-0.48724949129885758,0.59623953817652642
1729143857.924404,0.10348379573094374,-0.50242774011082714,0.74150331331393726
1729143857.932426,0.063367347622952333,-0.50153097295365112,0.80780276538474438
1729143857.940364,-0.034985436966967015,-0.47055607326481019,0.8503494220267318
1729143857.948336,-0.17104700884554636,-0.32915955071970959,0.94164653050780811
1729143857.956349,-0.33037238818951475,-0.1132090982623435,1.0502745883714009
1729143857.96435,-0.4981220812137101,0.07893761224699479,1.0777778526501667
1729143857.972374,-0.66070980097095289,0.26957277943137736,0.97104253842416788
1729143857.980447,-0.79508462314176431,0.43418530699452668,0.77908148641922836
1729143857.988779,-0.9223225781743436,0.51826651641197619,0.53662352683911707
1729143857.996432,-1.0440013427395973,0.54892065420446134,0.30835203413668527
1729143858.004393,-1.1519151865186363,0.56837736203360767,0.18756536085078335
1729143858.012433,-1.2149607325402116,0.58728811777594991,0.083592292331051837
1729143858.020435,-1.2189457002669255,0.60565845723547862,-0.068186461687813671
1729143858.028421,-1.1902613064162253,0.61135953514292063,-0.24226327608422912
1729143858.036454,-1.1360156347586083,0.59434705893720818,-0.40268760780433555
1729143858.044355,-1.0574937051261388,0.54582746768219792,-0.50809454315783309
1729143858.052327,-0.98718043899697649,0.50373216605459981,-0.5553753270651054
1729143858.060323,-0.95159067527214058,0.50167509342772165,-0.56267213936709826
1729143858.068385,-0.92619276145334983,0.47511229119460391,-0.57556402797753448
1729143858.076427,-0.91372099856157862,0.37637789290036811,-0.60628642446274605
1729143858.084454,-0.92943804917619643,0.21220465377343584,-0.61982442664705961
1729143858.092564,-0.95972709255660671,0.082199645749086142,-0.56388087370761197
1729143858.100389,-0.99067122042871381,0.053363843033340977,-0.44432534952861302
1729143858.108431,-1.0179643434119496,0.070756101413049458,-0.28319712211418707
1729143858.116439,-1.0273163311877678,0.087576807362805015,-0.10542622895701444
1729143858.12444,-0.99567964347533078,0.066381011415199032,0.077647672969723802
1729143858.1324,-0.92306068310365275,0.020246864021865971,0.27475847672548326
1729143858.140335,-0.85032953767049668,-0.022545621596035993,0.44070224586268647
1729143858.148308,-0.80626516034914109,-0.089513048928594241,0.54473825299035972
1729143858.156374,-0.77450540818805225,-0.18801304374842753,0.59715614082260593
1729143858.164332,-0.71671176129835412,-0.33480519330150599,0.59433882357426016
1729143858.172375,-0.61328662823841706,-0.58187572098942186,0.51879120756159014
1729143858.180528,-0.4973817556275078,-0.86037919640955307,0.41705870481026897
1729143858.188428,-0.39676345757423398,-1.1070853231550317,0.29237853897090249
1729143858.196415,-0.31532082069989908,-1.3083202568850729,0.12093879551540146
1729143858.204437,-0.25134324139339603,-1.4426832990898824,-0.11516603979551504
1729143858.212442,-0.18230700938422797,-1.4453998431652164,-0.37538362309924078
1729143858.220434,-0.11470533139881217,-1.2716454642880599,-0.56301523762966654
1729143858.228428,-0.075421394791948787,-0.95774048169171533,-0.68410800757716261
1729143858.236416,-0.054405173196602957,-0.66127221652255264,-0.7695343713895213
1729143858.244546,-0.024342147719452159,-0.50765559092439072,-0.83483796170518343
1729143858.252334,0.036903208805234532,-0.45805462171169686,-0.86593200472680221
1729143858.260421,0.13771677697008231,-0.47426856682197993,-0.85755711163693438
1729143858.268396,0.28781267580674857,-0.40758556785571509,-0.84848812019912434
1729143858.276458,0.44214941438951516,-0.18538042217020664,-0.84985776631983101
1729143858.284445,0.56689105717955846,0.11970860504102818,-0.77426818795982022
1729143858.292407,0.68856194961440798,0.39769090507380211,-0.54714478469952621
1729143858.300394,0.79200132446985283,0.58150788755194771,-0.27358569792184467
1729143858.308429,0.87705221270206946,0.70627153912854423,-0.063901409278798352
1729143858.31645,0.95000578380669409,0.78261964528961914,0.073402795566504281
1729143858.324438,0.97738885910318074,0.79139347363906731,0.17217438583997408
1729143858.332426,0.95359099347291076,0.73855107725916891,0.26144848933712916
1729143858.340358,0.92271036169772946,0.67832440531327376,0.3324662439553655
1729143858.348333,0.91184440373893727,0.64580676766816403,0.39167880912332659
1729143858.356577,0.91362578516217163,0.63225584594156659,0.43125040380799251
1729143858.364329,0.91597168420049824,0.61901701216806371,0.38879855606144614
1729143858.372383,0.92419026460688669,0.58872498367720538,0.24349569511195646
1729143858.380564,0.93933797432580857,0.53223766105110748,0.08884210380053062
1729143858.388449,0.95119358555666489,0.41895407101277993,-0.014592302522875675
1729143858.396455,0.95809410726444766,0.28223497206366521,-0.10262004006610337
1729143858.404434,0.95946743488961417,0.20509894840100978,-0.23397649893178482
1729143858.412434,0.96667678238664456,0.15136775812783096,-0.39175588065240058
1729143858.420437,0.98270886757506859,0.068259081619210904,-0.51196491337249195
1729143858.428429,0.99424372396470218,-0.028219186016053603,-0.59515827460255954
1729143858.436396,0.99754627227605508,-0.10547504439373474,-0.64549998140206211
1729143858.444358,0.97611484788245506,-0.17524151280075517,-0.63526444964287065
1729143858.452359,0.9079162852562308,-0.28563749374035446,-0.56995221204413338
1729143858.460353,0.81868132570455576,-0.41360014121610861,-0.49670966456792853
1729143858.468393,0.72171996370442359,-0.51762189363513111,-0.40785383459796126
1729143858.476424,0.617781464897176,-0.59557263232990887,-0.2794060407679323
1729143858.484442,0.50901814891346586,-0.66235050843549093,-0.088039582967359462
1729143858.492436,0.39118743673267886,-0.74754038061381556,0.14682488904527713
1729143858.500383,0.28792371972236125,-0.84484167558944079,0.35202277153362588
1729143858.508427,0.20021124079771779,-0.89087744079241693,0.5366537149078987
1729143858.516428,0.12821485564640928,-0.8527297854183189,0.70128207370740936
1729143858.524446,0.095020740999981909,-0.73278385818051672,0.81878945169144512
1729143858.53243,0.1249100094031832,-0.6029224534789992,0.88439844277505331
1729143858.54035,0.16583083376405366,-0.54011760783999074,0.8911985477233727
1729143858.548322,0.12206007351591988,-0.49690072965757925,0.86760875669733228
1729143858.55633,0.022791771826301179,-0.40371157303713134,0.87452654012407871
1729143858.564344,-0.099132803191657667,-0.21647269510382591,0.99744473732803329
1729143858.572412,-0.25210443472656391,-0.023035411635325607,1.2035852647650978
1729143858.580578,-0.39539591108441347,0.098135239183318942,1.3540880550994445
1729143858.588477,-0.5492683617023173,0.20851120011389546,1.3254093571214147
1729143858.596396,-0.71630043785964603,0.32007276821794778,1.1451628447946387
1729143858.60441,-0.86164283006901876,0.41106119755298393,0.89696290717756477
1729143858.612421,-0.95246663091706962,0.46224873466230931,0.65183699071690127
1729143858.620426,-0.98120666270744716,0.46444002280994845,0.48666961322836677
1729143858.62843,-0.97354781318614481,0.42382432464452185,0.30434677971941893
1729143858.636415,-0.93936704420175221,0.36965660144292367,0.062350625468627428
1729143858.644369,-0.89267864403120178,0.35822762556433535,-0.20651002993656764
1729143858.652331,-0.84848938159331422,0.39330071109119247,-0.45551857584086319
1729143858.66032,-0.81580331823938224,0.46521452475201952,-0.6496211598369539
1729143858.668386,-0.80321556624114665,0.58413564388875738,-0.76267718974291199
1729143858.676457,-0.81460612277726563,0.71742621931352568,-0.77325549441984354
1729143858.684518,-0.84017081940326643,0.80101893009081393,-0.75299684838462555
1729143858.692436,-0.87062163456076902,0.8205248721319206,-0.75084537720785249
1729143858.700383,-0.89357471433135294,0.82861007183415736,-0.71954334516871543
1729143858.708423,-0.91245484293124768,0.78429398955663465,-0.57731200812124406
1729143858.716459,-0.93123249616677006,0.64723776924072385,-0.3700130032838892
1729143858.724447,-0.94037063780077335,0.48561284058850857,-0.17539474024024104
1729143858.732421,-0.92520755480026684,0.36288363467872642,-0.025632802650744704
1729143858.740348,-0.86311129234794004,0.25795789161539784,0.10807043623354236
1729143858.748334,-0.7583816601348119,0.092623985995782088,0.30429292131251817
1729143858.756379,-0.65510332496804202,-0.099589635805441251,0.51780667618886078
1729143858.764328,-0.57100044067195443,-0.29260624510299604,0.68529125979990424
1729143858.772416,-0.49925420702120027,-0.48440188665250156,0.80706651303963195
1729143858.780599,-0.42385402215963341,-0.66631261123174379,0.87885459479908246
1729143858.788419,-0.33668344018868313,-0.88571277189795528,0.89447043489045175
1729143858.796422,-0.25309287148865367,-1.1156872724954114,0.88085267562632352
1729143858.804402,-0.17484298621214189,-1.3377457599926363,0.87566185049808087
1729143858.812424,-0.10767277712678834,-1.535047206741007,0.87020606008309409
1729143858.820412,-0.057792625292680498,-1.5702056677742022,0.79392674029336363
1729143858.82844,-0.032121434806836109,-1.3045984879994412,0.61427962408971637
1729143858.836405,-0.021188466160680808,-0.89918532460953049,0.43689102931848589
1729143858.844358,-0.01037178435836731,-0.59208391735627919,0.39260862142920416
1729143858.852339,-0.0017533249696690544,-0.40143772208239792,0.44436614800464902
1729143858.860326,0.034493125150278213,-0.32642633560330708,0.40624602896233575
1729143858.86839,0.13925055720734275,-0.29163606519094132,0.21288508792140415
1729143858.876448,0.28213474799644339,-0.19520191703401127,-0.016577878082786213
1729143858.884413,0.39681218664932194,0.0031362921426171808,-0.20065587438466187
1729143858.892595,0.46519295977958697,0.22026077681559253,-0.33898537119155037
1729143858.900396,0.50834987396505626,0.36692453498566591,-0.43219963075077217
1729143858.908391,0.550420244811895,0.47173754731546019,-0.48791534145557425
1729143858.916431,0.58736894401020412,0.53973363545088116,-0.50750984088093953
1729143858.924427,0.6216703302808575,0.57244317716435522,-0.47350485892899025
1729143858.932423,0.6586402294095377,0.59015329691586049,-0.4018062173516459
1729143858.940379,0.69784977134522708,0.62057395662474812,-0.31664371632049815
1729143858.948336,0.74308568964120436,0.69033484988698657,-0.218507463910255
1729143858.956365,0.79300165890700924,0.7945549798485172,-0.1338714637456562
1729143858.964352,0.86722300685854359,0.90987262544672742,-0.079471498124469658
1729143858.972385,0.95815603232882562,0.98417149354319799,-0.050662729304916013
1729143858.98056,1.0559233888493911,0.96787713561200983,-0.045935324826313767
1729143858.988478,1.1724776511205666,0.89594977187984026,-0.081198142640004245
1729143858.996442,1.2717828227241521,0.80085916614217068,-0.1396037137061463
1729143859.004561,1.3060373670293124,0.66654205654421017,-0.18975905352773365
1729143859.012432,1.2840210874662055,0.54678830513092702,-0.23347433938747109
1729143859.02043,1.223559722906056,0.48791960115754912,-0.28630913974469052
1729143859.028432,1.1174697340901931,0.39534306550687903,-0.35696066058279807
1729143859.03639,0.99528335734964601,0.25316921660895358,-0.43234255284897
1729143859.044346,0.88578787608104503,0.13295832223031173,-0.50375162698858822
1729143859.052326,0.81115109602918178,0.039760127560756073,-0.54787414165674519
1729143859.060312,0.79638017733113708,-0.065113146309110956,-0.50964276111541063
1729143859.0684,0.79305159691131666,-0.21296227789270647,-0.38581538822410832
1729143859.076457,0.75465794840442069,-0.3644610409085135,-0.25107097576171844
1729143859.08451,0.66585264480439921,-0.48622282817399493,-0.11786445072445462
1729143859.092477,0.54978017857873662,-0.57354051759226188,0.039960745545455437
1729143859.100381,0.45395676006342423,-0.63848898805635201,0.26683262739136232
1729143859.108432,0.37943510649575551,-0.72258121684978138,0.56173814942424416
1729143859.116404,0.31599175165082483,-0.81666978542569724,0.82105248953687648
1729143859.124433,0.24621182916494511,-0.86162929491177187,1.0253826056418585
1729143859.132398,0.18284652756958467,-0.84795159973379264,1.2058745236636839
1729143859.140342,0.13759061556751387,-0.81420357893928319,1.3475863443015486
1729143859.148319,0.043390883686001414,-0.75181145037783637,1.3970683165521878
1729143859.156351,-0.10124679816554662,-0.62115004978078336,1.3792930580495548
1729143859.164353,-0.24187920005142244,-0.35119268176463736,1.3656480725177409
1729143859.172381,-0.3694661824213441,-0.024901897230605603,1.3457546045084463
1729143859.180564,-0.49369565872704463,0.24579402430713099,1.255917242455318
1729143859.188464,-0.63357676894488679,0.48568716841586268,1.065794005555591
1729143859.196438,-0.77007815766615295,0.65729290887613379,0.81677631393229067
1729143859.204441,-0.89518653213730892,0.71768734700609327,0.49283277375887757
1729143859.212424,-1.0006883962145379,0.70773663821543853,0.15586047906504913
1729143859.220428,-1.048664672448242,0.69197534152741902,-0.13082237495146115
1729143859.228426,-1.0187052097067042,0.66549096105612604,-0.41755555892538487
1729143859.236405,-0.9492210346248755,0.61256529742615351,-0.66558114528071166
1729143859.244366,-0.88624602650267681,0.51163526426058969,-0.83078556446019602
1729143859.252328,-0.83930868530792391,0.38743658017267779,-0.92756692062984558
1729143859.260325,-0.81093343556034114,0.29886959769168364,-0.96052002070537534
1729143859.268434,-0.82647357541363697,0.25466889949378979,-0.92175949729966389
1729143859.276442,-0.88155934093278288,0.24922013861742401,-0.83975795477447668
1729143859.284457,-0.9292971073647105,0.2695766805027473,-0.76033303489555992
1729143859.292421,-0.96602787839164561,0.28008784538809317,-0.71012394259943779
1729143859.300388,-1.0278683617545066,0.29022575487245894,-0.64509190218187795
1729143859.308415,-1.1105214883486607,0.34590139272340514,-0.52306311594624577
1729143859.316431,-1.1826749375626409,0.44763003029862886,-0.32490581116576034
1729143859.324423,-1.2270312322446837,0.46907803712779417,-0.031265658067305024
1729143859.332431,-1.2381073218105456,0.36977751003004805,0.26794286155429525
1729143859.340358,-1.2134647560326033,0.25485748578133627,0.48812137419687951
1729143859.348324,-1.1546202952045177,0.16057691257511833,0.62725236779655358
1729143859.356379,-1.0669537411478363,0.063142322751032529,0.72030899033925366
1729143859.364337,-0.94581770881844041,-0.077689458036322045,0.792532031231162
1729143859.372388,-0.82545880253705539,-0.24264394812505879,0.83033188496730048
1729143859.380527,-0.72450937961953721,-0.41611240293415641,0.81959512738421414
1729143859.388437,-0.63392857653595314,-0.57659740896333411,0.78101347319397885
1729143859.39644,-0.53850100375471666,-0.72737674044798073,0.69911925219807736
1729143859.404419,-0.4290974275568758,-0.92809806525743499,0.50737654901075591
1729143859.412453,-0.33216706232071203,-1.1470781093715678,0.2631339934446365
1729143859.420433,-0.26464366182684906,-1.3565802621183303,0.033366053089137634
1729143859.428425,-0.22391677649980027,-1.5548617092456642,-0.17068951568150759
1729143859.436381,-0.2011834055494191,-1.6312615713758614,-0.32739090689158828
1729143859.444557,-0.19073605844015565,-1.4331810834362355,-0.4488687505819377
1729143859.45233,-0.18936308588141096,-1.1155355319696914,-0.55197945115995162
1729143859.460342,-0.19130628774566732,-0.93090786195023312,-0.66194884845196944
1729143859.469752,-0.16160967940822388,-0.84737542387212839,-0.75623887591440531
1729143859.476484,-0.029068242841740283,-0.74319332321958753,-0.76343284526227118
1729143859.484484,0.16794707606167059,-0.44016917810201506,-0.68878372046978387
1729143859.4926,0.31723164189044545,-0.0046434144001007566,-0.6131317161382942
1729143859.500381,0.39211607426727024,0.33414763500713757,-0.53304677353024477
1729143859.508416,0.4419421694001785,0.55402417704849982,-0.40752021677932537
1729143859.516431,0.53547849066849718,0.73171178388048552,-0.22599461239399682
1729143859.524481,0.66545750909315082,0.86939972246640518,-0.042796334037675195
1729143859.532422,0.77409460457320933,0.92349125150000089,0.067335478006848803
1729143859.540397,0.82842176529396261,0.89251834976231548,0.12064386338970223
1729143859.548335,0.83505096797723066,0.81433800011501989,0.15369311977306938
1729143859.556377,0.81902105669847602,0.76806832541883563,0.1818236298015993
1729143859.564369,0.81514992576096068,0.80862977546578119,0.21040841250892311
1729143859.572384,0.84177417137786958,0.88745497336108858,0.23245471784013072
1729143859.580546,0.89840211961763894,0.91325274399444045,0.20566763526142434
1729143859.588484,0.97005245900089032,0.89829456697991628,0.13361714263194338
1729143859.596429,1.038371221287832,0.85781859622301138,0.051223361399747883
1729143859.60442,1.0906432652887408,0.75946294307447493,-0.048657179622820165
1729143859.612427,1.1143440705829695,0.6442584630723649,-0.16413805725715611
1729143859.62043,1.1243076531448866,0.56172653813504492,-0.30515535919410997
1729143859.628419,1.1309243377742297,0.48815589470004817,-0.44638251853073252
1729143859.636386,1.1236135619230918,0.36270670689980206,-0.5538932324209247
1729143859.644365,1.0843205113725225,0.173990792840023,-0.63372450296767313
1729143859.652334,1.0290307714632596,0.0028673960453192704,-0.68162326529572226
1729143859.660319,0.97244397413729022,-0.098103881785654851,-0.70270010158623519
1729143859.668389,0.91593032248422079,-0.15889949351497035,-0.70534248691618517
1729143859.676445,0.85052106694418883,-0.27540659210742158,-0.68287642964155038
1729143859.684455,0.748273384523789,-0.47386924982442591,-0.6106515667950092
1729143859.692445,0.62732816646686462,-0.65765173379685726,-0.49580071876146309
1729143859.700446,0.50431676334945919,-0.77792494062467377,-0.32515028525190992
1729143859.708427,0.39028221067085406,-0.86583939699545887,-0.12187148057967651
1729143859.716396,0.29695861046816208,-0.97584338408457327,0.088213644946304071
1729143859.724334,0.21180468113639772,-1.0773908964701215,0.32345422102690352
1729143859.732337,0.1400663555564306,-1.0897907368947788,0.53803010227746362
1729143859.740345,0.10191879591526369,-0.97548328357143199,0.69380694993063874
1729143859.748334,0.11116985977094693,-0.79579370553583384,0.79706392993617048
1729143859.756397,0.17482719147392417,-0.65371190876678142,0.86838329929165425
1729143859.764368,0.1893957920845678,-0.58676750334821737,0.88158946163333329
1729143859.772497,0.1032080687449209,-0.54255680451318955,0.85865062958234351
1729143859.781372,-0.0044828083411243939,-0.31489183117136293,0.905122474048627
1729143859.788608,-0.098682793864362781,0.026038382335508231,1.0196335082359207
1729143859.796696,-0.17286892272898011,0.24868833805176724,1.1198411932964869
1729143859.804551,-0.27101754779196652,0.3803627062049435,1.1082370289764745
1729143859.812534,-0.40397679352415183,0.47086095875632411,0.97335466691512662
1729143859.82055,-0.54930861042861578,0.53473793667004821,0.7657824563933634
1729143859.828544,-0.68993180328477921,0.57668248894070995,0.55461120257278207
1729143859.836458,-0.8317738772958515,0.55417193341935933,0.39342755530200874
1729143859.844439,-0.9637050284633184,0.4753221756721272,0.20561969378666997
1729143859.85233,-1.0356269881189439,0.40481221267410716,-0.022852719840205871
1729143859.860318,-1.0340827074588059,0.36527322027479836,-0.26039902252137082
1729143859.86843,-0.99271558322383002,0.3466581055727575,-0.46827022856449163
1729143859.876605,-0.95044201616290125,0.3733754522216538,-0.60257097857325981
1729143859.884569,-0.9148613144512554,0.48199344857898341,-0.65037329384594433
1729143859.892505,-0.88393486704137203,0.5961186034615148,-0.64074257747797225
1729143859.90055,-0.8534596768745053,0.60563562287854222,-0.64496786410154661
1729143859.908417,-0.82453231123783433,0.56154009733770105,-0.65090855656738755
1729143859.9165,-0.77546198227691043,0.58573989932717807,-0.56890926969302369
1729143859.924499,-0.71941415605897907,0.65900500900262471,-0.38668155336152055
1729143859.932454,-0.69600202180330917,0.67955112142748086,-0.19795372709994979
1729143859.940574,-0.70409062444593273,0.56289470025939903,-0.025333267769053938
1729143859.948416,-0.7219273329060989,0.3581699431058169,0.14038975680294019
1729143859.956477,-0.7156017555237173,0.16318062339585326,0.32730287917658418
1729143859.964415,-0.67498421877782255,-0.0078756062358028844,0.57184036171546238
1729143859.972426,-0.61996401230501952,-0.15861232096000616,0.80093387813169237
1729143859.980544,-0.53948744656832115,-0.34951720429956756,0.95201206994821541
1729143859.988733,-0.43522326404404499,-0.56303307359322674,1.0305268182864613
1729143859.996557,-0.32009203193891833,-0.77138517175501531,1.0225088043300758
1729143860.004457,-0.20354885082282587,-1.0032446360790583,0.94575637556916115
1729143860.012437,-0.10893291858837255,-1.2202615959210359,0.86564971339564978
1729143860.020423,-0.023003590037551383,-1.424754687551347,0.78459473632823551
1729143860.028401,0.053456875688470164,-1.6166251775171139,0.68551747780453631
1729143860.036429,0.12317179856595686,-1.7338759218038839,0.55370381224177134
1729143860.044405,0.18990362088797774,-1.6746037446607573,0.40544097791653222
1729143860.052324,0.23228400961923143,-1.4721699342817651,0.29221894381805297
1729143860.060362,0.24983697672093608,-1.2519495537951784,0.19789293954831944
1729143860.068396,0.24993935047613908,-1.0468114799624879,0.10639075194659274
1729143860.076447,0.24212550859221327,-0.81113361440616638,0.021691135083214505
1729143860.084486,0.25148497549010485,-0.59714673959309694,-0.077018766949290982
1729143860.092613,0.3013724220208911,-0.49855291900759763,-0.17711095406914928
1729143860.10039,0.39537124418939856,-0.41619651830661725,-0.26845448585852361
1729143860.108405,0.4800789265777281,-0.27376939945657508,-0.36987366666224064
1729143860.116452,0.51579153882882367,-0.095938384809288985,-0.49968696510132005
1729143860.124446,0.52317133415123407,0.060565961170140382,-0.61290721926611635
1729143860.132429,0.52334231073005999,0.2259844990834193,-0.63507769015782567
1729143860.140352,0.52897886747636202,0.4184617452915716,-0.59069896936474597
1729143860.148341,0.53619201207730138,0.56566200259538424,-0.53576334780167301
1729143860.156376,0.53583730816178265,0.66164457808398847,-0.4881156677433891
1729143860.164344,0.53009051501346505,0.72710938951419857,-0.45356739884795039
1729143860.172388,0.54047736612199049,0.77107086704840699,-0.42879438192679786
1729143860.180512,0.58055183667333732,0.82043501688788179,-0.41180212146679618
1729143860.188519,0.63439482330648755,0.88921699244607355,-0.41224901672734593
1729143860.196442,0.72714860401398629,0.94389541471704264,-0.45210632959964475
1729143860.204441,0.87219578534551212,0.93455915199488282,-0.52518791942188869
1729143860.212431,1.0667108346635907,0.83785972120871233,-0.62139675087506496
1729143860.220429,1.2462091483200874,0.71896638394793944,-0.72828925184583526
1729143860.228423,1.3153831859516716,0.62890001888714631,-0.80817528470239264
1729143860.236373,1.2508907832265761,0.54037930487224584,-0.84589034294123833
1729143860.244313,1.1149251625474448,0.46236400786777676,-0.84468073444267189
1729143860.252369,0.98417858804110114,0.3774555691642435,-0.82841728210016807
1729143860.260348,0.85315792074673413,0.23668990297363482,-0.83100422247706462
1729143860.268386,0.72814530367075259,0.093272429746778254,-0.82766095099638926
1729143860.276435,0.61716692323162192,0.03872301035885467,-0.73732430035461238
1729143860.284459,0.53546789778624138,0.043454084134759305,-0.58563928589474101
1729143860.292637,0.47899890644342752,-0.010111204743417104,-0.41523708075614935
1729143860.300382,0.40127143530714993,-0.14633159809778967,-0.2025291867235971
1729143860.308427,0.2995080896660503,-0.28361638713120835,0.0095950268961474683
1729143860.316434,0.17906631870743711,-0.39727548006871888,0.19582762858048558
1729143860.324436,0.053589998449515279,-0.50803994197742841,0.36780233328796597
1729143860.332424,-0.060859279359744736,-0.6311153972971042,0.54888843736000592
1729143860.340357,-0.16592534630030448,-0.69282850373724192,0.74459371737221536
1729143860.348322,-0.24216137836996326,-0.63748162426406363,0.90841710207890247
1729143860.356356,-0.27491945073716656,-0.54254843766816208,0.99670741645855698
1729143860.364318,-0.28329350752874471,-0.48239585024965581,0.98710516605143106
1729143860.372371,-0.32705573719673647,-0.42672255497129868,0.91195633578884439
1729143860.381184,-0.39822337648177586,-0.20516357063806645,0.89070568107316617
1729143860.388431,-0.44454232557522677,0.13529572492461334,0.95564372446057999
1729143860.396411,-0.47403645527714544,0.40448903663518104,0.9829000738028224
1729143860.404433,-0.51110183089481909,0.59367487765655369,0.91773423663818865
1729143860.412444,-0.5627136705063035,0.79296292965397663,0.75092771590079899
1729143860.420439,-0.64774341207887209,0.98171039584001052,0.50738625274566063
1729143860.428455,-0.75069544452078119,1.0813367935848457,0.28697845912745307
1729143860.436411,-0.84694755896435103,1.0932225003172684,0.078322416924093849
1729143860.444355,-0.92811178101090475,1.0371389502296102,-0.15350656879416058
1729143860.452335,-0.96616806270228628,0.92750314420604285,-0.40136777092866233
1729143860.460326,-0.94813558581676016,0.79403694081943932,-0.64501337591539643
1729143860.468425,-0.89793976900020656,0.69629108123680283,-0.82206326836343413
1729143860.476437,-0.83717259448500814,0.67574282598807289,-0.89040678836213583
1729143860.484529,-0.78772874290129713,0.72620315690448445,-0.86181257531231481
1729143860.492425,-0.7755157244710138,0.83267787645603508,-0.77803555286361425
1729143860.500383,-0.77968154507231857,0.92338118205907349,-0.69477835963108636
1729143860.508446,-0.78303241755602548,0.93672407448981054,-0.61843125988092373
1729143860.516435,-0.77844474509358819,0.92003978638345485,-0.45087564245268519
1729143860.524438,-0.77079670590931249,0.89747135670651157,-0.22965913957125608
1729143860.532423,-0.78387401994942141,0.84242551790779752,-0.027116067762625436
1729143860.540356,-0.80449111021734754,0.73447656381125137,0.21147454222461165
1729143860.548323,-0.81175308364055898,0.60734359734913623,0.47062944996535749
1729143860.556337,-0.79227162425261199,0.46508185794525225,0.73020361463727168
1729143860.564376,-0.74418624836484026,0.31927682557531334,0.98215406733083954
1729143860.572396,-0.66701920085623656,0.17709263325547892,1.211651310255994
1729143860.580422,-0.5670820246068583,0.019201962384301885,1.3570120771174032
1729143860.588447,-0.47434158412465499,-0.12171981180703476,1.3652630308330418
1729143860.5964,-0.38017236927301912,-0.24330791166903348,1.236334078732616
1729143860.604426,-0.28386881961533761,-0.36095822803974609,1.0308439989722891
1729143860.612487,-0.20075813116373781,-0.48731381591369971,0.84859187760360155
1729143860.620424,-0.12918152495821433,-0.63251464865638307,0.62621989346421969
1729143860.628395,-0.075380464667618441,-0.77135649076962998,0.33273723987086656
1729143860.636343,-0.026285071065510656,-0.89148378635404379,-0.0053274206714482991
1729143860.644351,0.028287878722013878,-0.98378044162413858,-0.31395019727015205
1729143860.652345,0.074015195469120568,-1.058527332582718,-0.53168915293121977
1729143860.660329,0.10123874048665357,-1.14828576864211,-0.6810628890321897
1729143860.668389,0.1169343324049803,-1.2366217252561695,-0.76302470958645507
1729143860.676442,0.13486548878521698,-1.2894104541938742,-0.8064549860892769
1729143860.684442,0.15498936396552371,-1.3142726505731046,-0.83613151751339732
1729143860.692594,0.17025636453467297,-1.3481331761357032,-0.83605845378646415
1729143860.700508,0.17068991861619087,-1.3452493831235817,-0.79216853921971508
1729143860.70848,0.19372446935332033,-1.2532728142863583,-0.73539775108513028
1729143860.716402,0.27395284938367492,-1.063568813562022,-0.67664525463958158
1729143860.724333,0.34975973139691974,-0.77372357271287018,-0.59329077982704281
1729143860.73232,0.40865309754092061,-0.32545918359109982,-0.44962628141787264
1729143860.740346,0.44633041256536232,0.18358864454654827,-0.24976833596200809
1729143860.748326,0.44871652366058079,0.56904707298399904,-0.084304732112051972
1729143860.756321,0.47845657940493702,0.8243736185190742,-0.0252542806102403
1729143860.764352,0.53439987335240258,0.95862633810505904,-0.026646200025619033
1729143860.77245,0.58988888788617655,1.0134237211381969,-0.010666594247096024
1729143860.780489,0.67064673845945744,1.0624783732936369,0.02382403781554663
1729143860.789344,0.76805580587155964,1.134267325702373,0.041112896561435963
1729143860.796722,0.87119870277233424,1.2160784927406594,-0.020881098639575803
1729143860.804642,0.98331586816531869,1.2794258100226095,-0.15790181517302926
1729143860.812644,1.0952836238546229,1.2952983171957539,-0.3199311316172323
1729143860.820755,1.1946038769085887,1.242458227495453,-0.44332866026366907
1729143860.828436,1.2569630141404713,1.1317886672740656,-0.50800199609936647
1729143860.83637,1.2526608704563216,0.99408384584634257,-0.5932062143001462
1729143860.844417,1.1917600458255335,0.86399651113669229,-0.70349966376383655
1729143860.852356,1.0858320710287495,0.7444393293183541,-0.82905949701600412
1729143860.860335,0.94118132944216226,0.59820925947149561,-0.97059020152465059
1729143860.868417,0.81416317368204782,0.43618830183825608,-1.0706206214117406
1729143860.876691,0.74625323642448882,0.22297518550990877,-1.0808331361529371
1729143860.886515,0.72998445260402023,-0.014142185052110734,-1.0328980071919767
1729143860.893046,0.71362498635907756,-0.19685316322821544,-0.98327811680376087
1729143860.901073,0.63761450205476611,-0.33457529419037235,-0.94009694563477741
1729143860.908506,0.52219504139240602,-0.43977014602515418,-0.88630554390762428
1729143860.916501,0.40590461320343552,-0.53268536142836553,-0.78485606788375228
1729143860.924419,0.30186230634235961,-0.6227025406179858,-0.6618356332959725
1729143860.932325,0.21921664430626758,-0.71119374311018246,-0.55524523781072821
1729143860.940323,0.14898327910370385,-0.78067753197178869,-0.46830373720063195
1729143860.948301,0.087474362185643167,-0.79938054196980279,-0.40783788063606463
1729143860.956315,0.045886421358724408,-0.79527750575597811,-0.35836197479200116
1729143860.964315,0.03689703416739934,-0.80281940047204103,-0.31505434931877813
1729143860.972368,0.066409986892490891,-0.8258620549752772,-0.25331180887203364
1729143860.980424,0.098165530555792871,-0.86267491099616855,-0.19349186631576826
1729143860.988419,0.019522987648237795,-0.82218618557378476,-0.1869725150228892
1729143860.996396,-0.15260257113540154,-0.48373368496137514,-0.18987194523055428
1729143861.004407,-0.31143045942638026,0.0190236186753409,-0.17394546580447906
1729143861.012383,-0.4588742249300663,0.39219393118299184,-0.18716399643705256
1729143861.020311,-0.59480492608529456,0.63461363636118073,-0.23064023494867633
1729143861.028423,-0.73595995538311587,0.78517374020563846,-0.26374986406977413
1729143861.036358,-0.89238174831816097,0.86806022643672764,-0.28255141638877773
1729143861.044338,-1.0013468212610901,0.89991313559397579,-0.29957916360991732
1729143861.052297,-1.0224540986347963,0.86432370819045357,-0.32852617464693046
1729143861.060305,-0.98275858749919021,0.75996048976324393,-0.36483758900419871
1729143861.068372,-0.92020348522478168,0.5713383005141569,-0.38556021246490457
1729143861.076421,-0.85457487980364244,0.33790754460168076,-0.37202669279214418
1729143861.084421,-0.81072797090560755,0.17635174295036249,-0.3289999959486013
1729143861.092434,-0.79782906250284069,0.15561678296127518,-0.26359480212650671
1729143861.100455,-0.79477230813726285,0.24129736613482108,-0.20498278803672748
1729143861.108446,-0.76952530213750436,0.34272429826073736,-0.20429647456128452
1729143861.11638,-0.76927625068882044,0.40975296342748652,-0.21367555788964548
1729143861.12434,-0.81680410670335768,0.43954075602171627,-0.18780194333847169
1729143861.132299,-0.86937230878468474,0.4678428380840739,-0.14971620135027974
1729143861.140337,-0.91240686169295593,0.51675084193114085,-0.10323895774622185
1729143861.148309,-0.93460922791549117,0.58568481995535004,-0.037040506052204256
1729143861.156405,-0.92536907439152483,0.56446876773495691,0.037372304973361872
1729143861.16433,-0.89321935343576797,0.41679538691925694,0.11139260582958174
1729143861.172408,-0.83157335974684177,0.22900557410918357,0.22519226636162482
1729143861.180403,-0.74967546204924163,0.05950206321795834,0.3454062501792185
1729143861.1884,-0.65818056231520949,-0.11733433916482537,0.36560045297140686
1729143861.196379,-0.53261907227209282,-0.32177058479222492,0.24894573105445528
1729143861.2044,-0.39683418951861438,-0.48359581782317151,0.079341423522168969
1729143861.212364,-0.28364935028760602,-0.61687461286601208,-0.03540470787179479
1729143861.220308,-0.20467050515098817,-0.75345866806616668,-0.089991769649194975
1729143861.228326,-0.16260432383729284,-0.92012142341720371,-0.19660123237929755
1729143861.236317,-0.13949306535638581,-1.128882887331375,-0.39061522379400976
1729143861.244386,-0.12434924008345551,-1.3088409385777491,-0.56023487632559099
1729143861.252312,-0.10419500332168451,-1.4185185295714215,-0.67839573521082797
1729143861.260296,-0.071882183345175404,-1.4977343211036789,-0.78505021570478084
1729143861.268378,-0.030358608163244288,-1.6095429953038001,-0.8720301673201023
1729143861.276426,0.0022179580522309426,-1.7379275686744053,-0.88718310294209846
1729143861.284419,0.0089931959376551348,-1.7866499236095437,-0.84093515632523197
1729143861.292445,0.0053959175625930816,-1.6711487156735356,-0.80254413681856129
1729143861.300398,0.042401036192062751,-1.4984053059766573,-0.77695538474578674
1729143861.308441,0.15953299107577762,-1.3453792130289344,-0.76053790834846691
1729143861.316431,0.31750431666718504,-0.99304123964553748,-0.75834984361639157
1729143861.32437,0.44187257129364071,-0.48450679271500119,-0.7227689548294528
1729143861.332328,0.49818885142664676,0.010684487886117686,-0.58541987980888588
1729143861.340322,0.50643721581872847,0.44465861100683218,-0.39850352470761707
1729143861.348315,0.51819727543736993,0.7401625149498785,-0.26145084305132693
1729143861.356378,0.53036159194609922,0.91491071694693404,-0.20071658216138538
1729143861.364331,0.51722705890115939,1.000816430410107,-0.18321923336248086
1729143861.372377,0.48827468103182481,1.0144734430178899,-0.15824736199342909
1729143861.380426,0.46707204375706579,1.0056400481240784,-0.12048982088377935
1729143861.388448,0.50820025416715742,1.0303511605208646,-0.084000369220473492
1729143861.396431,0.63993823087091328,1.1041359014714278,-0.10595277455307921
1729143861.404424,0.81050438010750359,1.2118345651996085,-0.19319428844703615
1729143861.412385,0.99862061703405725,1.3264723456583056,-0.29066234329838569
1729143861.420321,1.1836448246078037,1.411005546207619,-0.35616706222331884
1729143861.428327,1.3233934283007387,1.3953178169491303,-0.39227721811731353
1729143861.436325,1.4078811256086929,1.2796955090592599,-0.48545924197933166
1729143861.444352,1.4317552701213572,1.1494484455362672,-0.62650646858894887
1729143861.452311,1.3832904727633062,1.0093623034797461,-0.74795699487118494
1729143861.460323,1.276523158131655,0.84719649196755054,-0.84658155935897939
1729143861.4684,1.1245577716607547,0.67901960982680487,-0.93576744738472928
1729143861.480488,0.95803139889943478,0.49893512911041971,-0.99460010596845461
1729143861.484502,0.85194306935144337,0.3170272150169261,-0.99456742601734127
1729143861.492429,0.82404803678545924,0.10401409156409425,-0.93409982931906477
1729143861.500451,0.83200104081066661,-0.10978317492293524,-0.86163561607582628
1729143861.508448,0.81421126996830329,-0.26700845899457104,-0.84242142163321887
1729143861.516384,0.73542699762896024,-0.38049968220334396,-0.81833504815452451
1729143861.524321,0.61451205359242311,-0.46051373784954464,-0.73641134932557584
1729143861.532315,0.47555543758242375,-0.52746537897232548,-0.58402729012366406
1729143861.540362,0.34578125127706272,-0.58743095150397839,-0.40362763175695232
1729143861.548312,0.2513148270968269,-0.58254404912261504,-0.25665004114388046
1729143861.556421,0.18633401639017577,-0.52107952424276782,-0.096309021358222988
1729143861.564344,0.14840975511984017,-0.49867427140456844,0.081840927344612582
1729143861.57242,0.13331761946395537,-0.55610851493507707,0.25641561633877696
1729143861.580494,0.1429927007747539,-0.65293265505757003,0.40372943588147869
1729143861.588431,0.1296416967954416,-0.80851016320587088,0.44954872146089664
1729143861.596415,-0.0009676432932108972,-0.8852547556978323,0.40935557303608439
1729143861.604428,-0.20704026578501189,-0.68376274045283769,0.3601239703549371
1729143861.61243,-0.40666951525106509,-0.17442535022173702,0.29652980382928618
1729143861.620376,-0.56986745119982429,0.39382785183899682,0.22878784464228447
1729143861.628395,-0.69034778602656743,0.76159824694754508,0.18111878311595994
1729143861.63632,-0.79732972693176896,0.98353755419706002,0.10462721428568666
1729143861.644336,-0.90046953209866576,1.0500806439279611,-0.063227929621349363
1729143861.652304,-0.99619577508503532,0.95868111380546495,-0.245034972674088
1729143861.660296,-1.0559728162148982,0.81721346822444385,-0.3466696224301456
1729143861.668386,-1.0645948769592459,0.62676174563324749,-0.41595136848228975
1729143861.676452,-1.0446523997795947,0.39776724051451207,-0.48582880520080141
1729143861.684439,-1.0065069746918891,0.23333921854043183,-0.51562310048024051
1729143861.692436,-0.95254434515253728,0.1870422829158136,-0.45389563615450401
1729143861.700394,-0.91378141650699574,0.23588833260420833,-0.34002210146516543
1729143861.708418,-0.8998888406718355,0.37459830821298734,-0.22359500370635269
1729143861.716571,-0.89070191504781526,0.57254776514227212,-0.13266708700869451
1729143861.724429,-0.90179167207042243,0.75538379354987883,-0.098330614909546088
1729143861.73237,-0.95505858801407917,0.89232957452801287,-0.068576395328623363
1729143861.740315,-1.0046848751309474,0.9632162564861495,-0.0017695065119360913
1729143861.748307,-1.0161559747582012,0.92805982944421073,0.13601049588361253
1729143861.75634,-1.0136734531823886,0.78883698116333356,0.31914135182598119
1729143861.764318,-0.99536918280915088,0.59143118075371393,0.46030808490886177
1729143861.772404,-0.94054054425461908,0.38040011213995029,0.58906704611991034
1729143861.780563,-0.86805418540593093,0.19524908752066272,0.74975767489309764
1729143861.788512,-0.76964835216811589,-0.019497057216914512,0.94791197684643547
1729143861.796423,-0.65590367932755589,-0.2458277681342661,1.1342764327601702
1729143861.804432,-0.54146950395458959,-0.4178098499089497,1.2550345975991137
1729143861.812438,-0.43172990779972364,-0.54696619272294378,1.2887517009094349
1729143861.82043,-0.35801088396975655,-0.64659588160736592,1.2332091319553862
1729143861.828428,-0.30228583801230141,-0.73425639396378228,1.1049547068769239
1729143861.83638,-0.24841768748765081,-0.81750238580289836,0.98330459537633308
1729143861.844363,-0.19821781459145513,-0.91895847834327382,0.94969085916121654
1729143861.852339,-0.15915839956303507,-1.0492196138858101,0.90994087460489315
1729143861.860322,-0.13423283533086591,-1.1569617544829431,0.82330159980544937
1729143861.868377,-0.10906093531647566,-1.233313515531429,0.73981697037759286
1729143861.876453,-0.081399938494711582,-1.3061558910633595,0.65865081823415061
1729143861.884437,-0.071188691323583603,-1.3951973079282238,0.5692977260784613
1729143861.892422,-0.076342729649650651,-1.5039618660372067,0.48056644071443005
1729143861.900394,-0.07496540699993956,-1.6026372707273662,0.39646514004001404
1729143861.908408,-0.019012150450779801,-1.5803228667714828,0.27512696440193618
1729143861.916403,0.086075733804337348,-1.4141114923330833,0.12633838304811681
1729143861.924413,0.18062952890559797,-1.1226112949813982,-0.030832330567368824
1729143861.932375,0.29844832978615587,-0.64355562765576568,-0.10895853640110301
1729143861.940316,0.42745914873478896,-0.10730638633582862,-0.071760472762592287
1729143861.948315,0.49592614881326608,0.37237417125854722,-0.053485690163375142
1729143861.956301,0.52529987217014651,0.74830034853781324,-0.093177937917826609
1729143861.964333,0.57612793097831327,0.94554766581814775,-0.13934201479725417
1729143861.972369,0.63855152087286571,1.0226041202245315,-0.15405691405031871
1729143861.980428,0.68047542045494847,1.0716049782678647,-0.14564540611294519
1729143861.988439,0.72074175738610025,1.1516626104078467,-0.10675614146428954
1729143861.996423,0.76341907721838975,1.2539726725282447,-0.038512281190851823
1729143862.004438,0.80711729672989974,1.3630359966842311,0.027975438660932703
1729143862.012415,0.87164833396838859,1.4586979855416273,0.054671678666680434
1729143862.02035,0.94761483668940971,1.4971519711210046,0.03663421775316654
1729143862.028336,1.0364022795604186,1.4306166045308735,0.026024586235789224
1729143862.036481,1.1294767660297236,1.288104079764445,0.022638637755597057
1729143862.0444,1.1921324988946993,1.153216517774992,-0.055378607303490882
1729143862.052314,1.2105698858478933,1.0395058458487441,-0.2339400283614424
1729143862.060354,1.1933239289325845,0.92956181666971605,-0.42578920322715763
1729143862.068374,1.1391302784528101,0.75589581361240532,-0.59027875527618245
1729143862.076755,1.0629808568650871,0.53867550045984958,-0.71940932590013262
1729143862.084925,1.0062232623144407,0.3204383148764065,-0.80306017416570208
1729143862.09243,0.96620904472358426,0.071579856501357952,-0.84878093747969241
1729143862.100392,0.92389584152620308,-0.1752182425984764,-0.85961148307106738
1729143862.108431,0.85338477309279903,-0.39906993299861865,-0.83397021078550904
1729143862.116548,0.76105954981096791,-0.57020313755516971,-0.78176325709770833
1729143862.124347,0.67501473141660295,-0.66351787893693559,-0.70233610793981827
1729143862.132325,0.596782211538607,-0.72844621505669793,-0.56805189093756092
1729143862.140328,0.52408845089335654,-0.79996850643040074,-0.39702222267552467
1729143862.148296,0.4404573287287753,-0.89183623832275605,-0.18542776598402286
1729143862.156336,0.35515922535940891,-0.96653862028542259,0.037309171859835337
1729143862.164312,0.28865552112515597,-0.94580377999786969,0.23650760403130305
1729143862.172363,0.24917898864606622,-0.86631669114506793,0.45244546225533389
1729143862.180493,0.24124360143270754,-0.82777677415482065,0.66501773917484863
1729143862.188426,0.24606039548758804,-0.91192671944910431,0.82427501490547872
1729143862.196397,0.20702000086650624,-1.0722447224828786,0.88279434499665999
1729143862.204428,0.032901482336297957,-0.96857404044671924,0.78551633393667708
1729143862.21238,-0.2301391766764338,-0.35680576187754087,0.61753433647421407
1729143862.22034,-0.46799330363893477,0.35910821063210102,0.51206254732065393
1729143862.228334,-0.67413359897427805,0.78163270812376262,0.42855919590907132
1729143862.236329,-0.84166385250607323,0.97342234770676517,0.28906227215509517
1729143862.244338,-0.99411619212351821,0.98462775645983092,0.046581724977371695
1729143862.252318,-1.1462484296523248,0.91344972046411832,-0.25513485588582796
1729143862.26032,-1.2509370091056629,0.83988036941069366,-0.49512287791623916
1729143862.268544,-1.3011922999645353,0.62205721370212996,-0.63720008585790677
1729143862.276554,-1.3081453661301783,0.28128527494547917,-0.71627390473170793
1729143862.284869,-1.2610215534233893,0.0076474767039085498,-0.75073464918139654
1729143862.292928,-1.1720864320409765,-0.099918424066583619,-0.70713189657044295
1729143862.300448,-1.0861600695096834,-0.062505194808722367,-0.6188194960304142
1729143862.308535,-1.0241748454850876,0.067429483265157381,-0.499637251149051
1729143862.316795,-0.98719655610106116,0.23946779369259419,-0.33745592112882039
1729143862.324564,-0.98033442468327847,0.40824704941420914,-0.1831046548807698
1729143862.3324,-1.0266614181158595,0.58762872912546094,-0.082192938933429827
1729143862.340327,-1.1095844771347414,0.75187451512666215,-0.011003657828475042
1729143862.348311,-1.1701934091133523,0.87489916526144973,0.10961119208204961
1729143862.356306,-1.1831458149201071,0.93658178859065444,0.25711439787641299
1729143862.364345,-1.1594161938559697,0.86759453728413138,0.39712481878993683
1729143862.372366,-1.1334719445272812,0.67721066498850635,0.53519370914372921
1729143862.380425,-1.1030062427788971,0.44187151912518347,0.67976010226799921
1729143862.388438,-1.0449248009831669,0.18764732028902031,0.84674251472815409
1729143862.396403,-0.96984822509756652,-0.057687632411400458,1.0163194422225583
1729143862.404485,-0.85286065917912302,-0.29343213681575553,1.191071444259939
1729143862.412379,-0.7100879641487805,-0.4895800123562396,1.3312549205837163
1729143862.420369,-0.59207190245946062,-0.63068169106094174,1.355129862681105
1729143862.428326,-0.49699793194253289,-0.75046212835438064,1.2781443097559326
1729143862.43633,-0.41909473662073671,-0.84787179441816585,1.1832114659634265
1729143862.444385,-0.33510493904973115,-0.93164615271342788,1.0826185283880645
1729143862.452431,-0.25044301055943435,-1.0134118322387753,0.95500373613184641
1729143862.460337,-0.20177430377256644,-1.0720492663368797,0.805003325175915
1729143862.468379,-0.17746851540725905,-1.1057418115806252,0.64965965416793436
1729143862.476418,-0.15373270606664094,-1.1525629675682494,0.51537436063205999
1729143862.484432,-0.12267646303451982,-1.2585569424083758,0.37839925136681607
1729143862.492404,-0.093187620647965347,-1.3894123570234527,0.24640844861661204
1729143862.500472,-0.081453976076501108,-1.5085790066621227,0.14954782941581535
1729143862.508409,-0.038442979140080893,-1.703103424207852,0.080576361328055526
1729143862.516382,0.063562140023474892,-1.9339030112071138,0.055795392872418872
1729143862.524318,0.19330131141699544,-1.8642203233517374,0.01112850749669466
1729143862.532313,0.288172416711589,-1.4422694857529175,-0.10272524129772534
1729143862.540317,0.33977395412006978,-0.88473058924827297,-0.16167230922221265
1729143862.548363,0.40330016626700366,-0.28053259740928915,-0.074441812275839916
1729143862.556395,0.46802152239654093,0.26482007909204364,0.066227173645355283
1729143862.564331,0.5572986083575141,0.6941972997437309,0.16148366176535423
1729143862.572438,0.67748535455290582,0.98013202122196841,0.2192760897295466
1729143862.580458,0.76960483515885647,1.1378579271113949,0.26693509338265403
1729143862.588511,0.82083246793853748,1.2422843420586775,0.30957826760276552
1729143862.596443,0.84986628736049807,1.3217549484547972,0.33048158145875006
1729143862.604532,0.88410133644142452,1.3856135346280265,0.28747101675154563
1729143862.612406,0.93018376957770244,1.4445746543128721,0.19653409852353215
1729143862.620343,0.99806094026763115,1.471011834833077,0.10919381285414766
1729143862.62835,1.0830590090736396,1.4189765783420059,0.044231784639387012
1729143862.636353,1.1553423534303462,1.2962320612330265,0.0090857782636889137
1729143862.644357,1.2216996233633199,1.1140343852948207,-0.039458834526030988
1729143862.652308,1.272794771951848,0.93490260965212424,-0.13243911141916767
1729143862.660337,1.2870627937386767,0.84423830169425651,-0.29635255316640574
1729143862.668602,1.2511389953879917,0.76259555298596582,-0.51368099039338633
1729143862.676596,1.1740321633567854,0.61463696447106919,-0.70026914084256298
1729143862.685145,1.0673200754104533,0.39985755316936977,-0.82371566277154373
1729143862.692926,0.95987243637352671,0.18500051397301978,-0.89671935077527709
1729143862.700541,0.88880565699870928,0.01053745387877239,-0.93371052259412446
1729143862.708572,0.84573989931235682,-0.18821788576088502,-0.93355649745867642
1729143862.716518,0.81585638911665592,-0.39793022760536118,-0.90536853832091357
1729143862.724775,0.76961789391201041,-0.59357080279182006,-0.82609216883406811
1729143862.732401,0.70483976144202631,-0.75969665994109803,-0.69530394012613361
1729143862.740336,0.64213423851816209,-0.85256113324727223,-0.53743980643870415
1729143862.748308,0.58599340709024517,-0.89359351011053678,-0.32970061490807701
1729143862.756408,0.53017302503746944,-0.93375062347185955,-0.098208894562730825
1729143862.764314,0.45368609959813866,-0.96210179210327351,0.15306831387045322
1729143862.772409,0.37118459904880552,-0.93079667130618127,0.40344611331247904
1729143862.780451,0.31231851736704097,-0.83645361291841536,0.64987874686811364
1729143862.788549,0.2861512046794159,-0.80794332194224994,0.91757007930305634
1729143862.796442,0.28322151891070185,-0.89427983229182439,1.1458695985364851
1729143862.804473,0.23485064571938097,-1.0850695435689224,1.2445372045449594
1729143862.81269,0.11004785797563127,-1.3244834033742874,1.2249851067795681
1729143862.82058,-0.071469175066857432,-1.194625854768151,1.1681307016053579
1729143862.828407,-0.27019999786083931,-0.54586095318388494,0.98119532643596252
1729143862.83637,-0.43732862345170703,0.12499196342380869,0.69577824631927854
1729143862.844362,-0.59528680213433294,0.54580838603129223,0.45535336326168785
1729143862.85233,-0.74710417757982073,0.81149463150110523,0.22808887144203735
1729143862.860319,-0.86394885156556622,0.92450616208363157,-0.097914746031088018
1729143862.868424,-0.94852911804672257,0.89440436629688014,-0.47613795288217475
1729143862.876435,-1.0035341785500367,0.80461451346847701,-0.75777304989069794
1729143862.884451,-1.0120600363179584,0.66879526493999397,-0.95293404687572669
1729143862.892433,-0.97779922029347355,0.49194914205540902,-1.0874839375866872
1729143862.900425,-0.91807924502427574,0.32411640941266351,-1.1120227839002754
1729143862.908447,-0.8505333502838357,0.22873789559529167,-0.99350510245081236
1729143862.916552,-0.80213054730252398,0.24111111235391072,-0.82001603379951604
1729143862.924333,-0.79245776331025952,0.36623834440333386,-0.63568001602314528
1729143862.932347,-0.81113127144896757,0.54518305862972349,-0.44632574398684699
1729143862.940327,-0.84276849928237008,0.71065658055512448,-0.26077156037798466
1729143862.94831,-0.89303905549987073,0.86762169703847036,-0.022157721835519797
1729143862.956417,-0.94278313205762454,0.98436234018596558,0.22573033640961884
1729143862.964317,-0.97582225345324214,1.0114120298667975,0.44342496131355114
1729143862.972476,-0.99500719119841952,0.93356434009218781,0.64491913148933888
1729143862.980458,-0.98863917126412071,0.72339074262600178,0.83584164870531574
1729143862.988467,-0.93054287646713241,0.45233911821846839,1.0282964402824535
1729143862.996392,-0.8471564325822678,0.22330049398587148,1.2005989384339173
1729143863.004431,-0.75370417998222194,-0.035444348070365686,1.3561274698538945
1729143863.012438,-0.64399588067797842,-0.30541472486812554,1.4937163550979322
1729143863.020399,-0.52134127789025109,-0.51166871733883279,1.576908221336548
1729143863.028347,-0.40454097497921837,-0.661601051601172,1.5706322529667291
1729143863.036321,-0.32594699200335819,-0.76667244934047774,1.501948937571878
1729143863.044483,-0.2647428301895951,-0.86994299879222292,1.4130616614512199
1729143863.052395,-0.20822574524335272,-0.98171106565432797,1.3086464884033813
1729143863.060412,-0.15792642690931907,-1.0828271106885536,1.1519198809915689
1729143863.068374,-0.13051382130840211,-1.1507334687539434,0.95103571111751162
1729143863.077853,-0.13194524052925724,-1.1631688945059522,0.7762297263566682
1729143863.084532,-0.13110133181592221,-1.1540282375601381,0.5949347694677275
1729143863.09244,-0.11527014437528804,-1.1721696418037926,0.40634090881023216
1729143863.100395,-0.093639265159239635,-1.2464823035078276,0.26083214774462055
1729143863.108408,-0.059589079587240031,-1.3894043047279783,0.14351574177218035
1729143863.116383,-0.012979029464125326,-1.5834956261021556,0.041411988609794892
1729143863.124298,0.042231164543313521,-1.7882811066800337,-0.067314705140652908
1729143863.132329,0.13027129887637892,-1.8898678919536589,-0.19044456974975787
1729143863.140341,0.25141863434087419,-1.7594722804906509,-0.35307886633005447
1729143863.148313,0.34773283403071414,-1.4869074005554284,-0.55325074909058203
1729143863.156351,0.40892687433631436,-1.1288281145061467,-0.72720367152184551
1729143863.164329,0.4826783338668712,-0.6153589647609623,-0.71365927795562079
1729143863.172396,0.55374768345731329,-0.054204733374674061,-0.52227307035648152
1729143863.180449,0.58212867615260055,0.42509397604687948,-0.37530174615661444
1729143863.188444,0.58234251434202267,0.75949910846063506,-0.32692097238339418
1729143863.196429,0.5733184809342422,0.951628386679648,-0.34110004935785826
1729143863.204432,0.54959938824670662,1.0924473572987776,-0.33790101885233081
1729143863.212438,0.53323948232687512,1.210993944587218,-0.27915197734383318
1729143863.220429,0.57727333154992322,1.2891457829744053,-0.22730064004171535
1729143863.228521,0.67520957140937332,1.3388038714062211,-0.22726521214717296
1729143863.236358,0.79995327485165824,1.3894575374769502,-0.30791222205750252
1729143863.244361,0.9314162750914794,1.4158056815354985,-0.43249894900540392
1729143863.252317,1.0262574525401984,1.3828730559332247,-0.50256839449806234
1729143863.260308,1.0723070624421478,1.2690359769887514,-0.52609254412005901
1729143863.268377,1.0909973370926149,1.1121901968379648,-0.57362370371802651
1729143863.276471,1.0915692503463443,0.95508059965111225,-0.6659959086961118
1729143863.284451,1.0476406319065308,0.73736472351501148,-0.79399938716223928
1729143863.292438,0.97594746929693632,0.48690344553178916,-0.92082005646370457
1729143863.300398,0.88780842521620418,0.25617125712553179,-0.99499685276800454
1729143863.308418,0.7880990920069415,0.050047224309314381,-1.0107688514018975
1729143863.316436,0.7018807082707379,-0.16429917847182882,-0.96191251216193474
1729143863.32442,0.62801379483299014,-0.40124514078260176,-0.82000368736124973
1729143863.332379,0.56347336885089494,-0.59343130039085423,-0.64248364914357803
1729143863.340374,0.49558934405148863,-0.71129713652457793,-0.51192013774037015
1729143863.348307,0.43761848168263262,-0.77307714691410945,-0.42421684954628081
1729143863.356335,0.3941093180013473,-0.81589196897756577,-0.28581832924522782
1729143863.364319,0.3418238810126612,-0.83498266626297812,-0.058895976290429329
1729143863.372361,0.29470208654535435,-0.7827964204456519,0.15579725182219459
1729143863.380408,0.25536106826695742,-0.66592097060138766,0.33356754575790259
1729143863.388447,0.21409031974924497,-0.59685992584848413,0.50429607636936313
1729143863.396404,0.16442500204308866,-0.67227522086806979,0.67228946420139235
1729143863.404437,0.10418897202485961,-0.85608651288571247,0.82459399433751568
1729143863.412386,0.025691192898450028,-1.0853536602749361,0.89618212456120527
1729143863.420313,-0.1276171449121726,-1.2788921917907272,0.86783191740052867
1729143863.428355,-0.30261170958364236,-1.2451724090655667,0.82634461457005581
1729143863.436355,-0.40441577292555897,-0.80627436398256225,0.77463375899966413
1729143863.444327,-0.44847060847222764,-0.2675140671668253,0.62228557814075014
1729143863.452295,-0.48426869115239357,0.072131178288905112,0.41317336763114998
1729143863.460297,-0.57258088041003208,0.36510039343863898,0.17042842939260025
1729143863.468417,-0.68580333766149271,0.65262556366226254,-0.093134680575512357
1729143863.47661,-0.76714604894842298,0.85855733562120617,-0.34088030449413753
1729143863.485162,-0.80318097387672016,0.88378199459884299,-0.50996080179549019
1729143863.492902,-0.79564215962354945,0.76205743522538194,-0.56820155893790558
1729143863.500531,-0.77196281830585556,0.64985921394679846,-0.6184708554359879
1729143863.508423,-0.76839746505178996,0.60893306499029431,-0.67843073763717954
1729143863.516644,-0.83500719802546874,0.63609871808402874,-0.66183394436733356
1729143863.524695,-0.9526614740264967,0.67240554282898479,-0.56120388531401333
1729143863.532531,-1.0639074404967375,0.69653093301399971,-0.45123295772169447
1729143863.540333,-1.1425743420998189,0.75655500370144591,-0.32522810250015671
1729143863.548299,-1.1691285150807591,0.83982104293619919,-0.19151849597766674
1729143863.556309,-1.1578168549357533,0.93745795336079873,-0.071065021256010774
1729143863.564379,-1.1320866511136893,1.0879891528913574,0.080598260039651676
1729143863.572429,-1.0945126456244254,1.2308805952002535,0.24417638429632554
1729143863.581019,-1.046426838643145,1.2201966616644409,0.41575479445253033
1729143863.588711,-1.0039532724875919,1.0418075167122924,0.59851872707038412
1729143863.596622,-0.94462677290802866,0.74917316294355774,0.78224715733548988
1729143863.604548,-0.82602131117519439,0.39544125996045665,0.95846617502116804
1729143863.612546,-0.69079167988545809,0.069330026729502489,1.0969757203651516
1729143863.620436,-0.56367937447371697,-0.21488024599317257,1.2207348484411655
1729143863.628382,-0.44058608446584874,-0.43393507663344921,1.3198931938823029
1729143863.636336,-0.33650611609732362,-0.5789900569844002,1.3508669670290292
1729143863.644338,-0.24851673138848659,-0.70050394017339535,1.3343318008464475
1729143863.652305,-0.18039825835055129,-0.81598127623299554,1.302274817940873
1729143863.660301,-0.12143534691565375,-0.92634676879984168,1.213865993209948
1729143863.668395,-0.062006111582110432,-1.0193845382120574,1.0748313059560626
1729143863.67642,-0.017196234060550774,-1.0756328899208487,0.93458087039855009
1729143863.684415,0.0086254672987299413,-1.0857561025349809,0.78444864953742766
1729143863.692398,0.029226768851842746,-1.0862960593044539,0.62540752706390512
1729143863.700371,0.056699546965612552,-1.1536662180464077,0.47166331515949322
1729143863.708389,0.082548395186039125,-1.2630501032484289,0.34834141353011777
1729143863.716387,0.099760464364143209,-1.3748678060382722,0.24923255892623264
1729143863.724323,0.14095023532700293,-1.5428469722786797,0.14613401486404332
1729143863.732296,0.20653034380507382,-1.7011026303202985,0.046175627925877913
1729143863.740325,0.27354826288694839,-1.6445103632647866,-0.096383276160655465
1729143863.748321,0.34823990931449766,-1.4487927796759072,-0.28365854330200102
1729143863.756324,0.43860373374746464,-1.2558022436130689,-0.47115799943485692
1729143863.764322,0.51219092620376727,-0.91609494964633753,-0.66262317951577732
1729143863.772429,0.56698549321409963,-0.46813732301782346,-0.79389135493061791
1729143863.780441,0.62604217220021408,-0.0097178246593799117,-0.76857104015205535
1729143863.788413,0.65509082866995216,0.43135299832587853,-0.65632151727157484
1729143863.796397,0.65208689960161759,0.75623063581391115,-0.56513316010141268
1729143863.804407,0.63921660056260388,0.96861051082667404,-0.50850454052273619
1729143863.812381,0.62276777487922397,1.1224312196449777,-0.4926191963876666
1729143863.820303,0.61374985959212025,1.2596339464202042,-0.50564956316411258
1729143863.828329,0.62089696723298782,1.367922676234524,-0.51729899378313848
1729143863.836318,0.67967355968464849,1.4633327535176512,-0.50789958478826569
1729143863.84436,0.7883710507578453,1.5382449374382017,-0.50907098037473464
1729143863.852358,0.9302137564649291,1.5246598643395026,-0.59193199958878806
1729143863.860329,1.0808756493543323,1.4701086037809219,-0.72465817310231628
1729143863.868354,1.1902159928230347,1.4154548092804786,-0.80876362285578451
1729143863.876423,1.2366641461384646,1.2826253681366353,-0.85113878154008682
1729143863.884633,1.2238796372580985,1.0924611325009321,-0.90082821025400395
1729143863.89243,1.1632105192778561,0.87598413133789177,-1.0085431487299061
1729143863.900426,1.066148214731371,0.63775980999798043,-1.1598000393229708
1729143863.909874,0.96555467088800784,0.44480663497224482,-1.2607707351538986
1729143863.916457,0.87369748003379955,0.25453896920094798,-1.2304683245303112
1729143863.92436,0.79793719754036596,0.027570503450731483,-1.1003303919916447
1729143863.93231,0.73630480570874868,-0.19162013798449457,-0.90709847084296524
1729143863.940309,0.67229405170693934,-0.35165575696358631,-0.65749263885467957
1729143863.948302,0.61239025120202106,-0.4355449615993735,-0.43195630872146651
1729143863.956335,0.55346070758012034,-0.48013166855110834,-0.22618280546957245
1729143863.964316,0.48191932618270733,-0.52348560511916853,-0.015452240918719558
1729143863.972424,0.39216859058343601,-0.57950911639307778,0.20783058679440436
1729143863.980499,0.2997931986615594,-0.53777608227864371,0.43225942148296048
1729143863.988441,0.22712751601922115,-0.40801650669032358,0.61225271384180047
1729143863.996435,0.1701188694977642,-0.39592987583321532,0.77494986215497552
1729143864.004415,0.12676134526345634,-0.51872621109560102,0.92663078894855855
1729143864.012378,0.077759567403921925,-0.69520816209611325,1.0018888127506131
1729143864.020359,-0.041036412218825355,-0.87559309345227598,0.91188703251765091
1729143864.028346,-0.210222714128741,-0.92252468341544103,0.73230739624657426
1729143864.036355,-0.38495318584615984,-0.49115121604507694,0.52005270439499962
1729143864.044441,-0.55194221785006781,0.25891919530432594,0.28010486802734735
1729143864.05234,-0.72024604688633764,0.7783489221322788,0.09484423024493896
1729143864.060329,-0.90913334200000906,0.93909963144076025,-0.13444114448021982
1729143864.068675,-1.0726971463207315,0.90741734852577771,-0.44441684420743788
1729143864.076576,-1.2048906338301275,0.8769143471173132,-0.78322499610863805
1729143864.085513,-1.3037884691630186,0.8466932245512977,-1.077394715371502
1729143864.093198,-1.3077874623726893,0.69191404128237632,-1.1877017423718745
1729143864.100502,-1.1884395007203503,0.39961073752606158,-1.1383111068851564
1729143864.108568,-1.033395471682389,0.14973299451641725,-1.0371607952675042
1729143864.116574,-0.93185525303037153,0.084944361003036983,-0.89878217208009192
1729143864.124486,-0.88668165411325628,0.16143318755121938,-0.74509044796494739
1729143864.13235,-0.89916667047895604,0.26862585233066139,-0.59391733998336926
1729143864.140324,-0.96540290878013624,0.39360228495666605,-0.3925340592142943
1729143864.148305,-1.0421796871080411,0.53414441399742174,-0.17677520704681621
1729143864.156326,-1.0914384295657491,0.68445165094849003,-0.030292293287848084
1729143864.164358,-1.1226964352862221,0.83699958712331868,0.045039598154402845
1729143864.172358,-1.1595430663306423,0.97620563571196339,0.12706092333621916
1729143864.180414,-1.1707959483900126,1.0701586713709701,0.26779708165964572
1729143864.188415,-1.1379585019096659,1.0973707235562249,0.41438952562715825
1729143864.196395,-1.078454013274758,1.0300498577900885,0.55385348944457158
1729143864.204409,-1.0195512117441323,0.87046412112103777,0.696702786278242
1729143864.212383,-0.97484434947359233,0.62955236816105453,0.81242351371151744
1729143864.22032,-0.89033922878316307,0.31494213683098304,0.91186709950455591
1729143864.228346,-0.75449814407649918,0.01996632769816329,1.0164435524646234
1729143864.236331,-0.58402427040693627,-0.2217240471237574,1.1413401732141204
1729143864.244333,-0.42320756275416915,-0.4144155589006574,1.2422452394130028
1729143864.252302,-0.32458908785519869,-0.57302516217446253,1.2397861500359513
1729143864.260299,-0.26605653800800955,-0.71778381629907229,1.1527469940558521
1729143864.268354,-0.2213589817168003,-0.83316024289179424,1.0579544943215895
1729143864.276421,-0.18070552094455872,-0.93984682425608623,0.95702007311971149
1729143864.284435,-0.14673541809831808,-1.0311029370082314,0.83579858664024531
1729143864.292399,-0.11954231540718119,-1.0562711453879072,0.71240857743858388
1729143864.300391,-0.094925497593989439,-1.0654124095552444,0.59814686110942505
1729143864.308423,-0.07079022555390968,-1.116871694693546,0.49340617608765702
1729143864.31636,-0.057160442452785898,-1.2156448305797212,0.37692481733038019
1729143864.324312,-0.054942233452580064,-1.3440833470990063,0.26978812169808636
1729143864.332297,-0.04892871737637422,-1.5439580397423736,0.18635005155291862
1729143864.340325,-0.0076470372912609223,-1.8075532510718295,0.095208118534731948
1729143864.348297,0.076080044272298433,-1.9697544334533923,-0.0048130328218864288
1729143864.356334,0.17995324095465004,-1.7720719302891421,-0.15187934120484292
1729143864.364385,0.26781856265178289,-1.251185320308972,-0.31780756245143754
1729143864.372473,0.34650484941924653,-0.62300417374677375,-0.33201363787625704
1729143864.381148,0.43522140247227281,0.032092969355982937,-0.17217686382291519
1729143864.388535,0.5108000625308452,0.57690976212885103,-0.0077386994955230097
1729143864.396514,0.60510161563412224,0.94658168896950623,0.094755409654070574
1729143864.404526,0.71127543965641515,1.1628508742748929,0.18115474373935558
1729143864.412798,0.79817984241947171,1.2902710901200838,0.2334200342519886
1729143864.420532,0.86692439647432473,1.3839636671164106,0.232639608919185
1729143864.428419,0.90774543884577463,1.4644435468175425,0.2259988478283034
1729143864.436336,0.94756290648127772,1.5346545128035163,0.24904571007661347
1729143864.444334,1.0087012674405074,1.5663516858892805,0.27181331871630215
1729143864.452311,1.082845009424704,1.5064044833395323,0.25035445382949778
1729143864.460301,1.1615993045629154,1.3365566374798745,0.2166203218857756
1729143864.468373,1.2290721595652887,1.1456787071185153,0.19403854738150111
1729143864.47641,1.2750898433657192,1.022212457610997,0.10961208744550817
1729143864.484421,1.2909939769557717,0.94366296226113466,-0.039378192713816915
1729143864.492407,1.2517949450724006,0.81990905398805158,-0.22582969482275517
1729143864.50039,1.1514384698484812,0.59666518751249065,-0.41879455279663513
1729143864.508407,1.0335435813860241,0.34969815630898476,-0.56054056133014707
1729143864.51638,0.93236980891401455,0.13149192247637703,-0.67453509062967232
1729143864.524306,0.86485450444741629,-0.056474286059099835,-0.77507140784977091
1729143864.532323,0.83051782765865689,-0.20990741205000998,-0.83283905781305789
1729143864.540307,0.80523323090931886,-0.35624277048096509,-0.84131970901111508
1729143864.548319,0.76771374463295949,-0.5538720213967423,-0.79894365787693289
1729143864.556319,0.70774132745848506,-0.75758758423861494,-0.67667353821381138
1729143864.564328,0.64153388278999612,-0.86193793936233321,-0.50944680786356045
1729143864.572406,0.59457268494404825,-0.86750568420065188,-0.34504441540337416
1729143864.580434,0.56341613580624528,-0.85275450349150672,-0.17850541512406837
1729143864.588402,0.50279173526955334,-0.89881781299462182,0.03635430163826367
1729143864.596393,0.40958747174235699,-0.92539157354283574,0.26743574644655044
1729143864.604405,0.32705928478466229,-0.86024187316324707,0.40267909283982628
1729143864.612374,0.28350203347051384,-0.75814992383911328,0.46041214729537999
1729143864.620382,0.287591677045829,-0.69199931853781949,0.54592194231342495
1729143864.628342,0.26024715888867589,-0.68487424505888872,0.71684672659508286
1729143864.63633,0.082291069669543054,-0.55949037848558225,0.77747112611006752
1729143864.644329,-0.18347782181800545,-0.21330833442101529,0.61313290183971036
1729143864.652308,-0.44297632115411201,0.26428839098465295,0.31892538403569259
1729143864.660299,-0.65082245328487476,0.69856087755537888,0.048110524739441878
1729143864.668382,-0.79191919992962057,0.90123052113897795,-0.1009691539022545
1729143864.676594,-0.9387279968899247,0.86085723890283439,-0.28981559043865668
1729143864.684842,-1.0874741088244466,0.75021818708435595,-0.54381401767369941
1729143864.693299,-1.1997090393041097,0.71576151060292126,-0.77943548103055227
1729143864.700448,-1.2672628426226384,0.70062147551306686,-0.96465443537525319
1729143864.70856,-1.2735270746660623,0.59426727541507995,-1.0404535328807252
1729143864.716533,-1.2078981338738053,0.42318085986785592,-1.0220794821647035
1729143864.724637,-1.1067957104864565,0.29073070623717928,-0.95784379405233666
1729143864.732987,-0.99590282920152751,0.22828821651725456,-0.85906723748803904
1729143864.740358,-0.90276147158919318,0.22636784281737934,-0.74275883531354836
1729143864.748302,-0.84730234708325458,0.31269492622790174,-0.59315690748472294
1729143864.756349,-0.81402687237969151,0.45239617396612464,-0.43209266549253744
1729143864.764335,-0.81385617541553801,0.56260970641970443,-0.31033840667096624
1729143864.772423,-0.85994112890567642,0.65236362430299488,-0.18322321357234556
1729143864.780682,-0.92398860125476312,0.71813529675390619,-0.046718954016295638
1729143864.788575,-0.98136029239927547,0.66373364167207505,0.10648668701222461
1729143864.796564,-1.0136548567786727,0.44911014734795784,0.34740159314104785
1729143864.80453,-1.0064259665649344,0.219447506186986,0.62497868102522669
1729143864.812456,-0.95739117598317791,0.073774655353355312,0.84282058616190869
1729143864.820436,-0.88263431008841753,-0.03895761380381399,0.98927626151801307
1729143864.828376,-0.79606256452828228,-0.1970561133587973,1.0980084797433154
1729143864.836324,-0.66770815115976645,-0.40897997999384594,1.1973030155954592
1729143864.844349,-0.52556492373496611,-0.59913642907125586,1.2639036231208689
1729143864.85234,-0.42005870936063944,-0.73792032208249969,1.2832180196552063
1729143864.860319,-0.35356230527507815,-0.85631008795986352,1.283738715977796
1729143864.868366,-0.31643144822324465,-1.0180159305776946,1.2614895605138621
1729143864.876424,-0.28095654208682158,-1.2129481502846606,1.1772626720020734
1729143864.884419,-0.24413391116160357,-1.3639626870258026,1.0667042402288538
1729143864.892397,-0.23140551395863745,-1.42988138550569,0.95822586508018093
1729143864.90039,-0.23334650201975349,-1.4198397124332958,0.84546155310722959
1729143864.908663,-0.22216608307402419,-1.4035981471147703,0.72076049768754658
1729143864.916388,-0.19310910347982996,-1.4545140416819948,0.59847542258272024
1729143864.924318,-0.16609688934041766,-1.5529611432255235,0.5136107458603496
1729143864.932301,-0.1211554817080832,-1.6443818488227551,0.42544405944899949
1729143864.940315,-0.051408785951748338,-1.7075352283796035,0.3110318337209258
1729143864.9483,0.07855707422469313,-1.658586483575458,0.16788873752822611
1729143864.956368,0.237417702008344,-1.402537278964439,-0.020375579969012327
1729143864.964312,0.33188269855561048,-1.0064772661952008,-0.17569033158282754
1729143864.972435,0.40026817317417618,-0.50576480055012207,-0.16437227246218789
1729143864.98047,0.46428672126426529,0.01921418625814672,-0.061801173160846996
1729143864.988412,0.49184275355103702,0.46957101788803401,-0.054959686477913522
1729143864.996393,0.50773783783090698,0.82109191860521447,-0.13748272197567687
1729143865.004434,0.53025843527342087,1.0243420379292063,-0.20977096156255359
1729143865.01256,0.52504043103459985,1.115642425098335,-0.21440610972163471
1729143865.020339,0.49785814001870249,1.1497766894189037,-0.17674664277819041
1729143865.028347,0.49325524209936994,1.1760040638409821,-0.17628684580814946
1729143865.036321,0.54881304176806878,1.2094066260449039,-0.23007360543180289
1729143865.044487,0.63940303483593131,1.2539253419013237,-0.28724852980152382
1729143865.052318,0.74888389363598185,1.3129890160862898,-0.3126139931326537
1729143865.060304,0.87055065199826931,1.356515331765048,-0.30825152830407815
1729143865.068385,0.98271419267014881,1.315159246430571,-0.28967067210210662
1729143865.076422,1.070445440023454,1.1822203196185288,-0.30001950648475639
1729143865.084418,1.1192529778822791,1.0405190595885778,-0.35624738933613487
1729143865.092399,1.1266144624322791,0.92569999926826507,-0.47214230090913412
1729143865.100499,1.0963376131531239,0.81104688146890891,-0.63426683622092561
1729143865.108399,1.0266630061487247,0.63178843983989807,-0.81071990883993827
1729143865.116391,0.92249464794189762,0.36779227727519503,-0.97916819144626444
1729143865.124397,0.82636411816230082,0.10957026032352679,-1.1034372693597407
1729143865.132352,0.75506371832775776,-0.12496699134087408,-1.1613968037108076
1729143865.140331,0.69781001633732276,-0.3476346791709557,-1.1480695473762381
1729143865.148315,0.64281182716215324,-0.56211640354679071,-1.0743040790796123
1729143865.156352,0.58448435500006068,-0.74529376603943165,-0.95342058703847143
1729143865.164314,0.53033181893701387,-0.85200750807405101,-0.82661500897737783
1729143865.17243,0.47698148428754611,-0.90901186728069905,-0.67050193058585961
1729143865.180492,0.41687573944137135,-0.95279250918758374,-0.47168863836982688
1729143865.188414,0.33441207583430504,-1.0109876489413669,-0.22937623527768014
1729143865.196395,0.22661433924976693,-1.0201504840751838,0.055211856675692214
1729143865.204465,0.12575204207477139,-0.94327715826257086,0.31621100487766635
1729143865.21238,0.047781371249830784,-0.89119350191453461,0.56092833652149143
1729143865.220335,-0.0047478470748710134,-0.92826656297036902,0.78161596117144883
1729143865.228331,-0.024771746410217239,-1.0516117892011021,0.93680295424964211
1729143865.236338,-0.02933650993583942,-1.2258689344138505,1.0175701383141591
1729143865.244367,-0.083371020457387535,-1.4100272630348993,1.0115421208857294
1729143865.252321,-0.2028453443393019,-1.3534389110836813,0.97131596514293661
1729143865.260304,-0.31177781904637825,-0.98170083614282844,0.92312878322465619
1729143865.268537,-0.37479600853258288,-0.54879279087753507,0.75714427428291375
1729143865.276667,-0.42048218836135326,-0.18539243375235437,0.51111618777492951
1729143865.285345,-0.48556746669800527,0.12778950925951815,0.3030513471425304
1729143865.294165,-0.56889040009204772,0.4344662022145484,0.086689079548754169
1729143865.300698,-0.64357418369327102,0.67700460143859598,-0.13827000974427564
1729143865.3086,-0.71903413827927132,0.80294589814577111,-0.32092275020384109
1729143865.316505,-0.78474323398104906,0.80358922535275856,-0.44243371620051719
1729143865.324595,-0.7909648666080773,0.70287383207971854,-0.52960091285750099
1729143865.332403,-0.76787937231218617,0.60583525083015988,-0.59062787711166287
1729143865.340353,-0.78020801451456634,0.58528567251981434,-0.58680349982526692
1729143865.34831,-0.85188439911676128,0.60403130002033545,-0.50682043723660863
1729143865.356343,-0.94937855774521829,0.62017411222746144,-0.41902857893671369
1729143865.364393,-1.0383118923168277,0.64795162716387333,-0.3484744813753714
1729143865.372415,-1.0765598958778915,0.78530126855020643,-0.22824074159101423
1729143865.381254,-1.05140572106932,0.97668770911628633,-0.096716734146446534
1729143865.388725,-1.0129002628037653,1.1183380473280422,0.016040030206525585
1729143865.396623,-0.96872532980206194,1.2182274024062669,0.1379695716547179
1729143865.404491,-0.90433395453091914,1.239848909921619,0.28221753678779249
1729143865.412433,-0.83164392445127089,1.0682851727870395,0.45965114398978107
1729143865.420416,-0.7720665290986557,0.75654595535916536,0.62953912746881691
1729143865.428352,-0.68885565003407023,0.43519721051116977,0.74488115449229242
1729143865.436324,-0.57379854319162804,0.13021863240712714,0.80578541450786811
1729143865.444334,-0.43707955931369968,-0.16940759129589511,0.85190599690010926
1729143865.452307,-0.29119465976763792,-0.41814511547455757,0.92512718291189122
1729143865.460296,-0.1764195561064309,-0.56462064458225181,1.0137573509724738
1729143865.468371,-0.099466382741928039,-0.6912437576399133,1.102693416971634
1729143865.476429,-0.049676113200799073,-0.83362527506258699,1.1809579251666587
1729143865.484478,-0.0078826297551848178,-0.9784379490901447,1.2062064369491101
1729143865.492409,0.038903653446747351,-1.1055532643148411,1.1804892981182258
1729143865.500383,0.07272223919764409,-1.1871435792179346,1.1501598626685243
1729143865.508405,0.084286744388210474,-1.2139618849637648,1.1017382070348991
1729143865.516394,0.092715362717667407,-1.2213262221512915,1.0147913652958878
1729143865.524327,0.10862763028262337,-1.2913010939289604,0.92367261962870506
1729143865.532301,0.11327955511478359,-1.4286405907630566,0.85282514989283809
1729143865.540323,0.12096614572089309,-1.5489307043336353,0.7911606152855265
1729143865.548298,0.18113065310535392,-1.5781100762683173,0.67838906358089801
1729143865.556323,0.25873413852857846,-1.5023915759689417,0.5109018131452745
1729143865.564335,0.28954569750841802,-1.3301048374736308,0.27887123389213253
1729143865.572406,0.33165843130746453,-1.1356351212235694,0.021523894284533676
1729143865.58045,0.42737777675885869,-0.95722823256153799,-0.18928844262374483
1729143865.588411,0.5265270100529742,-0.66437038753614241,-0.42709379584103324
1729143865.596392,0.59836156181184252,-0.30156489850834228,-0.64661406386530296
1729143865.604436,0.64465496832812874,0.035524457148437674,-0.70979012478447767
1729143865.612385,0.64923090388821969,0.35824835793626064,-0.67405138070305104
1729143865.620403,0.61621850006146361,0.60551964615317044,-0.66069624542197369
1729143865.628355,0.58002199039912172,0.78091373798615527,-0.68673836917028974
1729143865.636333,0.55319580386417222,0.9197797079414467,-0.70321502354220344
1729143865.644345,0.55625614470899398,1.0224681877111439,-0.67159623517280365
1729143865.652317,0.59448884947089065,1.108558454107029,-0.64730383638288824
1729143865.660311,0.65382497258303252,1.1980990294146809,-0.65763126570446795
1729143865.668366,0.76732792769786928,1.2548032050295062,-0.65808090746767833
1729143865.676451,0.92695306398110822,1.2247593561483656,-0.65132680651148112
1729143865.684442,1.0895614854005906,1.1107399379599934,-0.71219208031072256
1729143865.692434,1.1886164534673971,0.99869505574711159,-0.84917409909530683
1729143865.700426,1.1937739514710719,0.91848457954479068,-0.95307350350062092
1729143865.708434,1.1408902071910196,0.76883121416470357,-0.95070825680158055
1729143865.71639,1.0550973228173102,0.56346434324970973,-0.88756404987016191
1729143865.724321,0.94892041929521342,0.3606401792073135,-0.84478209000449733
1729143865.732306,0.79922488476662523,0.13741860112318127,-0.81017342279439597
1729143865.740315,0.64725681507601551,-0.083780808327014594,-0.7393896402465463
1729143865.748308,0.55671450835384273,-0.30632105696562079,-0.5907097003830597
1729143865.756327,0.52005526187121343,-0.51157398150513678,-0.39103516551557055
1729143865.764328,0.49593126367432572,-0.64983773341074846,-0.15884826836910071
1729143865.77242,0.45293563063823694,-0.72534640847852994,0.097954326882301934
1729143865.780955,0.38946468037719384,-0.76447910762799942,0.31163249263782794
1729143865.788837,0.28774144603199431,-0.81541573608198215,0.51199385750895798
1729143865.796563,0.16327968626703188,-0.86981635659624557,0.71841291387769735
1729143865.804679,0.077534688810041621,-0.83732614950111262,0.90696923704116972
1729143865.81263,0.03630425181093621,-0.72098753626142076,1.0724629084990831
1729143865.820505,0.019441255748520549,-0.65118436831760562,1.2004931905225182
1729143865.828404,0.0033637972506027139,-0.7533985533562142,1.2779498948287724
1729143865.836333,-0.035442447058297154,-0.97904342810372369,1.2769594755595084
1729143865.844504,-0.16642577919353108,-1.2234070086865094,1.1326948282545142
1729143865.852306,-0.38485496366494881,-1.2546631503799703,0.98611374120537121
1729143865.8603,-0.55826863546327155,-0.97011266660434936,0.97649206028489932
1729143865.868386,-0.61059549607462849,-0.56738129284216954,0.92240322975667555
1729143865.876416,-0.60751071746301788,-0.21336029235888526,0.69838940378182701
1729143865.884421,-0.62311314281599495,0.10526197826586214,0.33049010948499358
1729143865.892405,-0.65482332625453776,0.46011316927286172,0.026315280860335383
1729143865.900415,-0.69130272883760679,0.7426242089261037,-0.11298207507606332
1729143865.908393,-0.73064366290739158,0.90085004608930497,-0.23678819944606452
1729143865.916387,-0.76254917954777202,0.97215974997608301,-0.38067219911710737
1729143865.924327,-0.76104652155109176,0.92618919449331627,-0.5287276578317277
1729143865.932311,-0.74843845006287768,0.7900558955308381,-0.61032420201564541
1729143865.940316,-0.76024250496647161,0.68475011774220851,-0.57925239697113406
1729143865.948296,-0.82883715178989159,0.64497960444944247,-0.45227119330234017
1729143865.956315,-0.94129702517883396,0.64155041942396029,-0.29520135942327785
1729143865.964313,-1.0683695578168837,0.64311127393109835,-0.2011723041265715
1729143865.972433,-1.1748370717635179,0.70768845082395493,-0.10899690578573702
1729143865.980424,-1.2023210798764947,0.8566884828783351,0.011438912622454483
1729143865.98841,-1.1502753848488938,1.0022795902239514,0.11860698870725599
1729143865.996391,-1.0734991312558955,1.1002765061678721,0.22654106565799512
1729143866.004406,-0.99657084964409948,1.1633315563488447,0.38303772007350639
1729143866.012379,-0.91188893011470795,1.1375239222688545,0.5493030231713586
1729143866.020332,-0.84128519053908857,0.9762404957701144,0.65842738638223464
1729143866.028334,-0.76912464249137469,0.68003464607590858,0.74241952198235861
1729143866.036325,-0.68325930751654318,0.3637490212534939,0.82303879770623722
1729143866.044334,-0.58129583424839359,0.1131039675709745,0.89333340130585892
1729143866.052306,-0.47201477334229425,-0.12582659742263969,0.93636154358855594
1729143866.060294,-0.36238721543731445,-0.36241105987899308,0.93472141999387337
1729143866.06843,-0.235311311843794,-0.57523913258623338,0.87414073723237928
1729143866.076641,-0.11819952378732668,-0.74188661683435342,0.79224349099904545
1729143866.084939,-0.047506760891984273,-0.89040377438989715,0.73501703209126656
1729143866.093038,-0.012540679230364379,-1.0178261744548061,0.67386268287449125
1729143866.100439,0.011205955166110762,-1.1296118895951002,0.55394766632859882
1729143866.108505,0.022899795435223656,-1.2232889475206536,0.38664408263356831
1729143866.11652,0.028213339350843268,-1.2765153518457515,0.22687816884259659
1729143866.124655,0.061199770002557247,-1.3259044869607535,0.051627424105344662
1729143866.132399,0.12717900006221605,-1.3921473133154894,-0.13121145895382724
1729143866.140363,0.18507121074087871,-1.4727592550286859,-0.27965258438237528
1729143866.148301,0.22832033837731691,-1.592216660320763,-0.39596142357307412
1729143866.156411,0.27427724784789531,-1.7400896244977133,-0.4814972593615886
1729143866.164336,0.32207167144968885,-1.7743250751367432,-0.56219137507557748
1729143866.17241,0.36096488708585373,-1.6277829963963137,-0.65019702021993975
1729143866.180634,0.38536504162120777,-1.4010827891154336,-0.74024828768448492
1729143866.188595,0.41086023090970203,-1.2227065036314335,-0.7996001739314873
1729143866.196599,0.44190787675689375,-1.1120623668186063,-0.81073412714562187
1729143866.204459,0.47096587077102853,-0.88859625205142012,-0.82060717453506793
1729143866.212427,0.50010714386971522,-0.5442256928288649,-0.82631815793800456
1729143866.220424,0.52887269435767115,-0.1960614118592062,-0.76057011299218646
1729143866.228379,0.53591546317535588,0.14033133013046742,-0.62555386722646933
1729143866.236325,0.52375205709967854,0.40197642895968699,-0.5009108884671809
1729143866.244338,0.50581176191772137,0.55236529230455722,-0.44826098440763357
1729143866.25232,0.48972645904027162,0.64344999043440354,-0.45455745744202591
1729143866.260307,0.50689375118590974,0.76408276883892623,-0.48600519525769337
1729143866.268368,0.57210814440189472,0.94586478167738197,-0.53722628261820826
1729143866.276485,0.6535929414469579,1.0870735890208387,-0.59158473344565987
1729143866.284524,0.73462341931437924,1.0325982233288284,-0.67634683647122973
1729143866.292434,0.81601984076740841,0.86049950878480697,-0.8074466748721647
1729143866.300406,0.88678073180452044,0.69721798139224767,-1.0087053156137908
1729143866.30841,0.92349045059705026,0.47516041204052978,-1.2714281355563539
1729143866.316398,0.90762986640244736,0.24061163580153555,-1.5244164012893868
1729143866.324304,0.84447656814146965,0.10115944024252513,-1.7728410046810879
1729143866.3323,0.77572205972888575,0.0096128567700712805,-1.9682959834154699
1729143866.340321,0.74638867640227224,-0.13130448572873141,-1.9936199173803002
1729143866.348301,0.71665647965463641,-0.26097803774298833,-1.865569572077225
1729143866.356356,0.65539677533692753,-0.3032370488194629,-1.7061554929717455
1729143866.364341,0.55840580904942483,-0.31752451386733482,-1.5117469512492665
1729143866.372432,0.45168256227025155,-0.35674667732132426,-1.2473873748884543
1729143866.380691,0.37892196794277594,-0.43072424767696865,-0.87741651355606809
1729143866.388425,0.33845828680725576,-0.48490166130398199,-0.42130446295251911
1729143866.396407,0.30907179738839929,-0.48654558002419274,-0.017588918813738946
1729143866.404432,0.2420598566074898,-0.46816303345979676,0.33787396401842956
1729143866.412385,0.13927625310402542,-0.45181237975288374,0.64437781717791554
1729143866.420302,0.033334324609895508,-0.43050835586926106,0.84360497128624035
1729143866.42833,-0.055133701082111283,-0.4307094884136794,0.96058712338246299
1729143866.436338,-0.10544753109781214,-0.47510193433238168,1.0239653736568042
1729143866.444349,-0.16585982347103689,-0.54984037882881265,1.0106966714152339
1729143866.452313,-0.26851484848304868,-0.61894777903000708,0.93888194085098697
1729143866.460295,-0.38949162706420914,-0.50737664205512334,0.91218216987872713
1729143866.468379,-0.47080434047287711,-0.18310431771639496,0.84018406421311398
1729143866.476614,-0.50064876078301745,0.13810187017179645,0.61968529021481
1729143866.484881,-0.54409681665682352,0.42192325605758602,0.32200543693782824
1729143866.492913,-0.59421713865371206,0.69629730761652642,0.067199003969935583
1729143866.500602,-0.62088381136014892,0.91711282666487892,-0.062910437522581311
1729143866.508721,-0.62858285878550135,1.1017491706229894,-0.17269001199701281
1729143866.516728,-0.62234719067343092,1.233602635040226,-0.29858005534781817
1729143866.524706,-0.60008827213259042,1.2314079119513202,-0.39731418970798205
1729143866.532373,-0.56076582725890223,1.1162189866568832,-0.48699150971861571
1729143866.540363,-0.51312087186208444,0.96877866017120717,-0.54995023804642951
1729143866.548305,-0.48836510917715203,0.84966477985453515,-0.53174723196086071
1729143866.556371,-0.50969530679046526,0.80480208050590907,-0.44207276693904352
1729143866.564324,-0.59571211592992268,0.7989561189391039,-0.31334663710863569
1729143866.572631,-0.72564917272261098,0.78076223487858065,-0.19567040337149796
1729143866.580609,-0.86405939552583244,0.78623497180855495,-0.12910871871310464
1729143866.588877,-0.93774034785560056,0.92233391314269342,-0.06405599429180879
1729143866.596748,-0.92001101531073581,1.118291059445732,0.00051704404869061873
1729143866.604662,-0.89234581332533569,1.2562984701777327,0.075018832215800926
1729143866.612512,-0.87532100207263364,1.352724998583718,0.18208349912025473
1729143866.620672,-0.8425445420635248,1.4231387724404392,0.30017209203787398
1729143866.628506,-0.78116104003478037,1.37067099807917,0.40018501699859471
1729143866.636734,-0.71048857893130224,1.1695528439697886,0.46806803811207476
1729143866.644376,-0.62253626569277787,0.88605550299493296,0.52071717250109961
1729143866.65234,-0.51527654988252325,0.59506112095480246,0.54336716184381195
1729143866.660299,-0.37110383387223955,0.3276640583320013,0.51119547384227093
1729143866.668383,-0.18222174448445072,0.074638232390328713,0.4893383206725741
1729143866.676432,-0.012701402738789263,-0.12187471962818816,0.51687742964038008
1729143866.684559,0.11135953053536427,-0.2968249590752105,0.52765407919132623
1729143866.692429,0.20133377774322053,-0.46543576693199762,0.49900063885127627
1729143866.700389,0.27106885834202948,-0.6315199860190297,0.44754052469955274
1729143866.708432,0.32035948277690041,-0.82822785148459221,0.40133961399588547
1729143866.716383,0.33737600062469303,-1.0143629805978547,0.37468329272734024
1729143866.724316,0.33864642004266593,-1.1290238884960464,0.34400319284577302
1729143866.732298,0.34685824776903518,-1.1776001553155149,0.30835468542762035
1729143866.740308,0.38711761950620538,-1.1854614123340945,0.26589392293435821
1729143866.748292,0.44703120771131821,-1.1586771019970521,0.20572372542924536
1729143866.756619,0.48872617646412331,-1.0991861295256991,0.15003986409892417
1729143866.764314,0.50969910213191705,-0.9998508818543137,0.10556160570271866
1729143866.77243,0.5163231966721249,-0.88001458955460499,0.063975498513824239
1729143866.780495,0.50156729069192008,-0.71382246556093976,0.0215705416805443
1729143866.788429,0.48100727041359137,-0.52684072856502417,-0.03941755255150331
1729143866.796386,0.46803272315440114,-0.41380030624455078,-0.1113426841920805
1729143866.804395,0.45662962927645973,-0.34555036279080464,-0.19110710846216153
1729143866.812394,0.44808501270384671,-0.26011578529577473,-0.27365950303336573
1729143866.820317,0.41805537416475014,-0.094344412265470232,-0.35298924407843041
1729143866.828334,0.36193833054044033,0.12537585391573636,-0.43081108306927351
1729143866.836321,0.29761841994058819,0.35618095291438268,-0.49006204327690928
1729143866.844554,0.25476957296605657,0.61002601896978104,-0.52433554921710468
1729143866.852297,0.25183468306955625,0.8440655504037301,-0.53766292173636732
1729143866.860312,0.28625740435592884,1.043873032838053,-0.55183185113912447
1729143866.868374,0.34288184732129401,1.1856805604639413,-0.58204340191534232
1729143866.876438,0.40048231151165586,1.226493310647423,-0.64082373325069697
1729143866.884498,0.47633452598769005,1.196279787859641,-0.74164820151706268
1729143866.892438,0.57867547787849183,1.1477148347924366,-0.86769915194203495
1729143866.900405,0.72415383615172413,1.0562122689479261,-1.017186947860681
1729143866.908429,0.8831696264720158,0.9089359861039592,-1.1575367427258503
1729143866.916384,0.97666349538761166,0.74032763981198602,-1.2591999121648951
1729143866.924305,0.96145673144207888,0.62447632491636196,-1.3340327408258381
1729143866.932309,0.87166440642770415,0.57135460334527577,-1.3702057917624322
1729143866.94034,0.73435375937252112,0.46413442952384443,-1.3525332916391506
1729143866.948339,0.57002203430797027,0.29976516078740822,-1.3095773468940672
1729143866.956343,0.39181895777583986,0.1555947629691091,-1.2644348822504949
1729143866.964314,0.18656270765883229,0.040784135190904541,-1.1251800722691061
1729143866.972495,0.0095591648136807636,-0.064711586761752898,-0.89561549519879602
1729143866.980961,-0.11047788789092616,-0.18441295307706654,-0.62697705505703527
1729143866.98871,-0.19186530086585502,-0.30093122931976801,-0.34723930885480292
1729143866.996803,-0.26240794178537591,-0.37020365997319588,-0.080849411905003291
1729143867.004515,-0.36198883960373174,-0.39665512118335045,0.20839430494933409
1729143867.012594,-0.48601657757551198,-0.40018098612704434,0.47857217901381771
1729143867.020605,-0.63301337583785655,-0.36079172410071259,0.70857646825570186
1729143867.028434,-0.78996039972138143,-0.28820380981677984,0.90553711531332381
1729143867.036365,-0.92414347982892731,-0.22719776872647693,1.0713907904316444
1729143867.044652,-1.0387085328104173,-0.21038873193027965,1.2032554401737512
1729143867.052343,-1.1246880120885236,-0.23244290949294466,1.2881210458487529
1729143867.060317,-1.1847895008846281,-0.29611968831379443,1.3526624912205389
1729143867.068407,-1.2285128152686073,-0.40243616544022931,1.400114004703582
1729143867.076597,-1.2498513681921815,-0.50113263675597686,1.389847117200363
1729143867.088581,-1.2486067279180788,-0.56929001083612807,1.3128095894650034
1729143867.093226,-1.2344507068175634,-0.61082297037641187,1.219335476001502
1729143867.100417,-1.1953074097319876,-0.60445452658312271,1.1589941073087808
1729143867.108523,-1.1352120861949075,-0.55189194826974663,1.1483306897808701
1729143867.116439,-1.0674409824937381,-0.47799824016624892,1.1691768031976937
1729143867.124575,-0.9865506094648745,-0.39045447406575406,1.1782789507560916
1729143867.132351,-0.90438687079205593,-0.31238681071773522,1.1586245256648704
1729143867.140345,-0.81549945187239592,-0.25532965123383516,1.1059656247097827
1729143867.148296,-0.72300351486609293,-0.2070475835152481,1.0364838686666094
1729143867.156332,-0.62493694651610787,-0.13806347710666489,0.97500022718272072
1729143867.164313,-0.53076473040476824,-0.02026164722908029,0.93385314167776734
1729143867.172375,-0.47128157030773032,0.11065459439434795,0.91810438166549801
1729143867.180408,-0.42494942271295677,0.17877493286258514,0.89184036823038615
1729143867.188409,-0.38523081243515572,0.19027452170264725,0.85224331672744524
1729143867.19639,-0.37268043289721897,0.19547151476083641,0.83721173208565236
1729143867.204432,-0.37941082223343497,0.21050903231668674,0.84713598903563703
1729143867.212382,-0.39217570209513619,0.24060320089256751,0.86671262517241288
1729143867.220316,-0.42558887873060991,0.30803974916769161,0.90080733508123501
1729143867.228343,-0.47075249833815391,0.37872567249657041,0.94318719919182303
1729143867.236327,-0.50828007660850016,0.34728000083023514,1.0096942085892617
1729143867.244326,-0.54484439559895481,0.19985419926890044,1.1149418386621468
1729143867.252299,-0.5746582531302753,0.030517606654313634,1.219382352667695
1729143867.260297,-0.56594093880769059,-0.098754202909470498,1.3009898688060844
1729143867.268377,-0.51260757326893014,-0.17780720386285809,1.3582553346876276
1729143867.280638,-0.41675404472636923,-0.19182233461012119,1.3860164182638921
1729143867.284556,-0.27495529543135039,-0.15936516715812399,1.38372986067459
1729143867.292456,-0.13155650743404076,-0.15649277908394491,1.3525596218186668
1729143867.300433,-0.002096848366527751,-0.25714780602105608,1.2740480248696975
1729143867.308485,0.11772226315872118,-0.39650632858452967,1.1737298090175619
1729143867.316379,0.23303411634299775,-0.46032685426462933,1.1143902596292046
1729143867.32434,0.35521964090558666,-0.42391056388610254,1.0917700768707821
1729143867.332327,0.45875495000694422,-0.32692649381093791,1.0673428706484469
1729143867.340334,0.53109269694284755,-0.18487510965781892,1.0199084121824693
1729143867.348358,0.58151923111851289,-0.020678772764740637,0.97101461415270518
1729143867.356433,0.61730912242291858,0.11764105011780626,0.94721230613385321
1729143867.364324,0.64282711278945137,0.21382933575265739,0.90973081297286118
1729143867.372455,0.65664799179425393,0.27047808197991297,0.8421187705612907
1729143867.380656,0.65557533784497068,0.32149493217474762,0.78750377308610142
1729143867.388546,0.64322526878519493,0.36445005407404729,0.75409623950879467
1729143867.396727,0.6145307242762279,0.37021569432491164,0.71468282156588825
1729143867.404498,0.56623862308411943,0.33195745245215108,0.67124018294215992
1729143867.41252,0.52619542077084147,0.28239687848711781,0.65177279572058444
1729143867.420425,0.53558616920764412,0.26245140552172458,0.67372187824313967
1729143867.428388,0.59294196073736249,0.27410992015363145,0.71200704138293269
1729143867.436321,0.69525300045838767,0.31537307888046906,0.72199459239221653
1729143867.444333,0.83092254001612731,0.38312567032423683,0.71670633636904302
1729143867.452313,0.94084549786872718,0.4474030236016403,0.71566183306244902
1729143867.460309,0.98083217883110319,0.49214194145928181,0.68438544665322631
1729143867.468375,0.95884966077062939,0.51749537695874959,0.61432396240151788
1729143867.476417,0.89542872268182538,0.52504501715211371,0.5173730539218907
1729143867.484417,0.80820895772967838,0.52978764629886321,0.38598381826264505
1729143867.492427,0.7318256102857853,0.54029564489322945,0.25053349869264741
1729143867.500437,0.67641757543655379,0.55660416049420691,0.12733283589663874
1729143867.508409,0.6399800790660497,0.57894712666792336,0.018718698209877954
1729143867.516382,0.61960749645886426,0.60171808772431779,-0.063690231891390794
1729143867.524313,0.61462067793940767,0.6326211118473668,-0.12377784148870284
1729143867.532303,0.62248368339501536,0.67649148497818712,-0.17089834884510288
1729143867.540313,0.62784002176057307,0.73729460383510381,-0.22343498676227869
1729143867.548302,0.61934734808970182,0.80527753969744431,-0.27560293749349274
1729143867.556519,0.5895617203223813,0.86841602944160512,-0.3222285501448543
1729143867.564305,0.53806082880648842,0.92928638660705132,-0.39192154375895027
1729143867.572422,0.48247027033215489,0.97921783784237304,-0.47439074079703197
1729143867.580507,0.42442591168275695,1.010666623798683,-0.53387597546423871
1729143867.58841,0.36341935771320322,1.024640459665656,-0.56594875074213546
1729143867.596435,0.29595289587547369,1.0308963108785294,-0.58008413517132906
1729143867.604441,0.22248203900952854,1.0314571461452884,-0.57345336864694318
1729143867.6124,0.15328381126370158,0.98688334582109927,-0.48965802220818067
1729143867.620344,0.10005839792599955,0.91650583432672761,-0.33338398904087735
1729143867.628331,0.074721345876039819,0.90131064633294367,-0.20173315367037453
1729143867.636336,0.078249477350393365,0.99137931785732669,-0.14509138067482952
1729143867.6444,0.10079947918518302,1.1490760507379612,-0.13622203050376236
1729143867.652352,0.12475888679187659,1.2747694649530701,-0.1194067887416472
1729143867.66031,0.15275661332267776,1.2971871008301126,-0.061001821708437529
1729143867.668374,0.18615716163817767,1.268068676210135,0.010437658766491973
1729143867.676426,0.22854621885423426,1.3201979464871905,0.056706867543145925
1729143867.68451,0.27803114165647302,1.4353364507614439,0.091066588761799794
1729143867.69244,0.34496997571574406,1.5389004483044206,0.12189898296808087
1729143867.70038,0.41557011554584189,1.5976333263385105,0.14891222072109014
1729143867.708425,0.4466494128151568,1.601159143580043,0.16703576864947484
1729143867.716587,0.41400133877057088,1.5949736777264529,0.14832443813489449
1729143867.72439,0.33204890033963175,1.6133982814103245,0.094954323741405111
1729143867.732343,0.21412849235495013,1.6487173771239831,0.020788939020570378
1729143867.740362,0.08995214485065621,1.6803382410579983,-0.062022397343513308
1729143867.748328,0.013743576102231736,1.6995236044491384,-0.12511843609801751
1729143867.756339,-0.0055887813361769866,1.705500851684816,-0.16978710033411254
1729143867.764336,0.0053733774582654572,1.7061073695959883,-0.21574435164156097
1729143867.772404,0.01514334819589616,1.7109410259880429,-0.28269503311126798
1729143867.781171,0.01036307910192379,1.717246740314972,-0.35245090126470335
1729143867.788964,-0.0080427695978237852,1.7203916338189364,-0.400051237986502
1729143867.796536,-0.046330442751242359,1.704186742309179,-0.44563904247806241
1729143867.804603,-0.1054867018675662,1.6655168832239062,-0.49704321364560344
1729143867.812846,-0.1641805656870412,1.6184763243308689,-0.54831883929630565
1729143867.82062,-0.20322809453188451,1.6070667464227966,-0.58419249542427143
1729143867.828402,-0.22537954165440438,1.6459826812851215,-0.59911849314838928
1729143867.836371,-0.26101913815467298,1.6959378710438933,-0.61445944270479047
1729143867.844397,-0.30836998980401809,1.7274009001142736,-0.62664384286886543
1729143867.852345,-0.35189249797552724,1.7005170359493336,-0.62033240100052534
1729143867.860326,-0.38353997367743919,1.5941404244204187,-0.60547759428150849
1729143867.868432,-0.39486603799226971,1.4492205007945529,-0.60273721614129794
1729143867.876704,-0.38080286356952853,1.2881984759246397,-0.62280318239173516
1729143867.885164,-0.34661071019743089,1.1356070179204347,-0.64782630901658944
1729143867.893359,-0.29416866356451993,0.96444810162451178,-0.69199995420165128
1729143867.900841,-0.22502986514538353,0.6742362797729331,-0.81683854551041757
1729143867.908534,-0.16588044854322739,0.33217445741521451,-0.99263024486217888
1729143867.91655,-0.13251924888924388,0.033285550478936367,-1.1764322357822494
1729143867.924418,-0.11526951449635699,-0.17627178804663476,-1.331623731818536
1729143867.932346,-0.091936126986032887,-0.22814896549831493,-1.4260156996246942
1729143867.940318,-0.044519424655068945,-0.151149996357967,-1.5013812430127182
1729143867.9483,0.01692157650681687,-0.044928316207611785,-1.5708649025488688
1729143867.956335,0.090821212551145114,0.018804691882601331,-1.666404891045506
1729143867.964321,0.17326025467859388,0.027459037465117998,-1.7963090396227646
1729143867.97237,0.25528896965690856,-0.0088531361779200807,-1.9019213827641521
1729143867.980422,0.3234494063789578,-0.084064543077227896,-1.9686943091406808
1729143867.988406,0.35881169761318088,-0.18836230576003499,-2.0168461761343766
1729143867.996389,0.37151527112447413,-0.31032472694367264,-2.0376491851628153
1729143868.004404,0.37700896492393993,-0.42011152493958998,-2.0290593325375079
1729143868.012382,0.39052174267870815,-0.52599846951457141,-2.016455844886738
1729143868.020347,0.41970106737393964,-0.65125569517155468,-1.9888863194075608
1729143868.028358,0.45359772955736677,-0.76748912149683068,-1.9404178495104021
1729143868.036339,0.4850036684654358,-0.88107525362258565,-1.8900522644990052
1729143868.044362,0.5170436237156002,-0.99456292444374506,-1.8570659280926636
1729143868.052318,0.56734297135242728,-1.0979878020377893,-1.8543017287073402
1729143868.060326,0.65562927332409071,-1.1940979335111783,-1.8605184752131936
1729143868.068383,0.75755541157522255,-1.2690044598844239,-1.8574374821333131
1729143868.076415,0.87064528202426938,-1.3231007120298051,-1.8509062956093025
1729143868.084406,0.99149761694572047,-1.3608795890853091,-1.8457105135105101
1729143868.092407,1.1055137988911392,-1.3809927749498394,-1.8325893278068768
1729143868.100398,1.2103200083133943,-1.3847597302700478,-1.8038578033730572
1729143868.108431,1.2887414212101111,-1.3829758478782836,-1.7710812014694013
1729143868.116381,1.3338786636715625,-1.392973460041238,-1.7405601437599261
1729143868.124305,1.3435077166284897,-1.4130197993672575,-1.7186291436118137
1729143868.132297,1.3050133820105949,-1.4231319976862902,-1.7237752161658138
1729143868.140324,1.2301954387722212,-1.405573518266567,-1.7577253891542111
1729143868.148354,1.1606146492643989,-1.3733282374801694,-1.7938460252213444
1729143868.156387,1.1090753041460792,-1.3478085631171315,-1.8087073658782322
1729143868.164322,1.074746176583391,-1.3348380538373499,-1.8016607929675386
1729143868.172404,1.0633010363672117,-1.3519586168650097,-1.763164799273429
1729143868.180434,1.0628193031594346,-1.4082054813195051,-1.6777036090527753
1729143868.188383,1.0506109415138316,-1.4819684657696333,-1.5678945114693539
1729143868.196376,1.0113591699168172,-1.5596429262644798,-1.4581629765887116
1729143868.20443,0.95630704241041831,-1.6130586435447802,-1.3757221432633071
1729143868.21238,0.9019912628334773,-1.5748692137717253,-1.3452008510031248
1729143868.220318,0.84407323643032184,-1.4436174352658053,-1.3319963563845598
1729143868.228327,0.78739938242313401,-1.2956917331746731,-1.3164112385071043
1729143868.236346,0.7318977219149887,-1.171178346757183,-1.3121684485181753
1729143868.244342,0.68433610855112348,-1.0798684025096699,-1.298341987896074
1729143868.25231,0.6617588013932727,-1.0327448570674784,-1.2253412221805846
1729143868.260324,0.6633244142804644,-1.021498332260645,-1.1174744085012551
1729143868.268391,0.67490603354933021,-1.0262440490360196,-1.0418992237263756
1729143868.276605,0.69547708707743472,-1.0082326660896048,-1.0146459404735841
1729143868.284751,0.72527301171424075,-0.9548568301755529,-1.0161729531033148
1729143868.292905,0.76443506956942586,-0.86110626971512705,-1.0226231314801595
1729143868.300532,0.81453793312391387,-0.7218463714537755,-1.0303244490594246
1729143868.30873,0.84800517174830292,-0.58891038536736884,-1.039840675313797
1729143868.316606,0.82956056436062253,-0.49148265616485054,-1.052361452049813
1729143868.32456,0.77230642825938389,-0.41663695127705136,-1.0558298625075333
1729143868.332374,0.68559406903881082,-0.35683037619320074,-1.0285382945412853
1729143868.340366,0.57929117067005786,-0.29668209763955455,-0.98534487988942854
1729143868.34832,0.5018873496820212,-0.22909206595917653,-0.94942511465395674
1729143868.356394,0.47843232040814887,-0.15107732154229092,-0.89743641611813829
1729143868.364323,0.48798510125496819,-0.072341720282507196,-0.82388703588117518
1729143868.372387,0.49265254460940477,0.021725547234186522,-0.73037736060940162
1729143868.380616,0.48012816840943351,0.13882674150254226,-0.62531719837820388
1729143868.389168,0.42898031138959258,0.25548767476291712,-0.51481665918646868
1729143868.397396,0.32017747089940518,0.34911003313028477,-0.38913257209747421
1729143868.404485,0.1882752719864848,0.40741189845801556,-0.27838984474272888
1729143868.412436,0.057625455201826777,0.46389036575848663,-0.18576426954996669
1729143868.420445,-0.053968259663006515,0.53140696099426976,-0.099752085039774147
1729143868.428352,-0.13071535999553324,0.59916108206930974,-0.016218019724006248
1729143868.436318,-0.19591967296084067,0.66578064846351759,0.089667817516980636
1729143868.444334,-0.25845521412043687,0.73938190315554286,0.21535006883502936
1729143868.452311,-0.31193991612102079,0.85080168568175885,0.36014689964416974
1729143868.460296,-0.34445642738283316,0.97512171349486287,0.50364177630410423
1729143868.468348,-0.33799924039073664,1.0584403764426971,0.63017925813895781
1729143868.476483,-0.29517428757170283,1.1050260537197012,0.75314049903142455
1729143868.484416,-0.24564067243840881,1.1278691793483593,0.85118157707024045
1729143868.492405,-0.20442687169895751,1.0798499958135594,0.88914741088189042
1729143868.500403,-0.16671504438069479,0.949085715972523,0.86063125876270563
1729143868.50843,-0.1113098132571607,0.73334210324639593,0.77306986231922847
1729143868.516388,-0.025919642053941389,0.45894846968289793,0.66774745683185022
1729143868.524326,0.051281554417174122,0.23450283590938376,0.60795953403111946
1729143868.532312,0.083554500271596388,0.14091454657636127,0.61593285668127029
1729143868.540329,0.079931004465300048,0.1767106262523466,0.65881611077221258
1729143868.548314,0.058388009184999798,0.29056301739519863,0.66858268592195191
1729143868.556386,0.036735565756848006,0.43443443799042047,0.58526056313549979
1729143868.564335,0.02374409969995693,0.55523818532597824,0.46034583864631096
1729143868.572387,0.0067968837443886038,0.64091682563263574,0.4194522088697602
1729143868.580433,-0.016993527795737404,0.69381392503174744,0.44450892316415647
1729143868.588404,-0.051700897669990517,0.72427511448682824,0.44059974400573376
1729143868.596377,-0.064011518365301751,0.76064365577201321,0.39015125956547059
1729143868.604388,-0.024146293960202989,0.79608686250990912,0.3298710195682395
1729143868.61239,0.064052039963623034,0.80947752041559906,0.28050648366457781
1729143868.62064,0.16826669272409345,0.80388983319222806,0.25003638199945677
1729143868.628358,0.23632945517938211,0.79095919447530982,0.23750113683012153
1729143868.636329,0.24587889313509598,0.77596408020030427,0.22082765340708674
1729143868.644353,0.220746026452527,0.75653760512948109,0.19911708666305999
1729143868.652325,0.19034146423035248,0.74296611481040808,0.18672928170883699
1729143868.66038,0.15315551916198739,0.73461037558823328,0.17738099345972402
