Time,Accel_x,Accel_y,Accel_z,Orientation_x,Orientation_y,Orientation_z,Orientation_w,Gyro_x,Gyro_y,Gyro_z
1729143856.420483,-1.3131317767462738,0.10856745116574924,9.724349190932108,0.005568914757895756,0.06705623249044955,-0.00037427871321128655,0.9977335860779926,0.0036200926967295613,0.0033895409418753645,0.012496723169799025
1729143856.429166,-1.3141245909501078,0.12523493236937142,9.70770954019403,0.006434702015095274,0.06721798414771075,-0.0004335172142370298,0.9977174696676009,0.0038748158638858632,0.004162174872435377,0.007498033901879414
1729143856.436922,-1.309453035820065,0.1349960009255291,9.716879363032433,0.00692976642604884,0.0669187807006857,-0.00046478460421255714,0.9977342527457327,0.002324889518331518,0.002497304923461226,0.00237037003381749
1729143856.44445,-1.2987492372635232,0.13750075973500495,9.745126172506959,0.007038225936390934,0.06618888197445628,-0.00046688777920263436,0.9977821792828541,0.0013949337109989107,0.0014983829540767355,-0.0011319183484816957
1729143856.452448,-1.300706663940145,0.14451027883904985,9.761595417859644,0.007384491878857787,0.06617613766775367,-0.0004897641773656624,0.9977805110414415,0.0008369602265993464,0.0008990297724460412,-0.0036589814393232388
1729143856.460457,-1.289910111645337,0.13794208283077367,9.721677570540004,0.00707798136492916,0.06590067823173447,-0.00046747175487640207,0.997800974272201,0.0005021761359596078,0.002667868170777783,-0.005600909355290196
1729143856.468708,-1.3011492725536085,0.16919592963010482,9.699642223476346,0.008700613026532378,0.06661208062240527,-0.0005808782306825138,0.9977408444223369,0.0003013056815757647,0.00415486127123886,-0.005488995920484276
1729143856.476599,-1.287063214655212,0.1704705655905629,9.706053468851433,0.008760812769363756,0.06585723111733266,-0.0005782405352211199,0.9977904283500929,0.0023092337162556173,0.005047057131515506,-0.0032933975522905653
1729143856.484665,-1.2982440335294552,0.17913621264535337,9.720195283215157,0.009192358395523,0.06632517772469036,-0.0006110563017342702,0.9977555301561163,0.004791060721449623,0.006008064709143525,-0.001976038531374339
1729143856.492628,-1.3027977433598605,0.18050487822197764,9.713836321540422,0.009268459805147601,0.0665974997996328,-0.0006186564665407637,0.9977366816637817,0.006705846986028058,0.006158979194258304,0.000517137127023523
1729143856.50203,-1.313670254902635,0.20311331267537408,9.724386154496518,0.010417329987297864,0.06707018961202907,-0.0007003074659353166,0.9976936295631016,0.008280408806237151,0.0036953875165549824,0.002438732583524272
1729143856.50966,-1.3000824678829874,0.18124418877709947,9.708210558664707,0.009311867314758672,0.06649840444666077,-0.0006206251406704986,0.9977428857965339,0.010502216082748702,0.0022172325099329895,0.003591689857424722
1729143856.516959,-1.2746915437180737,-0.10912583780795906,9.544318614251559,-0.005703416939770026,0.06633055399264073,0.0003791520180197937,0.997781331197366,0.01396375075596579,0.0047358599976560466,0.004709154283227023
1729143856.524523,-1.0760611420511565,-0.4293941550285254,8.651587336763825,-0.02474379652173499,0.061737324048299465,0.0015310077355768811,0.9977844974584241,0.05222432678416873,0.0028415159985936277,0.011339293799176847
1729143856.53528,-1.0634248749279596,-0.6256252881831309,7.64285432222431,-0.04072558588633147,0.06878665513501896,0.002810381775640486,0.9967958288856481,0.28376880251748593,0.040442705192201056,0.041284471257930666
1729143856.540552,-1.2921508185114632,-1.0706513350192537,8.595282113598259,-0.06174598232307433,0.0738342282666793,0.004580280584178454,0.9953466539015403,0.6432029397948087,0.12302571737451197,0.03200741379961294
1729143856.54854,-1.3949098807553153,-1.7825096315779585,9.498814558686298,-0.0923689323809656,0.07130180955813237,0.0066315208710446705,0.993146542669043,0.936339013347292,0.15597361228687928,0.007285126558830875
1729143856.556643,-1.485774578355533,-2.0774646778725563,10.48218539170592,-0.09742890147566718,0.06869151431749071,0.006740760595119061,0.9928462354083909,1.1884191784804856,0.08634743632727303,-0.07608434568102544
1729143856.564551,-1.3762905831949603,-2.6875487859715808,10.513880064369255,-0.12454546381361002,0.0625408867133491,0.007866196412375324,0.9902096686493032,1.3571205700803453,0.03605792952226865,-0.19379074879740227
1729143856.572409,-1.5916794610009606,-2.4411624661630267,10.63560811918796,-0.11226340948031108,0.07189756041297783,0.008144435071463037,0.9910405319036577,1.5238976745054136,0.059521173183482,-0.3380589713001598
1729143856.580494,-1.8111741902724514,-1.859740753623597,10.351190644217853,-0.08843120842195214,0.08483173310874946,0.007558959508119993,0.9924345623596318,1.6758981246588227,0.09956621312939394,-0.3637462260127438
1729143856.588418,-1.8174148608431582,-1.3583770803479864,9.677039550104931,-0.06936714135840968,0.0915887733400703,0.006395736133015463,0.9933573329155729,1.752199242599697,0.10954546506869406,-0.3783071987173702
1729143856.596393,-1.4009768718281608,-1.0539675738923855,9.174626045736785,-0.05698895303409375,0.07508377969115025,0.004298123569994798,0.995538151651229,1.7664788488160312,0.0640245187953683,-0.43684951953120366
1729143856.604561,-1.3029064636730683,-0.8653363658686345,8.7429333728034,-0.04916815065907495,0.07345724440527386,0.0036259742973587376,0.9960790021456859,1.7686612616239012,0.0005282958071001695,-0.48219147349459246
1729143856.612403,-1.201208009063216,-0.5201595001852432,8.972334907715242,-0.028883954372210748,0.06635694647345296,0.0019216936399154296,0.9973759471373358,1.7125025510112493,-0.10525415775832374,-0.4940718036599927
1729143856.620554,-1.213930347430117,-0.47657735416388025,9.565592404590083,-0.02483644064855551,0.06297696331301185,0.0015677220612301296,0.9977046634928199,1.5536544465738205,-0.19213658327798983,-0.47778704837882113
1729143856.628543,-1.201691876670961,-0.07166536391434378,10.207175160771628,-0.0035042063983429083,0.058560017743328946,0.00020556042184176123,0.9982777181748232,1.4000260454910651,-0.2612936410482707,-0.4539684231818711
1729143856.636458,-1.1534079458267954,0.19833630899514376,10.343367261990322,0.009570922810198501,0.055485340047103315,-0.0005318897565562933,0.9984134872735371,1.191209928000815,-0.34280274148787016,-0.3541135457098327
1729143856.644663,-1.0621883441562334,0.44988045483068,9.948875812516459,0.02255913919119066,0.05308845578565989,-0.0011996281517559439,0.998334243624621,1.0127089998239112,-0.41469546507057964,-0.24482057209701402
1729143856.652344,-0.6995622496578027,0.7135738405253612,9.188090199423938,0.038715053205016614,0.037844534682268324,-0.0014673067187143526,0.9985323143799646,0.8489916647433187,-0.5008257954278704,-0.12603353024656885
1729143856.66033,-0.3799936022360878,1.0348350049988104,8.951645964136784,0.05750090368775089,0.021035450505932855,-0.0012118319223908098,0.9981230822701659,0.7226657196384689,-0.5763426370841187,-0.006658328191092203
1729143856.668417,-0.16335271651743394,1.0731656966028018,8.566528534292617,0.06226930792004427,0.009440785806331856,-0.0005890407045640619,0.9980145579527214,0.6251599594409956,-0.6067535899266965,0.12371202152395416
1729143856.676434,-0.044860353054991614,1.052589641350353,7.83674587057557,0.06670792970091602,0.002830353736485752,-0.00018922930081926684,0.9977685129352478,0.5211076667460741,-0.5130436754677289,0.3202760684394268
1729143856.68477,0.1631833999834113,1.334491392232087,8.086251568976202,0.08168361981755677,-0.00992076801817488,0.0008131218638273035,0.9966086009303076,0.4365404079330957,-0.38700455671257517,0.45055950837110925
1729143856.692583,0.32583803803692174,2.160840798474018,8.916626519999001,0.11857817746951083,-0.017623730015181555,0.002104974918368005,0.9927860741614752,0.3815431520306882,-0.27647450041959637,0.5108505897487134
1729143856.700392,0.09111563043934055,3.0715655899242544,11.36923830579823,0.13154918411050665,-0.003834717978640066,0.0005088802119464154,0.9913020973138381,0.27788024828654656,-0.24591443180661976,0.6091759875487325
1729143856.708541,-0.22856467813288006,4.111684847118615,13.666565529865656,0.14559723346130043,0.007921531082829773,-0.0011658137566872308,0.9893115463957772,0.1369298446695857,-0.20118560682818784,0.7107402323749472
1729143856.716575,-1.107748159907072,5.51123831915984,14.46388912138619,0.18090145692005505,0.035125380186200754,-0.00646509250464717,0.9828525185041155,-0.08386121716844093,-0.059837685307842184,0.7870036214833092
1729143856.724548,-1.7978245416961962,6.059835480509576,14.275498113944995,0.1990292823527645,0.056515487221086604,-0.01149779630825882,0.9782950194856154,-0.27848660324471347,0.0947842376841384,0.8059431810762183
1729143856.732435,-2.198462841472796,5.935771403051839,13.06783451045684,0.21093433950010043,0.07420470159699032,-0.016061118828610742,0.9745472831743627,-0.5212660930832385,0.3046221583813854,0.6887485182704303
1729143856.740359,-1.6621668027840684,5.048262072788136,11.222510551244808,0.20929510173706503,0.06558744192894275,-0.014071184885779534,0.9755489990800049,-0.7205707347305694,0.41860558907879675,0.5047724741765949
1729143856.748329,-1.3186019444634098,5.151177595235382,9.747087960385556,0.2402555125264905,0.05773656002240482,-0.014316995260048994,0.9688853399572812,-0.8524985315013669,0.4618799338709837,0.38289321606081883
1729143856.756389,-1.434004312429999,4.526509292736932,8.94539204380946,0.23147810489950857,0.06903912879320816,-0.01647110339471743,0.9702474882217256,-1.0006169995206946,0.46358020724296,0.3293474040186067
1729143856.764385,-1.4797825569404213,3.763129381794503,8.132538143766144,0.214250805687597,0.0798272631594301,-0.017571282951032566,0.9733526854815501,-1.0899137703937531,0.4420387980086582,0.2712528230440955
1729143856.772386,-1.4840257475431589,4.04634626921342,7.905075524199139,0.2335108501346633,0.08039366292732551,-0.0193767404258994,0.9688312978847151,-1.0604822709324921,0.36781458361754454,0.11762854731148195
1729143856.78083,-1.5270336699614422,3.5626593484421143,7.551922702214795,0.21768702276777202,0.08813158411331692,-0.01974119203165065,0.9718309880516006,-1.0194104178753238,0.29901572147954053,-0.061812480727802696
1729143856.788848,-1.641663305004209,3.171411885920737,7.127186481436298,0.20664322664466436,0.10126417503253025,-0.021507898830587513,0.9729242283059644,-0.9985985165941811,0.2483712228445734,-0.19118729068593707
1729143856.796429,-1.6642329939888536,3.0127990212008795,7.0219823527289655,0.2000594352444175,0.10483236941224638,-0.021534291246201855,0.9739212858304427,-0.9763205044118687,0.1847806988695547,-0.2568928549398808
1729143856.80479,-1.5784154384831557,2.9595298314217,7.161888176285817,0.19365627337278585,0.0983811237286063,-0.019522037975126458,0.9759289381458873,-0.959122486549323,0.12619326153436594,-0.28652532207862036
1729143856.812537,-1.6013845768105965,2.9835926364018475,8.04956516773438,0.17576507898786678,0.09063329559659823,-0.016253344064620062,0.9801163561253355,-0.9475266056474093,0.06464801532260675,-0.31537274395987686
1729143856.820547,-1.7583393190844048,3.2393658467336865,8.876179326470707,0.17330721052292683,0.09046153304658681,-0.015988220438779874,0.9805741678357758,-0.9584480596876666,-0.006760027382873332,-0.33523533745740297
1729143856.828431,-1.5889105616654864,3.1912379931476336,9.717870541439064,0.1574939248358134,0.0760126273123245,-0.012159821241373428,0.9845150495935888,-0.9858597451234604,-0.07472056663242124,-0.34034185257252614
1729143856.836413,-1.7735998257688232,3.2495102214256897,10.18122616153336,0.153318402846421,0.08115781023311806,-0.012635584475135492,0.9847574418057269,-1.0427473122238298,-0.1601943466356633,-0.32893229955189096
1729143856.844363,-1.5980668656761376,3.29668398685932,10.721404615377047,0.14821563305349225,0.06991535948517205,-0.0105051603882821,0.9864246601904416,-1.097312975434229,-0.23616863820240636,-0.3233636379238959
1729143856.852351,-1.53632155983537,2.8736812331800445,11.161869888366853,0.12537135731719698,0.06568302408694393,-0.00831880429972139,0.9898982577044272,-1.1922031223339251,-0.2838816634497624,-0.35450333592552347
1729143856.860345,-1.3223428736453628,2.2894797518709176,11.172842516516207,0.1007116278798921,0.05738805394738731,-0.0058189681935563965,0.9932421250043094,-1.3257614215369085,-0.22609439612138357,-0.3484971311617021
1729143856.86839,-1.2700912747243271,2.039036492479972,10.891643053855036,0.09224592369691376,0.05678618342942545,-0.005269374126944117,0.9941017315290891,-1.4284579743161863,-0.13352818736552,-0.3027500922186682
1729143856.876427,-1.3206220121490493,1.7195004794723585,10.43035193338724,0.08143821432937534,0.06189457222752685,-0.005067228055356513,0.9947417767317552,-1.4828391749388983,0.0028926495657841667,-0.19569782735944796
1729143856.884444,-1.231948632094117,1.5033580147341965,10.10282018591125,0.07365551192665103,0.05981705417207271,-0.004425867856859113,0.9954783761020185,-1.4988659829155062,0.09368464301526933,-0.10422230451034578
1729143856.892555,-1.2675694856529545,1.269764183840518,10.307090495335812,0.06113199407592202,0.06057716796932748,-0.0037170198823517514,0.9962828262016321,-1.469744272108426,0.13538913724109947,0.010685307865261978
1729143856.900766,-1.2302840571144291,1.0501203901871234,10.160065574056956,0.05137704676931436,0.059820254461082016,-0.0030830028096584,0.9968813526770128,-1.424175701567684,0.11358592701577408,0.10942817959296884
1729143856.908434,-1.1248340023838916,1.023439566875946,9.599953474072846,0.05298602944294802,0.05787960376907747,-0.003076310912823282,0.9969117154806504,-1.375124366108675,0.06304327547192007,0.1571802709701181
1729143856.916457,-0.9782457517721318,1.289946868787677,8.549695858857769,0.0746800600974022,0.0561421214097082,-0.004211154477589651,0.9956170031721193,-1.2690693537701039,-0.03752117559562756,0.13900561903558417
1729143856.924452,-0.9781600023328103,1.0074027831378405,7.725610955256067,0.06465627939554469,0.06227644694321412,-0.004042920004245127,0.9959542481904947,-1.1684013110197644,-0.11063054808001709,0.11660719621538895
1729143856.932439,-1.2436255167805454,0.5884005187596574,8.622909438143873,0.033968618498219964,0.07135177558703805,-0.0024313321077087738,0.9968696733786626,-1.0484038767648765,-0.1791861951354486,0.09805986178572745
1729143856.94037,-1.1936516003515303,0.4708350329354819,8.137527897993746,0.02881419581431139,0.07260882708057448,-0.002098582484539099,0.9969419723841069,-0.9359648603730506,-0.36292575395848814,0.07075523879237336
1729143856.948332,-1.0504215119687306,0.2638262468120704,7.448143237819685,0.017657426569619092,0.06994217631430491,-0.0012382256691467954,0.9973939913878314,-0.8433857369116953,-0.5774635543105096,0.027979681185714943
1729143856.957397,-0.6862772260288945,-0.030127922567054634,6.862369342350014,-0.0021923035882242914,0.0498160083705259,0.00010934784263864725,0.9987559998107917,-0.7312214846604319,-0.8841246802128517,-0.06409330296635704
1729143856.964597,-0.5075344020235867,-0.012091249389842155,6.5496910719627435,-0.0009223208321227702,0.0386579223334937,3.5681694259881415e-05,0.9992520768514603,-0.6336989389458696,-1.1115417420233842,-0.1487097076984804
1729143856.972809,-0.2875218094270427,-0.0656732701417178,7.600604628529209,-0.004319342361590198,0.01890338175752584,8.166553221633009e-05,0.9998119817097779,-0.532190715309467,-1.212234013946893,-0.25609632871220467
1729143856.980446,0.31997419583791503,0.05995540681145369,8.341525459002291,0.0035930351743065133,-0.01916840581186592,6.888585767047844e-05,0.9998098106998183,-0.46447474014423296,-1.070020907845071,-0.4035378633055353
1729143856.988454,1.0685017452859522,0.2100317047802316,8.118574534434577,0.012903242199236562,-0.06535620851019901,0.0008451848100862979,0.9977782108327261,-0.443426897872346,-0.8701824176506915,-0.5132872871346353
1729143856.996533,0.3825272678746964,-0.2429274529619392,8.833787888385356,-0.013742661423485625,-0.021625958111407908,-0.0002972958431736999,0.9996716304907051,-0.46442770736471434,-0.563827076613694,-0.5501900172526771
1729143857.004407,0.09783526941622404,-0.43497603232403853,8.004762928343714,-0.027139272696484043,-0.006099475214293466,-0.00016559940156360824,0.9996130395590357,-0.4617033508475022,-0.3382962459682164,-0.5578581932337932
1729143857.013216,0.36635607497981254,-0.18030102344715748,7.1934681146722435,-0.012525107674423863,-0.025429800745117533,-0.0003186390560812538,0.9995980919254296,-0.4285676723889845,-0.20468050782677794,-0.5296809640898863
1729143857.020411,0.3040895434253875,-0.07154932866790385,8.317031263090454,-0.004300508138151264,-0.01827113419051596,-7.858900732395427e-05,0.9998238170342382,-0.37505675045837344,-0.15345798912133302,-0.46169181922809843
1729143857.029561,0.6237050920220294,-1.090871663851133,10.460011870647241,-0.05190996718659204,-0.029573979674716335,-0.0015379332356188732,0.998212587475358,-0.31144913275181646,-0.19424040822368738,-0.4200469521881017
1729143857.036391,1.2325443503792333,-1.9291959621778672,13.028852904859047,-0.07335215756956211,-0.04651170271192949,-0.0034246961045048614,0.9962150339898104,-0.15026013436535515,-0.4183584985107929,-0.50957065849739
1729143857.044558,1.8109318531474616,-1.5192814481563297,12.236289747065818,-0.06155493822817953,-0.07270978389537529,-0.004496141280114908,0.995441641493464,-0.020768600600901924,-0.5315448496099546,-0.6216044207032614
1729143857.05288,1.567314805247852,-1.8024513066379384,13.340446107760975,-0.06698159062170532,-0.05779014618752227,-0.0038861421741622527,0.996071615608242,0.12418534936877101,-0.3585160854819417,-0.6513639526181254
1729143857.060402,0.8348045899358206,-2.425575595994482,12.862342253279632,-0.0930114067711003,-0.03170273682901925,-0.0029630699008751696,0.9951557842392181,0.33971611791210826,-0.16317546379079714,-0.5142684893948644
1729143857.069556,0.5243459302310236,-2.6304195324013766,12.256332859291998,-0.10548438823890469,-0.02078420546802933,-0.0022051965019173974,0.9942012863345705,0.5090494448155416,-0.0004222541996730389,-0.3919963456834768
1729143857.076479,0.40367185989642657,-2.327157998737701,10.91852656738184,-0.1047874701611853,-0.017971164903264277,-0.0018938904194315638,0.9943304463347773,0.6889764122666154,0.15044092923775537,-0.29053751540015016
1729143857.084559,0.6628643476273091,-2.486374815111761,10.163008564940823,-0.11961840698313937,-0.03140250703401833,-0.003785405021649302,0.992315972849181,0.8395015988834629,0.27373697403278885,-0.2334934277833125
1729143857.092506,0.5734530104318541,-2.4068887635787752,9.543300748095353,-0.12315925427587224,-0.02887383800210652,-0.0035849018716386655,0.9919603056795215,0.9826022784748634,0.4047570691457212,-0.23034234969993822
1729143857.10107,0.4513320406341125,-1.8849057837820309,9.175546200810336,-0.10110054455671487,-0.02394686742756344,-0.002434222677916523,0.9945849898277657,1.0497323235253742,0.48975447713541104,-0.18503131658078642
1729143857.108407,0.39817075270077995,-1.8144880442438276,9.043718354031125,-0.09881754123749556,-0.021462854477604137,-0.002131839008236296,0.9948717981146575,1.05638083570018,0.5394758517448388,-0.13102622283718734
1729143857.116796,0.19867986372984298,-1.8859619793783278,8.583943581998751,-0.10791814074218585,-0.011234991203853198,-0.0012196607882574866,0.9940955498838935,0.9897053928023665,0.548875553560318,-0.07350745296476803
1729143857.124669,-0.1278736930902192,-1.6530343092090276,8.33656971853519,-0.09771494139125898,0.007486336351407138,0.000735065512079424,0.9951860151125664,0.9292670041135007,0.548130023727675,-0.03303653018084799
1729143857.132418,-0.8562762764010066,-1.8410439143828383,8.267872315740254,-0.10918659995085592,0.050051144040841766,0.005504851297289961,0.9927451163232028,0.8900241404699472,0.5549194368729438,-0.041532111243072406
1729143857.140434,-0.9954791398640414,-2.033337172604312,8.88194686844806,-0.11211531691975249,0.054039762274826625,0.0061062779370972195,0.9922059126890036,0.8890399955413026,0.531323230765073,-0.139855583340592
1729143857.148708,-0.9738954050610029,-2.258367563572353,9.57504534518993,-0.1154082044248943,0.048986674286732194,0.005698521588560175,0.9920931301775313,0.8931320992601982,0.48098185187607784,-0.23801315225361064
1729143857.156381,-1.2032383721869924,-2.368246680721537,10.362963369223333,-0.11191449101542207,0.05597100205160645,0.006313716907472593,0.9921202198367446,0.9113378937656308,0.3911804159379963,-0.3637410332509608
1729143857.16442,-1.5481820162321172,-2.6120633343606565,11.216152827442203,-0.1138883754013921,0.06633037776211695,0.0076209612975786795,0.9912475169619681,0.932052241882517,0.33517110406783723,-0.47451003695071947
1729143857.172383,-1.4477327094951296,-2.7818165028136597,11.846100644219227,-0.11485994342376535,0.05878173024779736,0.006808739520911596,0.9916176393408404,0.95938000290382,0.2887948151018808,-0.5826890651938538
1729143857.182579,-1.2852307145642652,-2.610011154129602,11.589845314510052,-0.1103582792242584,0.053526222660778396,0.005952109515759562,0.992431643029706,0.9774794197624499,0.24394143926382572,-0.6254605989437088
1729143857.188422,-1.3067213401155122,-2.420976105319558,11.057808254379859,-0.10737536160367149,0.057099638829509816,0.006177062122921858,0.9925583140901848,0.9772711282796149,0.22639459511315735,-0.6323931564892924
1729143857.196893,-1.3607959840009478,-2.370522579695641,10.451760659415026,-0.11105453025994894,0.06271465986066979,0.0070222687674510904,0.9918086763527835,0.9575644105626605,0.24523910286363654,-0.6046259364069901
1729143857.204438,-1.2730518469923655,-1.981120215297853,10.392674553608,-0.09386875367219726,0.05957535515548391,0.0056272400639606045,0.9937845683604616,0.9448889998095638,0.2518632168378417,-0.5598700603011146
1729143857.212567,-1.3970974473067475,-1.6069391592080087,9.682776282457768,-0.08192363174933485,0.07039760852437353,0.0058012678248875755,0.9941323053631606,0.941114963910864,0.19581538655621833,-0.45979784406612
1729143857.220546,-1.3159016995852204,-1.226089157145899,9.063864665959036,-0.06699906437123207,0.07122313198565422,0.004794917213147225,0.9951961613734513,0.9558781448301255,0.10344145990548395,-0.41167383604606006
1729143857.229494,-1.1565721342530852,-1.0947837433109768,8.70664348585472,-0.06236203935365577,0.06534749529410401,0.00409196549054633,0.9959035780259374,0.9579250123982899,0.025029840596093617,-0.3989756535695813
1729143857.236495,-0.9604179253272418,-1.044491494765883,8.767165128378066,-0.05916374130238653,0.054054305059106265,0.003208390570790821,0.9967785561746534,0.9029620448262002,-0.05394388559919294,-0.3458079075072567
1729143857.244792,-0.7601254426963451,-0.8194281305021078,8.989986423218246,-0.04539157583592007,0.04194690861753638,0.0019076868708770116,0.9980863802454008,0.835503369304522,-0.10771347223829536,-0.25601341151102563
1729143857.252557,-0.7086635407642914,-0.7284434224907178,8.858641076343057,-0.04097730282498967,0.039735795652034604,0.0016309269109210723,0.9983683024187517,0.7243636137888178,-0.18339561049088404,-0.07272693522882935
1729143857.26035,-0.7046014581988093,-0.47585212038896185,8.59236787822771,-0.027634611642772863,0.040820757711037124,0.0011294396147650651,0.998783619381799,0.6278814561770529,-0.26200871823647576,0.07300291570329905
1729143857.268834,-0.7694412753099106,-0.20841797877634588,8.572664756477641,-0.012140616294519383,0.04472628689433029,0.0005435888513213156,0.9989253571752976,0.5265717753408669,-0.3730300921031355,0.19492172124100066
1729143857.27705,-0.5160131428714932,-0.1698223583107294,8.71957845349596,-0.009732185620641773,0.029543579511290986,0.0002876628077120799,0.9995160722683826,0.40193245761985047,-0.516267127486297,0.30638511009520447
1729143857.284846,-0.10705842527367714,-0.2994150519493282,8.3595321209257,-0.017899611664169396,0.006397852580577896,0.0001145397725467415,0.9998193128087043,0.29139090182443,-0.5992295182859597,0.3915678160505941
1729143857.293145,0.008309255138528098,-0.19114119913834693,8.366643916110108,-0.011420575491913141,-0.0004964082876684806,-5.669638779084598e-06,0.9999346598663839,0.17696299140196814,-0.5383275367856291,0.498868527736816
1729143857.300399,-0.1927755040457894,-0.3215437429205082,8.510732370173876,-0.01887912670586501,0.011313170802807025,0.00021363453944977934,0.99975774320657,0.10021813398071244,-0.43410162811296765,0.5845334578216508
1729143857.308421,0.006678402406510731,0.007947273534804457,8.35465281443831,0.00047561941558090887,-0.00039968130200685505,1.900962239637957e-07,0.9999998070204774,0.08013831327714295,-0.3077125736900661,0.6342296556267035
1729143857.316398,0.14694088055523455,0.7084242320408045,10.158888737002831,0.034802884654191624,-0.007209679173330664,0.00025107627301143684,0.9993681587416471,0.1400320412420846,-0.2663600360147497,0.635100450130317
1729143857.324548,0.4796164997686876,1.2268726752108108,12.414110263686073,0.049225133638149475,-0.019189794229861726,0.0009459417648035657,0.998602895654674,0.16106912586987848,-0.26325870654412353,0.6105072132062253
1729143857.333284,1.1599775646561343,1.6159927152339082,11.763535810311254,0.06812218395330849,-0.04855814650296531,0.0033195416861950136,0.9964890642172757,0.02597692531922985,-0.26395204923051996,0.5940485108059221
1729143857.340428,1.2234291645261024,2.3393183989157356,11.154600526714097,0.10302356604615985,-0.053156683089132496,0.005513651081085756,0.9932422219850755,-0.12020897441485015,-0.14389776744860291,0.6871902842395519
1729143857.349046,0.5774767101414426,2.572919130169754,11.598718937854628,0.10889656023386039,-0.024137229720264098,0.002644975251483484,0.9937564779243371,-0.2432527893566468,-0.05100638536781313,0.8099086879492686
1729143857.356517,0.5660343183211938,3.1969477244397426,10.614459037273324,0.14570276835814697,-0.025233222833453976,0.0037174438669316328,0.9889995795597214,-0.3792298272951814,-0.00037983685688363494,0.9354739176734665
1729143857.364442,0.7171861927993569,3.2993835724079856,9.790468435059307,0.1617075815429118,-0.034189759987842315,0.005605935199144697,0.9862303442269759,-0.48295193325432784,0.03212454255698422,1.0397599796874033
1729143857.3724,0.6706895623593017,2.946648193981901,9.846261615234804,0.1447997506671461,-0.03223266160527622,0.004719552416135816,0.9889245742510211,-0.6226607880159054,0.07120891303255839,1.1691649565453046
1729143857.380532,0.7648958687632371,2.6701241019360156,9.697778197168226,0.13383409442221217,-0.03759783909408567,0.0050812767658936445,0.9902772431456102,-0.7294733641918016,0.11041006759199806,1.25830157431952
1729143857.388438,0.5448893608575517,2.8516083075971563,10.17276205746109,0.13617981789933273,-0.02552192496573406,0.0035094402940218285,0.9903491164088403,-0.788026939098333,0.15564095346222548,1.2700659189607704
1729143857.396728,-0.09324877484289089,2.784046168640325,10.898764319437591,0.12472210799582668,0.004112386315919867,-0.0005169464314661054,0.9921830561051993,-0.8235847741037139,0.25684955567875545,1.124301793680651
1729143857.40471,-0.669822570569797,2.679104860608023,11.69996027012935,0.11226877637828006,0.02769395712126464,-0.0031301797265374117,0.9932869517739417,-0.8449194751069424,0.37546856536750967,0.9270152826553753
1729143857.412735,-0.48401465928523757,2.24192635630622,11.994169531218233,0.09224258179716234,0.019737345653466173,-0.0018287814572719426,0.9955392502801338,-0.8543147752171832,0.5598735275296627,0.6213397489969159
1729143857.420427,-0.6071616752098143,2.1512835127583414,10.552214765605939,0.10034633033496863,0.028013775741484465,-0.002826472286182198,0.9945540977802195,-0.8927300900159041,0.7437351953984239,0.4524078908915494
1729143857.428864,-0.6334052717274511,1.8634631447643797,9.359036278797157,0.09805493967755807,0.03297325901311463,-0.003250649214890869,0.9946292908790522,-0.920461869571219,0.8783165296230164,0.3399808344303167
1729143857.436546,-1.0468283253899862,2.0719278282648776,9.305365365911106,0.10915376330223246,0.0543301955746733,-0.005975032426890864,0.992521024862081,-0.8740988082080272,0.9931205350747345,0.09543753498537193
1729143857.44484,-1.2213801666207105,2.615034248228458,9.335412061343538,0.13585770396078845,0.062037766875817045,-0.008524228662964834,0.9887473576608263,-0.8339359596077133,1.070516739575006,-0.14706870851055198
1729143857.452454,-1.7714327801482077,2.0701269564077776,10.023337703114716,0.10126932360951615,0.08514204017679172,-0.008699082192978054,0.9911708647146589,-0.8690091689907473,1.1680372696506125,-0.381115987392209
1729143857.460376,-2.1019431885967372,1.701523472428651,10.85052939555047,0.07733437827496853,0.0941203252612107,-0.007333551061136561,0.9925255550052007,-0.9104862175707453,1.2248468274501283,-0.5504912789006212
1729143857.470105,-2.136007199779136,2.2716450307228153,10.435132418824423,0.10642668631403841,0.09797698332501485,-0.010538808381324462,0.9894254922411514,-0.9460146982552948,1.1048327598805825,-0.6670156059568397
1729143857.476515,-2.1380102537053722,1.7975346197520485,10.45165061706614,0.0846190934705329,0.09894412262478852,-0.008444742132710547,0.9914526493729028,-0.9830823189401197,0.9072457512075556,-0.6739280730941901
1729143857.484712,-2.2435992784439267,1.4829014322516196,10.558526703247496,0.06932011477311918,0.10326285191592581,-0.007214397361119692,0.9922093819213498,-0.998511850367622,0.7720916336067203,-0.6610479509181191
1729143857.492544,-2.547809380298778,1.4179017455814407,10.648030892553965,0.06567631769371406,0.1159219791460105,-0.007682045834664957,0.9910548431932819,-0.9634978028320722,0.6735458705262758,-0.6439546962603118
1729143857.500453,-2.607273476079657,1.0602336926125362,10.470453525766755,0.05004961756155981,0.12097561203465,-0.006107465410733372,0.9913741150247166,-0.9254617718522611,0.5922825294819835,-0.6307189130353932
1729143857.50917,-2.2845399450227943,0.8142688190831467,9.747400178204193,0.041374542623728895,0.11437298632573717,-0.004767579453047593,0.992564475189279,-0.8728418489620322,0.48605636655803375,-0.5921277586751758
1729143857.517033,-2.0303265243867235,0.8014834484323099,9.245094002186187,0.04296410348296664,0.10738973048745827,-0.0046451309421228024,0.9932773803707938,-0.7901870878524511,0.37506907198137845,-0.5391747617567031
1729143857.524443,-1.9362169925128934,0.8208667048015734,8.789523709661323,0.04626175592949445,0.1076304624281356,-0.005013762110091731,0.9931014025190625,-0.7022821256551195,0.27271873007257463,-0.4882469108398281
1729143857.534033,-1.7200580226561735,0.5875698287891472,8.222891830777263,0.03546334452014732,0.10260161427270029,-0.0036602525417417766,0.9940834283375878,-0.5954765105310426,0.11680533128272129,-0.4044789426069491
1729143857.54042,-1.5822223550976104,0.517502391658254,7.918346888017139,0.03246093323258134,0.09819435878243069,-0.003204681530452581,0.9946325380427012,-0.5207508899200457,-0.02144016444470402,-0.3427245300077469
1729143857.549802,-1.8359062878144254,0.3603008295262024,8.06697743212669,0.022170158136522247,0.11151763490239015,-0.002488509029379362,0.9935120072333246,-0.4473942834354915,-0.1622813102399955,-0.30098929177214323
1729143857.556503,-1.7448657587726395,0.06558521329189332,8.122636935350233,0.004013590445777213,0.10559829469858602,-0.0004262148204601103,0.994400678594605,-0.34676354137030874,-0.348951612468058,-0.3398016580500858
1729143857.564539,-1.3995853598045993,0.14541426152005787,8.004000831864436,0.009047350831775559,0.08642971701470088,-0.0007849297069965092,0.9962165594613656,-0.2557354117059328,-0.5524771570192323,-0.4226856864215357
1729143857.572411,-1.4129230933241657,0.020689750759690963,7.3155939817846765,0.0014073895445075072,0.09524960319710712,-0.0001346656991224376,0.9954524168490492,-0.1474815861630912,-0.8414629878430533,-0.5239246008813114
1729143857.581159,-1.3799848850472338,-0.10178956873363854,7.166630314852055,-0.007067696341712875,0.09495928877786176,0.0006742071239000107,0.9954558385925405,-0.058690647395512496,-1.0608290129752453,-0.5804110489425567
1729143857.588459,-0.9848111397685747,0.029427081513723127,7.451465834174905,0.0019701396669424168,0.0656530439692099,-0.00012962558508762821,0.9978405581877685,0.010334448139129884,-1.227355213094447,-0.6070661867344492
1729143857.599352,-0.5947174065173948,0.187405146613312,7.895306135026427,0.01185691579894475,0.0375696935713941,-0.00044580683327945193,0.9992235650388533,0.0555807160130736,-1.2821477866509927,-0.626039099839819
1729143857.60537,0.4148207511579225,0.32313283406173715,7.857546704697497,0.02054149666166016,-0.02634100343487359,0.0005413858373848131,0.9994417968817985,0.0835798568603639,-1.2413789501519887,-0.65402476010006
1729143857.613247,0.02431633497209722,0.3971474213843079,9.042286943716935,0.021944675757507984,-0.0013429677302168143,2.9478116719735197e-05,0.9997582841740368,0.09314261032388352,-0.928299786581329,-0.7350953555369715
1729143857.620409,0.04188369990903958,-0.10336412407371214,10.029661378876646,-0.005152705025460907,-0.002087839480331403,-1.075818724935327e-05,0.9999845451013163,0.0988802624019953,-0.6140223401847096,-0.8041708357492958
1729143857.630313,-0.0043184604744981245,0.1876967587100696,8.903049247980285,0.010539393448018049,0.00024245967849823762,-2.5555199581056967e-06,0.999944429652229,0.11509355549272332,-0.3407435501157937,-0.8017700475461012
1729143857.636386,-0.4134360811675114,-0.44762513325052067,10.031352340536216,-0.02228975931791796,0.020568523287927677,0.0004586784990315991,0.9995398401731358,0.15078862509634405,-0.1405926208501715,-0.6572977139729418
1729143857.644533,0.2013300029108213,0.02519346375085947,9.695108053491651,0.001299211307568032,-0.010381349233526687,1.3488304550789119e-05,0.9999452682302844,0.17390842710436463,-0.06349675949846334,-0.5118690853472858
1729143857.652395,0.25200025272305526,-0.1263812398647187,12.146376340884055,-0.005201923481918891,-0.01037109909661067,-5.3953295713088785e-05,0.9999326864267707,0.22140982316467747,-0.17772439585862437,-0.39311084362370186
1729143857.66037,0.9360194558330519,-0.006396895774299965,12.93287447884684,-0.0002471435987947074,-0.03611675326053369,-8.931851994438963e-06,0.9993475466393968,0.2814117253490555,-0.25520046896542364,-0.3584652438752862
1729143857.668404,1.0473951903455343,0.019146198472920022,12.277104379690917,0.0007790172712214788,-0.04254049753529944,3.3169819600354524e-05,0.9990944390303168,0.3612589429902716,-0.10459161437258258,-0.39344328207776297
1729143857.676428,1.0407186400862267,-0.9004636932697637,12.622971792853612,-0.035568657428938284,-0.04098888864001884,-0.0014600729994248894,0.9985252374394927,0.43343160707833706,0.1513671322918524,-0.2965139579742663
1729143857.684444,0.5279448571474391,-0.8869586163524833,12.167298380887948,-0.03636723216256996,-0.02160833448303501,-0.0007865396300674548,0.9991045419079594,0.5035536794032842,0.3517682870513368,-0.15406973134268598
1729143857.692783,-0.2020565854673959,-0.8027199574091461,11.36573344747808,-0.035245878263914426,0.008860208441925201,0.000312492277620215,0.9993393453278757,0.5813848879610632,0.5465047406628829,0.03781932000177006
1729143857.700689,-0.33336021837028135,-0.7624718291818159,10.527340179570833,-0.03613820522999183,0.015775486621020438,0.0005705415878510298,0.999222116762295,0.6468139758000601,0.6510016010474118,0.1716831135127731
1729143857.708458,-0.20360743351240315,-0.7787849603020582,9.797573321609686,-0.03964777183333761,0.010348226016928953,0.0004106290130149511,0.9991600471349762,0.7290661247111234,0.6741105415621602,0.20517548285855142
1729143857.716447,-0.3453040548340044,-0.6403717562105319,9.541672533004874,-0.033494389726395214,0.018034963473249004,0.0006045077660523045,0.999275988163298,0.787356905348464,0.7139429996201931,0.13076771082144742
1729143857.724423,-0.4219423218164182,-0.754606050552491,9.236818514920111,-0.040734964356147416,0.02272783926107069,0.0009268270075428381,0.9989110315704419,0.8142432625630898,0.7425250651310952,0.05717612341976687
1729143857.73259,-0.9067824463125072,-1.0510746252045413,8.381135437565348,-0.06224597837447936,0.053341985743404936,0.0033315554198326824,0.9966288032520628,0.8303750768918652,0.7490320529010857,-0.029547835167444622
1729143857.740383,-1.2623299658343792,-1.1916062240973342,7.700131474941553,-0.07643413953909031,0.07998365873867107,0.0061513601150245765,0.9938423403218591,0.8553790077017636,0.7401655437192189,-0.08754187118023996
1729143857.748953,-1.6973615512779712,-1.491163912681057,7.909951386185634,-0.09250805226223832,0.1032767035608319,0.009647561534449282,0.990294454859106,0.9252953841163047,0.7071757842150669,-0.1312777840786198
1729143857.756324,-2.045050602641783,-1.931627086622306,9.186257230637162,-0.10282268469152687,0.1064729367941662,0.011070462092660866,0.9889228757149403,1.0238619881394797,0.6473670627351447,-0.22775819195888292
1729143857.764438,-2.505294627942491,-2.2062000581257273,10.233359432376437,-0.10520967157079761,0.11652075659158917,0.012414012389564176,0.98752201524203,1.10088093313479,0.5867918062823936,-0.3392833844312568
1729143857.772404,-2.681602833894401,-2.2342349262328582,10.539840050295004,-0.10344720454290282,0.12100429681252074,0.012680300782294615,0.9871655615940199,1.1900869963396414,0.5419328511815023,-0.5270944773698981
1729143857.780453,-2.5110968858835157,-2.4459438622338556,11.066578098780518,-0.10787636988902657,0.10816099516560296,0.011807431437469502,0.9881925280567556,1.269152037950274,0.5179973085512016,-0.6653225368208049
1729143857.788452,-2.45883213177425,-2.324451091510235,10.973691284317137,-0.1035471934128951,0.10709985042661675,0.011215752817190146,0.9887779364769688,1.3280846945761287,0.4478705849214951,-0.7256977992338611
1729143857.796405,-2.3846170695918936,-2.2553861517323126,10.43097857796333,-0.10560195042599665,0.1090751854433378,0.011654448798824563,0.9883395195022419,1.3161926917293556,0.37769900668717715,-0.7478751846534479
1729143857.804419,-2.421012048395761,-2.024086996215169,10.222187995166667,-0.096923365210672,0.11334829090199149,0.011111052135487057,0.9887540496737693,1.270319694428247,0.3334676094392762,-0.7522421246144972
1729143857.812446,-2.4363846911956597,-1.8331139067134765,10.077999452373438,-0.08920439112694555,0.11601974169782589,0.010462700873569033,0.9891777029586094,1.1665973750458782,0.2860699580788961,-0.7327264053951013
1729143857.820484,-2.4420169743853646,-1.5229237773776951,9.68119779154125,-0.0773308587180234,0.12142952101304506,0.009489531949118175,0.9895376488541819,1.0835051704048175,0.24273221511149695,-0.726125254601008
1729143857.828454,-2.3173065554808283,-1.2479848181844293,9.574558466184516,-0.06429401455213857,0.11725267727775165,0.0076071898042390914,0.9909895155990557,1.0353526078660291,0.16692383213999976,-0.7566454591029766
1729143857.836446,-2.015749406921309,-1.0851762241626108,9.395413771116958,-0.05713441700819631,0.10462777313052536,0.006020892216298689,0.9928506616504823,1.0026298597895977,0.04353752110954965,-0.7455849675632776
1729143857.844403,-1.9078382684203632,-1.0492614705815508,9.033902157933847,-0.057461062545990566,0.10303251186142676,0.005962098357490231,0.9929989834706713,0.9600089476247893,-0.06156963999544872,-0.7006365671078754
1729143857.852345,-1.7521119222338584,-0.7940385364016648,9.203419337973198,-0.04282188377422585,0.09349872362272504,0.004025165353117821,0.994689938118823,0.852703908525194,-0.15145241053055575,-0.6038543567548609
1729143857.860336,-1.5899625268754711,-0.617441599624202,9.222529688721417,-0.03329245452908782,0.0850233851491638,0.0028425230921514935,0.9958185359349745,0.7431977385504616,-0.21687570451109478,-0.5074729250114693
1729143857.868388,-1.4565204445920796,-0.4621628833585055,9.022348472412537,-0.02550196227164383,0.07981273147817655,0.0020425680159852516,0.9964815129896731,0.6153432875921655,-0.2633664119442728,-0.364506053673028
1729143857.876774,-1.379328237214232,-0.04936973196822833,9.202712050976817,-0.0026745998313437583,0.07431775723075613,0.00019932218304215623,0.9972310052072187,0.5058524822846114,-0.2899837662197935,-0.17570893599615162
1729143857.884504,-1.0725237721625234,-0.014059528389921375,8.888832445429841,-0.0007893703097426041,0.06000344267739535,4.745044863070575e-05,0.9981978568950294,0.4188734960269774,-0.32255609118212514,-0.004536817031189466
1729143857.892442,-0.9523662774576703,-0.0014925322194996983,8.134275989474702,-9.158138376804874e-05,0.058242034172897195,5.342955815990523e-06,0.9983024877459267,0.30283259505309224,-0.3880740127974235,0.19224395793089682
1729143857.900389,-0.8477106380566333,0.07236705146908143,7.7253560062824755,0.004676309191461393,0.054616673585613035,-0.00025578905393298,0.9984964124476103,0.20553820047372912,-0.4401554676104634,0.3456446980094972
1729143857.908419,-0.3525244345917925,-0.5321458482201136,6.981770650888626,-0.038014440097751734,0.025130970231176657,0.0009563337078553912,0.9989606709501297,0.11821463954669309,-0.47523555105144577,0.5023900313988863
1729143857.916432,-0.555322019153513,0.5402308870640256,8.089935155425753,0.03331313415913897,0.03416645646968917,-0.0011394906018139838,0.998860145318637,0.10115277809182009,-0.4992634315462694,0.6900890449541666
1729143857.924404,-0.5843449656424984,0.8218930573848997,10.244266710931234,0.04000157042368697,0.028372096689017936,-0.0011362964349718604,0.9987960789488111,0.1058148133700674,-0.5055920486753849,0.7929175816737081
1729143857.932426,0.4102703082121572,0.8158742182200024,10.499458064888818,0.03875788157891356,-0.019453259968767726,0.0007546773193538841,0.9990589711094366,0.020919881875837272,-0.4974698972319173,0.8226879490957806
1729143857.940364,-0.13116399671333073,2.336172271410517,11.89971252203876,0.09677496616434632,0.0053823722790735775,-0.0005233430052179191,0.9952915965206569,-0.09089075580977131,-0.44364224929770313,0.8780108949576829
1729143857.948336,-0.9585675081354202,3.6426761167525603,14.440706055703725,0.12316756249103887,0.03188692562657786,-0.0039596443791595475,0.9918655638444617,-0.2512032618813214,-0.21467685214171606,1.0052821660579332
1729143857.956349,-1.6106327228988304,4.063378032112083,15.085193645629266,0.13099927872388345,0.05089959116048711,-0.006734807250885183,0.9900520506341124,-0.40954151449770804,-0.011741344382970947,1.0952670106848683
1729143857.96435,-1.7576632824209386,4.821454571952796,13.635533526244748,0.1687982094736789,0.05956101161366588,-0.010219383657814513,0.9837963277892895,-0.5867026479297122,0.16961656887696053,1.0602886946154648
1729143857.972374,-1.9658311213080317,4.561391880134568,11.775974488305442,0.1831557150348194,0.075823791866051,-0.01417021364177574,0.9800530300358671,-0.7347169540121936,0.3695289899857942,0.881796382232871
1729143857.980447,-2.126405429376616,4.220043056547538,10.1490770110985,0.19482540616207686,0.09355897620841903,-0.0186723086029546,0.9761870332964121,-0.8554522922713349,0.49884162400325915,0.6763665906055856
1729143857.988779,-1.2600415266689382,3.6613707570242258,8.886113165887615,0.19374707766062602,0.06389556991499734,-0.012646589119858335,0.9788868626285873,-0.9891928640773522,0.5376914088206932,0.3968804630726487
1729143857.996432,-1.1534623915873004,3.325209696646176,8.107505304317725,0.19295104992203538,0.06415794581849671,-0.012644537542933652,0.9790269485528273,-1.0988098214018427,0.5601498995882296,0.21982360520072183
1729143858.004393,-1.3686788241125365,2.487134259149815,7.705223452366025,0.15491308829682882,0.08261485574187862,-0.01300117634524188,0.9843818822483109,-1.2050205516354302,0.5766048244789856,0.15530711650084483
1729143858.012433,-1.8294056135593186,2.7674323596891077,8.592481003792662,0.15435579776366679,0.09859931299859423,-0.015483190498527307,0.9829612067548411,-1.2249009134449933,0.5979714110729141,0.011877468161258856
1729143858.020435,-2.0991379225789504,2.722048431926746,9.570157043437705,0.13733658897459874,0.10278118305666516,-0.014329509759568013,0.9850732738676574,-1.2129904870888575,0.6133455033980433,-0.14825039153688618
1729143858.028421,-2.278694400275886,2.1771916763435475,10.239362624500124,0.10393845873853895,0.1063753256928915,-0.0111815476070748,0.9888154832282406,-1.167532125743593,0.6093735668877979,-0.33627616063157206
1729143858.036454,-2.3141233967573283,1.758100859077613,10.238899514397339,0.0843919339465804,0.10897322967923907,-0.009285487637594259,0.9904123466604018,-1.1044991437736238,0.5793205509866186,-0.46909905497709903
1729143858.044355,-2.277201694304397,1.6821413504075051,9.700165694966527,0.0851714309371947,0.11299260653690682,-0.009722022952164027,0.989890893225018,-1.010488266478654,0.5123343843777773,-0.5470900313385672
1729143858.052327,-2.3793077389947475,1.7766264423245812,8.907183037585385,0.09744017137909376,0.12713444831795145,-0.01255106637157689,0.9870079613586911,-0.963872611515299,0.4951299477314223,-0.5636606227916438
1729143858.060323,-2.5507046421761457,1.2862424181291237,9.480772030803184,0.06677687338947838,0.1296058281269655,-0.008748492407709427,0.9892758171392048,-0.9393087390289823,0.508220239124021,-0.5616836559425528
1729143858.068385,-2.5429306673857655,1.340607765330599,10.334890380347144,0.06397342996032376,0.11913245068757251,-0.007692192037417551,0.9907853903010198,-0.9130767838777174,0.4420043432651868,-0.5894444000125163
1729143858.076427,-2.549758450480287,1.4733046030460157,10.66899336639188,0.06807659487273268,0.11569642393199944,-0.00794841306737547,0.990917119364476,-0.9143652132454397,0.3107514425355494,-0.6231284489129758
1729143858.084454,-2.1439677961182504,0.8662656695424532,10.338181809630052,0.04156097908074647,0.10163014818747922,-0.0042495812247613785,0.9939446358105943,-0.9445108851069532,0.11365786501132223,-0.6165204043811435
1729143858.092564,-2.0963390993018094,1.3292389830243,10.683657492760453,0.061554004902396695,0.09582390341043925,-0.005937081310147628,0.9934755332071239,-0.9749433000062602,0.05074142648685004,-0.5112413430340805
1729143858.100389,-1.9887532264267889,0.7745590538770799,10.84066466777541,0.035504692713549196,0.09031124394215201,-0.0032216945146789884,0.9952752969391894,-1.0063991408511674,0.055986259579831915,-0.37740935602314557
1729143858.108431,-1.8892463584634953,0.6311324477071074,10.887224359747279,0.02883781507526559,0.08562670557672444,-0.002479435995781904,0.9959067728010009,-1.029529545972732,0.085525943246267,-0.18898488820522855
1729143858.116439,-1.6928333228905972,0.49719245080199875,10.566324993045631,0.023430752069751176,0.07923867431302516,-0.0018629959213621295,0.9965785275615551,-1.0251031164028035,0.08962767147934304,-0.021867569708800327
1729143858.12444,-1.7696340965175614,0.5030197124245587,9.679466891579333,0.02584753007008532,0.09014101670281138,-0.0023402412496818705,0.9955907922273853,-0.9662561705478582,0.043134351351055034,0.17716291564824793
1729143858.1324,-1.6390224781742087,0.6420278833629383,8.619669984801114,0.03699513220934159,0.09349776391466377,-0.0034766029516559898,0.9949258472708846,-0.8798651956594472,-0.0026406233073230923,0.37235403780271853
1729143858.140335,-1.6851539934963222,0.5803441653204973,7.814042943029106,0.03684194128446775,0.10564852246536938,-0.003916921970665006,0.9937130968169595,-0.8207938796815462,-0.042450619884748894,0.5090504539226544
1729143858.148308,-1.3153954271036528,0.5775710182352671,7.587803976266682,0.03783213043776222,0.08541647262020383,-0.0032456983419164327,0.9956215252564277,-0.791736441016736,-0.1365754779724396,0.5804260520580651
1729143858.156374,-1.4162786710571134,0.3209246531774884,8.234246278582274,0.01940274969853307,0.08498380378547682,-0.0016552225226181862,0.9961920229738283,-0.7572743753593686,-0.23945060952441544,0.6138862295871468
1729143858.164332,-1.3551831730932526,0.2267918756467274,8.203365789610302,0.013771020405303785,0.08173008933136736,-0.0011293932901014622,0.9965587167676974,-0.6761491472373397,-0.43015977707859654,0.5747914175613734
1729143858.172375,-0.8190954080063422,0.16145366298569272,7.87933736439118,0.010229488155067981,0.0517547576670358,-0.000530163043386664,0.9986072909597943,-0.5504241092394945,-0.7335916649002472,0.4627909975618068
1729143858.180528,-0.6336728234170865,0.005653114539462495,7.591067604181582,0.0003720172375640798,0.04162946517620446,-1.5500316655893825e-05,0.9991330486937454,-0.44433940201552113,-0.987166727918859,0.37132641205873107
1729143858.188428,-0.9356584792065019,-0.13858428972358813,7.8598359543546525,-0.008798868018610505,0.059196651638523334,0.0005217988883554245,0.9982074253792638,-0.3491875131329468,-1.2270039183912045,0.21343066588307394
1729143858.196415,-0.9995339913324949,-0.13773837168571534,7.63994006016162,-0.008993439687261013,0.06498667790628487,0.0005857157324498579,0.997845432256107,-0.2814541282668514,-1.3896365953789411,0.028446925147728966
1729143858.204437,-0.10675427297332503,0.09979514349247703,7.047597544397753,0.007079339067803405,0.007572205636857025,-5.3609091640442055e-05,0.9999462694496247,-0.22123235451994072,-1.4957300028008238,-0.25877900473875903
1729143858.212442,0.5445534982277237,0.4051209654900175,7.651788060330058,0.026427225228245973,-0.035454163691995375,0.0009378729872661613,0.9990213833736976,-0.14338166424851523,-1.3950696835296093,-0.4919882414597225
1729143858.220434,0.7090861040635874,0.2066807140596355,8.723225481461707,0.011833959675743992,-0.040529130123084865,0.0004800482174871731,0.99910816059302,-0.08602899854910913,-1.1482212450465106,-0.6340422337996107
1729143858.228428,0.3016714366080743,0.15321768868968755,9.268165086240305,0.008263820710820562,-0.016265366464821848,0.0001344364491177971,0.9998335506712432,-0.06481379103478846,-0.7672597183369201,-0.7341737813547147
1729143858.236416,0.4560966327167977,0.5662219620907657,8.97191815696879,0.0314976986204383,-0.025330514262398254,0.000798505700884426,0.9991824770368345,-0.043996555358417455,-0.5552847147081851,-0.8048949614243278
1729143858.244546,1.0515340990148443,0.6445150485923501,8.448686699845338,0.03798455194066916,-0.06165080059221154,0.002347948524447873,0.997371966589162,-0.0046877400804868595,-0.4600264671405965,-0.864780961986039
1729143858.252334,1.7870804410983596,0.4326777010304101,10.505965149790017,0.02050309499813343,-0.08405722559243319,0.0017299231407607043,0.9962484696535937,0.07849415769095593,-0.45608277628279725,-0.8670830474675653
1729143858.260421,2.346921228526203,-0.05810393968448835,11.631874884551744,-0.0024847235530380198,-0.09938086716513116,-0.0002481632993404212,0.9950463345017398,0.19693939624920867,-0.4924543573611626,-0.8480311758063035
1729143858.268396,1.5539596182192374,-1.1922194463302243,13.316337304998623,-0.04455373235396644,-0.057765920415708966,-0.0025805719536089048,0.9973321432803864,0.3786859553642885,-0.3227167783502676,-0.8489450645919453
1729143858.276458,0.9354882330897455,-2.7688384317141503,14.011698398624175,-0.09733894682462534,-0.03254113452518778,-0.003184352052671458,0.9947140613748712,0.5056128734147418,-0.04804406599014571,-0.8507704680477166
1729143858.284445,0.7729403666116598,-2.6639947143019276,13.028307083608098,-0.10063352877041201,-0.028878324902853053,-0.002922199623399489,0.9945000733973733,0.6281692409443752,0.28746127607220207,-0.6977659078719238
1729143858.292407,0.30000082641230835,-2.1078829418624068,10.931601189862125,-0.0950905066947356,-0.013408812590143012,-0.0012809720826883451,0.995377495421704,0.7489546582844406,0.5079205340754022,-0.39652366152712865
1729143858.300394,0.27385320092551,-1.7196280805471313,9.369753462940713,-0.0906206103956903,-0.01431002650579615,-0.0013022765742922466,0.9957818195712553,0.835047990655265,0.6550952410284934,-0.1506477343165607
1729143858.308429,0.22919478554554035,-1.271675854675935,8.911724578985131,-0.07080475186142463,-0.012695174403393988,-0.000901213720843755,0.9974089970892276,0.919056434748874,0.7574478372285951,0.022844915758963996
1729143858.31645,0.014694326161308576,-0.8130443275028266,9.33361993171725,-0.04343126380096537,-0.0007834615433837235,-3.405887280787733e-05,0.9990561097118891,0.9809551328645142,0.8077914533506432,0.12396067537404458
1729143858.324438,-0.453982585211418,-1.0813491880544304,9.52331079936238,-0.056485116634091864,0.02362545107253946,0.001336995928200469,0.9981229794480939,0.9738225853418472,0.7749954939274915,0.22038809630590356
1729143858.332426,-0.9410900748084914,-1.1118481139068768,8.884388317996335,-0.062120610007653745,0.052235664496347894,0.0032556697915897058,0.9966954729410132,0.9333594016039742,0.7021066605908464,0.30250888236835477
1729143858.340358,-1.4976744318479855,-1.1526529650238135,8.266881906813426,-0.06892946846397624,0.08844123681199664,0.006135013776759633,0.9936746135503297,0.9120613217914847,0.6545421500357012,0.3624236055423763
1729143858.348333,-2.193628337087307,-1.412007058555304,8.468113416548993,-0.08184644021766434,0.12433149321371433,0.010291292816635496,0.9888058097073998,0.9116274856863898,0.6370713853006269,0.4209340127042769
1729143858.356577,-2.723967578424259,-1.6473464299574012,8.974318789675488,-0.08965374007490336,0.14395619054671627,0.013097068375974085,0.9854274650596127,0.9156240846379533,0.6274403065825063,0.44156679491170814
1729143858.364329,-3.2145536427576804,-1.9168792617830344,9.470535827027948,-0.09834991890536875,0.1590966947365042,0.015930342858141506,0.9822228664369655,0.9163192837630432,0.6105937177536211,0.33603031721118415
1729143858.372383,-3.120086931748358,-2.168381523134274,10.167140046021457,-0.10370979598548694,0.14447167278184528,0.015227665377962612,0.9839412239495817,0.9320612454507303,0.5668562496007896,0.15096107301272874
1729143858.380564,-2.7840035714025304,-2.3159309976207987,11.029705825708577,-0.10251018898406146,0.12014590550008643,0.012473712921085421,0.9873707657369538,0.9466147032008869,0.49761907250142545,0.02672313458833249
1729143858.388449,-2.9019794768258924,-2.0673570885627135,11.348526555727881,-0.08926423383748165,0.12241985046884171,0.011056028514062231,0.9883941728895866,0.9557724679124429,0.34028906952413435,-0.05590773963408384
1729143858.396455,-3.100136548400223,-1.9261136086063784,11.022192594813681,-0.08557226528574405,0.13422797245952794,0.011635353929594585,0.9871802557599111,0.9604157466164525,0.22418087460319608,-0.14933234049812288
1729143858.404434,-2.9942152554561487,-1.8164678233669518,10.287936264896022,-0.08638542246513368,0.13858004959761108,0.01213509769557086,0.986501833775773,0.9585191231627759,0.18601702219882346,-0.31862065736544676
1729143858.412434,-2.589488743117439,-1.5397511859635307,10.07195858266808,-0.07516719850987033,0.12376102114703669,0.009402279751805005,0.9894163426224014,0.9748344416105132,0.11671849405683846,-0.4648911039393544
1729143858.420437,-2.2362801391810105,-1.481460278228509,9.749878159854754,-0.07483808482582208,0.11094872855493963,0.008378860369314584,0.9909689376517091,0.9905832935396239,0.019799669181583338,-0.5590387228056295
1729143858.428429,-2.0463816320925905,-1.3236631884214802,9.110111296547618,-0.07163216471872469,0.10886668175721606,0.007865679409131151,0.9914408755282966,0.9979041543897804,-0.07623804121369054,-0.6312778263994896
1729143858.436396,-1.8915016794508668,-1.3079935893224195,8.853862127049664,-0.07285626157766038,0.10367117943907242,0.00761469429652106,0.9919104133607075,0.9971883901623297,-0.13471204757377894,-0.6597221364046346
1729143858.444358,-1.761224161967395,-1.4005848205856393,8.739377532577455,-0.07897327248981002,0.0977442302415841,0.007781098169182688,0.9920427118819088,0.9550413056025803,-0.21577097802773137,-0.6108067628811067
1729143858.452359,-1.5362930897097338,-1.3134451403982585,8.844984656753503,-0.07336543326301524,0.08473967447838865,0.006256511596090108,0.9936787996299784,0.8607912649098814,-0.35550400945297755,-0.5290976612071601
1729143858.460353,-1.250020901433262,-1.072258821299502,9.114489694198587,-0.058379640412907885,0.06751952913921334,0.003957593687112597,0.9960006366575708,0.7765713864992302,-0.47169627297923966,-0.46432166792869695
1729143858.468393,-0.7904745489165976,-1.0130200291078262,9.173720885610948,-0.05491047995248523,0.0426415455496555,0.002347153523053851,0.9975775802687546,0.6668685409096171,-0.5635475142910227,-0.3513860012672256
1729143858.476424,-0.5386887540081616,-0.8536965279627424,8.862818620233757,-0.047972325812697066,0.030174127219929396,0.0014498547987445167,0.9983917447193253,0.5686943888847348,-0.6275977503687951,-0.20742608026863907
1729143858.484442,-0.558802695764272,-0.5071900932913174,8.765102142599238,-0.028880928521003327,0.031761847650271735,0.0009181584768967724,0.9990776916669779,0.4493419089421969,-0.6971032665021868,0.031346914333920145
1729143858.492436,-0.2522028198511413,-0.13695935992986852,8.572396963049776,-0.007986730897120695,0.0147030528858566,0.0001174457692335444,0.99985999948588,0.33303296452316083,-0.7979774947254443,0.26230286375663414
1729143858.500383,0.002625474837362102,-0.18632338817471797,8.182398345066193,-0.011383408606895833,-0.0001603823309685207,-1.8258159304926311e-06,0.9999351940414253,0.2428144749215617,-0.8917058564534373,0.4417426793106176
1729143858.508427,0.2702047111719485,-0.3064426278755339,7.986706400838544,-0.019171115338325852,-0.016893120203151594,-0.0003239657502187791,0.9996734396154972,0.1576080066738739,-0.8900490251313967,0.6315647505051798
1729143858.516428,0.4269215303164503,-0.23390439142258596,8.06058794694844,-0.014499285293935868,-0.026440337488930897,-0.00038354044503976,0.999545162649574,0.09882170461894466,-0.815410545705241,0.7709993969096389
1729143858.524446,0.9815960212172139,0.26379860538082345,7.777629507671016,0.016916800176340147,-0.0626860736445423,0.0010626907531768343,0.9978893469374187,0.09121977738101916,-0.6501571706557925,0.8665795064732513
1729143858.53243,0.7484114432967346,0.13170352480075967,9.170071027356515,0.007174417096618723,-0.04070056680521305,0.0002922525463872465,0.9991455880848933,0.15860024142534723,-0.5556877363022058,0.9022173790768552
1729143858.54035,1.0710604572866345,0.8839527130249871,12.04108619063266,0.036594481105089866,-0.04419596040471179,0.0016199994406139926,0.9983511088982506,0.17306142610276012,-0.5245474793777757,0.8801797163698902
1729143858.548322,1.3019994115790121,1.340808889777883,11.558396139428423,0.05761816779805286,-0.05559411088039922,0.0032135643880488616,0.9967843872066502,0.07105872092907964,-0.4692539799373828,0.8550377970247744
1729143858.55633,1.5715256149649852,2.353054967655792,11.629348878725413,0.09943070267817221,-0.06546690758616258,0.00655618670851246,0.9928668771753205,-0.02547517727647728,-0.3381691661368799,0.894015283223383
1729143858.564344,0.8852151089692255,2.562486298464569,12.508215162196183,0.10079951179895795,-0.03442663710503365,0.0034900647434048366,0.9943048247528606,-0.17279042910683806,-0.09477622407077191,1.1008741914326836
1729143858.572412,0.14231071577216028,3.552212476100226,12.1001203436556,0.1422859931351059,-0.005584757704320598,0.0008028138646426565,0.9898095080008271,-0.33141844034628976,0.048705400800120695,1.306296338097512
1729143858.580578,-0.3412603063765476,3.7900303958163852,12.223970508195313,0.149745831838642,0.013178653374458355,-0.0019961351327890814,0.9886346769088775,-0.4593733818225372,0.14756507756651718,1.4018797721013772
1729143858.588477,-0.5334800717653816,3.8091803419820187,12.102674331284375,0.1518367017936387,0.020765448318786253,-0.003190663530731781,0.9881822867319486,-0.6391633415820973,0.26945732266127376,1.2489389421414525
1729143858.596396,-0.5075540330494633,3.968631972279055,11.188813581924924,0.1695621695567664,0.021052352911737456,-0.003622984160567153,0.9852879493213416,-0.7934375341371949,0.3706882137746218,1.0413867474478251
1729143858.60441,-0.32033415078670924,3.0537104297053235,10.284958185776047,0.14379288629972442,0.014768695883613592,-0.0021461784373008707,0.9894952679975823,-0.9298481260008427,0.45143418133134605,0.7525390669073044
1729143858.612421,-0.5376837900325724,2.7812877959091313,9.848468661465628,0.13713701685649612,0.025995082139665338,-0.0036001537207613803,0.9902043896112762,-0.9750851358332966,0.47306328799327263,0.551134914526498
1729143858.620426,-0.8332934881308716,2.0853637664126663,9.485539636820784,0.10788809689286033,0.04253186772629194,-0.004619903142154786,0.9932420929821224,-0.9873281895815978,0.4558167576266243,0.42220431193023555
1729143858.62843,-1.0618952225171947,1.905314153402287,9.279992650500672,0.10091334843876854,0.05549756764171726,-0.0056380504978381955,0.993330120594011,-0.9597674367906919,0.3918318916624194,0.18648924750860235
1729143858.636415,-1.156200053432192,1.5655256648929348,9.079571165251576,0.08509554417685339,0.06215061049217692,-0.005318425854418227,0.9944183044992313,-0.9189666516128125,0.34748131122342796,-0.061787996571347495
1729143858.644369,-1.387559673172596,1.8084106015724795,9.098900230889226,0.09765886417869718,0.07381098929697293,-0.007263115868253831,0.9924524831215916,-0.8663906364495909,0.36897393990524274,-0.3512320633017878
1729143858.652331,-1.5716258563937922,2.0661902012755187,9.510568767683926,0.10640406953093075,0.07950834057136608,-0.008535961569853331,0.9911022828784739,-0.8305881267370375,0.4176274822771422,-0.5598050883799386
1729143858.66032,-1.6468708019222127,2.224209843421561,9.923248644643559,0.10965641283813622,0.07970157588412799,-0.008821567614551266,0.990729685570126,-0.801018509741727,0.5128015672268968,-0.7394372312939691
1729143858.668386,-1.515325686719734,1.8804038845685616,9.851948909686525,0.09388388759880818,0.07457124892350682,-0.007052085927109618,0.9927614076742706,-0.8054126227405662,0.6554697205506179,-0.7859171481918549
1729143858.676457,-1.5982466498248094,1.8182512491981682,10.584650986436914,0.08471708176649066,0.07353241511436899,-0.006269145951910775,0.9936683037077572,-0.823799622813965,0.7793827180764334,-0.7605938406478323
1729143858.684518,-1.2802498526878543,1.659094803473979,10.827229435856289,0.07581850269658799,0.057974965637781165,-0.004415777206503556,0.9954250142124258,-0.8565420159925679,0.8226551421051944,-0.7453998561214188
1729143858.692436,-1.1385329084388844,1.7970355979046997,10.509737904433694,0.08444936130948726,0.05297367623391709,-0.004496035161406213,0.9950084827118366,-0.8847012531289702,0.8183946021586468,-0.7562908982942862
1729143858.700383,-1.5605946535105961,1.5855526905299293,10.728651469466858,0.0731019026711643,0.07120543684027335,-0.0052326428748357134,0.9947655588322235,-0.9024481755337357,0.8388255415096678,-0.6827957920431447
1729143858.708423,-1.6560538111493264,1.3521209722281138,10.845394978359803,0.061794215306341264,0.07497457163180908,-0.004655068848920424,0.995258066481911,-0.9224615103287597,0.7297624376036015,-0.4718282241993434
1729143858.716459,-2.0243361013868615,1.3312931839228055,10.679612220170178,0.06169059149414077,0.0926494684627128,-0.005751436430905089,0.9937692226536607,-0.9400034820047805,0.5647131008778463,-0.26819778236843494
1729143858.724447,-2.358072373722742,0.7540043393087615,10.0637132671607,0.03712687624802951,0.11443878808271869,-0.004279881992453189,0.9927270729925486,-0.9407377935967662,0.4065125802991708,-0.08259169811204714
1729143858.732421,-2.25185632462427,0.8812041209192413,9.650838845306186,0.04520384243112673,0.11379145023144467,-0.005182878186692351,0.9924622190579289,-0.9096773160037674,0.3192546890582821,0.03132609281055773
1729143858.740348,-1.579041792821437,0.6800360174734198,8.760271046441524,0.038567084081719605,0.08872220049717791,-0.003437902546480061,0.9953035376157632,-0.8165452686921126,0.19666109417251362,0.18481477965652698
1729143858.748334,-1.2761489636323153,0.526055752329755,8.188820241390305,0.03197153853917913,0.07702582084379649,-0.002471250534287745,0.9965132897094618,-0.7002180515775112,-0.011413122180949434,0.4237710629685094
1729143858.756379,-1.3055818525446232,0.6505822636537124,7.85816018682637,0.04114486161517636,0.08188224012648111,-0.003383288587331619,0.9957865998660919,-0.6099885983585728,-0.18776614942993308,0.6118422894092121
1729143858.764328,-1.0546121596224771,0.45786584500863364,7.764869606968869,0.029375288515741366,0.06730040790674699,-0.0019823246267053145,0.9972982592531067,-0.532012282985336,-0.397446340776059,0.7587402301905963
1729143858.772416,-0.99429174645708,0.41430146379228955,8.082869558370774,0.025553422588276052,0.06106115846168941,-0.0015637530096484185,0.9978056485097017,-0.46649613105706456,-0.5713574325289441,0.8553927958886675
1729143858.780599,-0.9746194900129199,0.30795707944724876,7.788843693030277,0.0197177957461672,0.06214127925694828,-0.001227902253087592,0.9978718165171714,-0.3812119132622022,-0.7612677899345435,0.9023163937094973
1729143858.788419,-0.8835680611952519,0.2822182552367086,7.332306579587697,0.019198257440328426,0.05987172120048257,-0.001151712208748533,0.9980207800796208,-0.29215496711516403,-1.010157753861367,0.886624476071406
1729143858.796422,-0.9409858415999636,0.004131038591243918,7.663159650877618,0.00026901573110351724,0.06105290084611134,-1.6454887427350865e-05,0.9981344952750846,-0.2140307758621433,-1.2212167911294558,0.8750808751812411
1729143858.804402,-0.7070465037392749,0.0690374293070901,7.218588927733602,0.004775830550584171,0.048796128275653085,-0.0002333226540101015,0.9987973142076411,-0.1356551965621405,-1.4542747288558169,0.8762428258149207
1729143858.812424,-0.22239670229239306,0.3402188247717541,7.2389112728999265,0.02347699861733354,0.015334616293773567,-0.00036015241424823015,0.9996066978413475,-0.07969035769143618,-1.6158196846261972,0.8641692943512675
1729143858.820412,0.8196936595327673,0.5465021322653961,7.7119884995798,0.035314179603034054,-0.05275631471965037,0.0018668149616694887,0.9979810594285168,-0.03589489289392482,-1.5245916509222075,0.7236841862354597
1729143858.82844,0.21911662662786346,0.29773433844126895,9.241059119034988,0.016101877096466436,-0.011845422018342378,0.0001907716514700554,0.9998001696025834,-0.028347976719747398,-1.0846053250766752,0.504875061943973
1729143858.836405,1.0549135562989838,-0.03252798336101988,9.65835276390146,-0.001681332086203285,-0.05436863540265145,-9.154726579653326e-05,0.9985195121909073,-0.014028955601614218,-0.7137653241423858,0.3689069966929987
1729143858.844358,1.0107531557520464,0.6077640449443256,8.953681908585017,0.03382546308531613,-0.05601597381223299,0.001898839415146465,0.9978549208846978,-0.006714613115120404,-0.4704025105701726,0.4163102461654097
1729143858.852339,0.8439566981387278,-0.2568763240099672,9.964287929330697,-0.01287468443977456,-0.04221821266849708,-0.0005440764718923719,0.9990253094894276,0.0032079631757822953,-0.33247293359462327,0.4724220498438883
1729143858.860326,1.8586191165394867,-0.1637026010466053,10.327879493438262,-0.00789187611298582,-0.08889649745712666,-0.0007043710397031968,0.9960093548218866,0.06577828712477413,-0.3203797376119909,0.3400700080807832
1729143858.86839,1.8971177321307233,0.18237887394234928,11.947121243426238,0.007607486953655539,-0.07864640323841815,0.0006001780231963665,0.9968733666751513,0.21272282728991135,-0.26289239276989174,0.08570016776202513
1729143858.876448,1.576170122921012,-1.0737871360838092,12.744368412559648,-0.04193413393217922,-0.061217925620653174,-0.002574226007861569,0.9972398243925694,0.35154666870297546,-0.1275114412981308,-0.11885592392759756
1729143858.884413,1.1956567270729197,-1.1642928822362228,12.669895550709617,-0.04575022331608675,-0.04678310352230382,-0.002144939342503503,0.9978545272365941,0.4420777045956684,0.13378402558336516,-0.2824558248417262
1729143858.892595,0.8543423712046891,-0.6293833013632182,11.807831386822253,-0.026604748588732977,-0.03604239488226433,-0.0009598629392890917,0.9989956014852213,0.48830821496350557,0.3067375280478199,-0.39551491754137447
1729143858.900396,0.492494128777501,-0.4293447366773059,11.203204527894133,-0.019146351742957337,-0.021944034039669283,-0.0004203265137176146,0.9995757599655078,0.5283915329666069,0.427111541923512,-0.46888434396016987
1729143858.908391,0.17650465475673496,-0.638524326137243,11.222303577332182,-0.02841352151213692,-0.007847417586266708,-0.00022306970878501115,0.9995654256087548,0.5724489566571831,0.5163635527074084,-0.5069463389509786
1729143858.916431,0.27397574939700975,-0.5495116110632051,10.88516724527626,-0.02521514927302359,-0.012561841715115745,-0.00031687449123344994,0.9996030692081834,0.602288931363225,0.5631037181943539,-0.5080733428109003
1729143858.924427,0.32072681804640896,-0.5035260071652669,10.176511794919664,-0.024713758214044097,-0.01572828507797687,-0.00038887195476615405,0.9995707578666188,0.6410517291984899,0.5817826361343564,-0.43893637504708016
1729143858.932423,0.37607135816182974,-0.568350828908535,9.534643274461565,-0.029758899570125768,-0.01966621818654911,-0.0005856177870529885,0.9993634498071369,0.6762287296205856,0.5985239576973644,-0.3646760596562116
1729143858.940379,0.12867764766076972,-0.7176184184876991,8.938832416092955,-0.04004281567670421,-0.007168285323828371,-0.000287276132129557,0.9991722104175144,0.7194708130698686,0.6426239555521318,-0.26861137298478466
1729143858.948336,-0.8668271260031475,-1.2556129431824632,8.563389388620617,-0.07263563412707645,0.04975767659427703,0.0036282945642327614,0.9961099707127984,0.76670056621254,0.7380457442218413,-0.16840355483572533
1729143858.956365,-1.9389001794104823,-1.767791009317681,8.77338943395362,-0.09866491409003202,0.10594569489407082,0.01056502261622959,0.9894084721479484,0.8193027516014786,0.8510642154751931,-0.09933937265558707
1729143858.964352,-2.408564391093555,-2.2656763011472494,9.619804740694438,-0.11453791139466019,0.11844333983054009,0.013755573467165378,0.9862368003181212,0.9151432621156086,0.9686810354182618,-0.05960362359335224
1729143858.972385,-2.3355422320682426,-2.3273815118895214,10.005310219904944,-0.11328526914251112,0.11082005644619282,0.012716015613387071,0.9872809457451772,1.0011688025420427,0.9996619516681342,-0.04172183501647979
1729143858.98056,-2.7655414451979765,-2.4235414193407436,9.99575682041953,-0.11758829951448722,0.13003273591006145,0.015532798921447733,0.9843897660818611,1.1106779751567395,0.9360923195558855,-0.050148814636147745
1729143858.988478,-2.676860572685192,-2.37110408744429,10.72336874923414,-0.10778515255726927,0.11855044129915798,0.012946335202806695,0.9869957173973947,1.2342773270843939,0.8558072242037951,-0.11224747064386076
1729143858.996442,-2.527644562605256,-2.389919923169699,11.446761265409625,-0.10212734705851598,0.10567788208134635,0.010911736511960049,0.9890819603187008,1.3092883183639104,0.7459111080805463,-0.16695995676843184
1729143859.004561,-2.590865022475263,-2.2685706526322877,11.26261390646257,-0.09858427333118447,0.11012781284014783,0.010978121002972584,0.9889552501251266,1.3027864156947144,0.5871730050078742,-0.21255815028703545
1729143859.012432,-2.9228052622644545,-1.9453275966574974,11.055399744024028,-0.0862453605725046,0.1265358744036114,0.011044071326955389,0.9881439362548137,1.2652557592376965,0.50640360525398,-0.2543905284879067
1729143859.02043,-2.89428082825711,-1.6034201004749673,10.812558264383165,-0.07290254124262768,0.12871085585401243,0.009488160959806057,0.9889533405916051,1.1818636865744154,0.46943559706111826,-0.3182277510014743
1729143859.028432,-2.5944109517882503,-1.3491944687322461,9.954338962536147,-0.06674866227224652,0.125751578185705,0.008480442058455112,0.9897773682860016,1.0530757816059708,0.32125053395263986,-0.39569357016412177
1729143859.03639,-2.3979690344518567,-0.9953067300674727,9.346991197345906,-0.05258725648070373,0.12439051622152725,0.006601983103026855,0.9908168315834577,0.9374909330933212,0.18508789926526734,-0.4689915355338182
1729143859.044346,-2.162788002702364,-0.8174505907748586,8.985934420555981,-0.04501830037129711,0.1172371187580643,0.005320009878057277,0.9920688021059247,0.8340848190687689,0.08082874519535616,-0.5385117184433581
1729143859.052326,-1.9941460645608713,-0.4916674552949932,8.733147909413667,-0.027932448095253568,0.11179640117493139,0.0031437046517487975,0.9933335090234308,0.7882173729895947,-0.0013084900738440028,-0.5572365648701323
1729143859.060312,-1.9169029182775383,-0.5753614875812928,8.625289893109137,-0.03309152412253327,0.10883241860702432,0.003624983759426643,0.9935025491583487,0.8045429816726795,-0.1289178025443779,-0.46204895736068885
1729143859.0684,-1.817884593984101,-0.39477686691401004,9.126564355787357,-0.02150432434391849,0.09803618837786189,0.0021189062195547405,0.9949482298287106,0.7815602121499539,-0.29700675324103504,-0.30958181908752774
1729143859.076457,-1.4292708711365543,-0.5196213362128591,9.369628773384523,-0.027614844926916383,0.07547276736437498,0.0020909366763664575,0.996763216471114,0.7277556846588875,-0.4319153285759919,-0.19256013243590914
1729143859.08451,-0.985652311500292,-0.30602671774334045,8.998798705681104,-0.016970116694312462,0.054482186173975315,0.000926078475997224,0.9983700961606081,0.6039496049499109,-0.5405303277719979,-0.04316876901300011
1729143859.092477,-0.6014470338728314,-0.28680612219873863,8.630733204121553,-0.016598081683004525,0.034756166679337536,0.0005773141679004242,0.9992578142154076,0.49561075220756245,-0.6065507074125258,0.12309026010391098
1729143859.100381,-0.5004501771108082,0.0002988462120068265,8.332082349230744,1.7925074498065237e-05,0.029990985492654214,-5.37832582962656e-07,0.9995501690598536,0.41230276791928605,-0.6704272687001782,0.41057499467881364
1729143859.108432,-0.22317681280945365,0.07775144151626659,7.666629479118523,0.005070017006213509,0.014549522640281375,-7.377508480857007e-05,0.9998812933922373,0.346567445072225,-0.7747351649993846,0.7129013041696748
1729143859.116404,-0.13246956668957843,-0.030921268879302546,7.4438104194047074,-0.0020768796028596682,0.008896815077996105,1.8478384950496326e-05,0.9999582655846855,0.28541605822942473,-0.8586044058520099,0.9292036749040782
1729143859.124433,0.45035508737883106,-0.25102974252875343,7.2344622111154795,-0.01733304762306587,-0.031057248096139342,-0.0005386576438123352,0.9993671610818189,0.20700760010046548,-0.8646541839715338,1.1215615363796387
1729143859.132398,0.5989369403667517,0.7960494909085293,8.82142573365171,0.04495650221450449,-0.03371849810691947,0.001518266744779836,0.9984185848932013,0.15868545503870385,-0.8312490154960515,1.290187510947729
1729143859.140342,0.44675052481575417,1.1329226889298831,11.794788888677353,0.04785239215863151,-0.01882007338119844,0.0009017788607904801,0.9986766945300712,0.11649577609632389,-0.7971581423825149,1.4049851776553681
1729143859.148319,1.4151123302703117,1.3036825659946487,12.482741261673208,0.05192206066907278,-0.05603362363125507,0.0029179201273105315,0.997073627361971,-0.02971400872432106,-0.7064647583731578,1.3891514554490074
1729143859.156351,0.5248924933770308,2.9468072605440545,13.832842635421894,0.10473482681743504,-0.01844468965755066,0.0019428225678425836,0.9943272272825624,-0.17277958760677217,-0.5358353411884089,1.3694346606501022
1729143859.164353,-0.5031632112491722,3.8979661532014327,14.60818753559884,0.12999167951143184,0.016491690054539532,-0.0021624322440390426,0.9913755652141786,-0.3109788124960727,-0.1665500223408658,1.3618614843853794
1729143859.172381,-1.348642892569816,3.6620549494892187,14.687209747921806,0.12174805123214416,0.04408527676189671,-0.005412945307452415,0.9915667402737451,-0.4279535523466155,0.1167462278796546,1.3296477246315135
1729143859.180564,-0.8012848700633739,3.932789753140797,12.437386582395662,0.15245683624035383,0.03031160714949248,-0.004678125271044736,0.9878341129458656,-0.5594377651074738,0.37484182073460737,1.1821867602791225
1729143859.188464,-0.9787648673505244,3.647754345048541,10.385512756322163,0.16791348301202536,0.04369723742379012,-0.007450569711389822,0.9848046012662994,-0.7077157727822998,0.596532516097118,0.9494012508320593
1729143859.196438,-1.3103078217775022,3.536827561863109,9.108419788803062,0.18370845135704741,0.06546521706340236,-0.012262921434086386,0.9807217398491471,-0.8324405425500061,0.7180533016551496,0.684151377032522
1729143859.204441,-1.341878898388767,3.3828831313561465,8.063957775381446,0.19670556590565552,0.07456245445541304,-0.015004324448032597,0.9775081743776767,-0.9579325217246117,0.717321392357037,0.3015141704852331
1729143859.212424,-1.4075084767285728,3.281418506743375,7.557948331000353,0.20261818164335865,0.0827289319627066,-0.01718151584767627,0.9756057563365567,-1.0434442707044638,0.6981518840738401,0.010206787644865184
1729143859.220428,-1.42533840879105,2.8216657353936814,7.476524578434195,0.17873269658123067,0.08670808187202621,-0.015814783004857957,0.979941949479348,-1.05388507419202,0.6857987989809979,-0.2718515375477875
1729143859.228426,-1.4602178047961143,2.9171547500740993,8.213207891591768,0.16920442039849037,0.08169791688023073,-0.014075771401192204,0.9820881768733921,-0.9835253452213881,0.6451831231312541,-0.5632595803029822
1729143859.236405,-1.6444299956218094,2.401036861274928,9.398856915130843,0.1242724532718435,0.08320688917404302,-0.010458527289351373,0.9886979266483338,-0.9149167240283629,0.5799474717210528,-0.7679027102584413
1729143859.244366,-1.7271845708594136,2.2594390845383945,9.41664610830702,0.11699668378689161,0.08752546561312366,-0.010351846488045382,0.9892137828226839,-0.8575753289769906,0.44332305680012674,-0.8936684186619509
1729143859.252328,-1.8072436770859606,1.9436793784574116,9.473048875921712,0.10056461920271696,0.09177349573534278,-0.009316320486455072,0.9906450368410076,-0.8210420416388571,0.3315501035452289,-0.9614654225977401
1729143859.260325,-1.901008392530873,2.0831868629142907,10.234967261344044,0.09980566200794258,0.08944309484519725,-0.009008565236134716,0.9909377419233035,-0.8008248294818252,0.2661890918381383,-0.9595746188130105
1729143859.268434,-2.1437755311239926,2.1472588999751365,9.244344548700958,0.11313695509781035,0.11013068907440393,-0.012619150815784186,0.9873763303563041,-0.8521223213454487,0.2431487071494412,-0.8839443757863172
1729143859.276442,-2.482887308420489,1.8406976629831286,9.408693427218621,0.09564316474262394,0.12578020916239838,-0.012184001421350666,0.9873617746958018,-0.910996360520117,0.2552915700854068,-0.795571533762636
1729143859.284457,-2.1893181101499497,1.8645776248894865,10.286136554378048,0.08904548171499103,0.10262551851574132,-0.00922427660921868,0.9906835104394123,-0.947597854209304,0.2838617909200878,-0.725094536028484
1729143859.292421,-1.6686509722911418,2.0441055165840827,10.902384992929564,0.09226904027321979,0.07426716073958436,-0.006901306005519005,0.9929366470315002,-0.9844579025739872,0.27631389985609855,-0.6951533491703916
1729143859.300388,-1.3936002354742945,1.7570183978410745,10.557704280669846,0.08218162567537658,0.06447461653935385,-0.005327850096321227,0.9945153685272071,-1.0712788209350261,0.3041376098888194,-0.5950304551933642
1729143859.308415,-1.3865871029544985,1.371921599007379,10.408835533489798,0.06533041955242339,0.06546724101136137,-0.004295453281309452,0.9957045373586347,-1.1497641557622953,0.38766517555799085,-0.4510957766991275
1729143859.316431,-1.6325732969289493,1.3369486356739588,10.816071709498175,0.061276481330675606,0.07413811403753451,-0.004564131576336266,0.9953531542048997,-1.2155857193629862,0.5075948850392669,-0.19871584563239314
1729143859.324423,-1.5960509056476038,1.2599405388262503,10.429780697818046,0.059896089865738585,0.07517803180792738,-0.004523863769831927,0.9953593605371246,-1.2384767451263814,0.43056118921632147,0.1361845294977831
1729143859.332431,-2.05441432390614,1.050451127494969,10.554502718007233,0.04934354333807411,0.09539780105578699,-0.004734706788299433,0.9942042329603072,-1.2377378984947096,0.30899383084377463,0.39970119361080747
1729143859.340358,-1.845564219343684,0.7801477004227627,10.183296160833637,0.038062455810642944,0.08920364062168779,-0.003411411416080338,0.9952800220187532,-1.189191613570497,0.2007211407188979,0.5765415547829515
1729143859.348324,-1.7956715089011324,0.7101424080954545,9.902632546353697,0.03563835585151518,0.08929039221549237,-0.0031969881519404836,0.9953627041018568,-1.1200489768385384,0.12043268443133874,0.6779631808101556
1729143859.356379,-1.5595951196961482,0.3154733281580539,8.618296983866905,0.01821722120102914,0.08932006637182327,-0.0016339688529992036,0.9958350208447347,-1.0138585054571343,0.0058519610707263164,0.7626547998683518
1729143859.364337,-1.5240124197180795,0.5113041201858479,8.311931348279128,0.030582879388949876,0.09033563849863244,-0.0027753857409547,0.9954378218348519,-0.8777769121797465,-0.16123087714337042,0.8224092625939722
1729143859.372388,-1.4265271869382696,0.26871466571502434,7.821893574592476,0.017096935197796346,0.09000946521977853,-0.0015453875138866132,0.9957929517500732,-0.7731406928943643,-0.32405701910674717,0.8382545073406289
1729143859.380527,-1.1760210741258523,0.14422996764190524,7.941588957255486,0.009054047934435755,0.07342659891868142,-0.0006666349918088819,0.9972593014783185,-0.6758780663447103,-0.5081677867615656,0.8009357474277994
1729143859.388437,-0.8459128617606676,-0.021201094121888097,7.889625961023214,-0.0013416094496635676,0.05337954370208852,7.171681202562165e-05,0.9985733920223091,-0.591979086727196,-0.6450270311651025,0.7610911989601584
1729143859.39644,-0.5973302793122599,0.04114888088038276,7.618309736770177,0.002698477831711349,0.03911286366540268,-0.00010562640640759925,0.9992311499129446,-0.4850229207822372,-0.8097264497308589,0.6371473054359964
1729143859.404419,-0.4773899900971216,-0.09693611580770785,7.777779545675387,-0.006228199399699295,0.03064313012864017,0.00019094490317470177,0.9995109662470947,-0.3731719343315144,-1.046469680784011,0.37760579258551547
1729143859.412453,-0.6185097643219448,-0.23293839067603095,8.242647327014607,-0.014115548598768363,0.03742133149261572,0.0005286456785341698,0.9991997376755171,-0.29116219030990964,-1.2476865379591247,0.1486621943037575
1729143859.420433,0.1616040107915987,-0.08038683323374358,7.24043068746853,-0.00555063074040086,-0.01115689072929595,-6.193258957794604e-05,0.9999223522114068,-0.2381251333437885,-1.465473986277536,-0.08193008812548222
1729143859.428425,0.9315811052054279,0.3575850814562382,6.7363052911432275,0.02644872470767065,-0.06853716134931685,0.001817634935562159,0.9972962542187535,-0.20970841965581205,-1.6442494322137924,-0.259448943237533
1729143859.436381,1.5922860996466943,0.7814980019987429,7.100854635867577,0.05443786276054084,-0.10927009245920677,0.0059933672801602495,0.9925022143756991,-0.19265839144302616,-1.6182737105379303,-0.3953328705456436
1729143859.444557,1.0130719197977822,0.38605942375783947,8.454675249782266,0.022771200977246265,-0.05951545731050333,0.0013579996574649299,0.9979667021419631,-0.18881372543728514,-1.2480884563345407,-0.5024046306182318
1729143859.45233,1.229138482689216,0.4102430981023599,9.863363251676,0.020741375353940723,-0.06188276237973094,0.0012862771575981485,0.9978670575581472,-0.18991244632553678,-0.9829826076048418,-0.6015542717016713
1729143859.460342,2.1881298755022014,0.19227632150790033,9.554810272782944,0.009993966327340054,-0.11229798855043897,0.0011295044038785063,0.9936236745490593,-0.1927001291657979,-0.8788331162956246,-0.7223434252022676
1729143859.469752,2.707739812508352,-1.3134937578765098,12.189808620945158,-0.05331433881463906,-0.10831196157125471,-0.005817225181040867,0.9926692602012707,-0.13051922965064985,-0.8159177314486322,-0.790134326626543
1729143859.476484,3.240011747612433,-1.9279756651262965,13.352301179647172,-0.07112186968706687,-0.1172759385598925,-0.008420767070134377,0.9905135660701789,0.07238274396716929,-0.6704689149905427,-0.7367313638979993
1729143859.484484,2.4688160524737097,-2.748929503079684,14.148677243432834,-0.09544331367624553,-0.08432962259119244,-0.008115053898328648,0.9918231871298191,0.2635114081561719,-0.20986944121348733,-0.6408360770415684
1729143859.4926,1.6584605543357882,-2.9604225309493724,14.756029191518683,-0.0986815728479527,-0.05458063832818026,-0.005420761861341433,0.9936063186397243,0.370951875624719,0.20058261241328582,-0.58542735523502
1729143859.500381,1.2914784981288165,-3.113175725600873,13.444020357928789,-0.11340361100088112,-0.04633912813624941,-0.005294982191507626,0.9924536610739692,0.41328027290982156,0.4677126576009893,-0.48066619182546955
1729143859.508416,1.3882815642093211,-2.668287050350758,12.103275633946726,-0.10810650793990977,-0.055417467963593064,-0.006035803793502586,0.9925751640344971,0.47060406589053544,0.6403356964960103,-0.33437424173318114
1729143859.516431,0.9438204753908271,-2.195691922593267,10.390947530026237,-0.10382814772972852,-0.044063476063153015,-0.004604460659244103,0.9936080337629537,0.6003529154464589,0.8230878712649607,-0.11761498305481251
1729143859.524481,0.5181688318653556,-1.7526810153723664,9.223968710886835,-0.09371268321705654,-0.02744159168840712,-0.0025839826408539162,0.9952176722122543,0.7305621027398428,0.9157115736678496,0.03202231497946212
1729143859.532422,0.4021203823711665,-1.6149642598581855,8.661448014862179,-0.09201345016838468,-0.022705365698228126,-0.00209864998339682,0.995496653447347,0.8176271064065759,0.931270929332152,0.10264864103423547
1729143859.540397,0.10815461711801239,-1.44734004761413,8.449870604571604,-0.08471620615518097,-0.006284863161543772,-0.0005343613962650391,0.9963851561357243,0.8392164241813493,0.853765770192479,0.138639085745169
1729143859.548335,-0.4426779816823176,-1.5019097878458216,8.41318556098515,-0.08818327623396886,0.02577225580538961,0.0022823403798861003,0.9957681916720053,0.830885511773112,0.7749102300375608,0.16874715380096977
1729143859.556377,-1.133504890816031,-1.7032034288598368,8.499392449872339,-0.09850769232021753,0.06464970130534992,0.006413300347126879,0.9930133535121932,0.8071566016238401,0.7612264208001105,0.19490010580222883
1729143859.564369,-2.0483891832689154,-1.971941276065902,8.989973747511295,-0.1070828424465573,0.10864144069647336,0.011772234071022365,0.9882265513139877,0.8231432498980812,0.8560331301314519,0.22591671921561737
1729143859.572384,-2.5621249943363495,-2.3575206799461816,9.641058573457949,-0.11863123209556733,0.12507550065114037,0.01506513176237469,0.9849141037234347,0.860405092857658,0.9188768165907252,0.2389927164646441
1729143859.580546,-2.7449103139846223,-2.5658839863368494,9.645285321076722,-0.12842072942280272,0.13266218421550904,0.01733731282921537,0.9826536921609502,0.9363991463776199,0.9076286713981556,0.17234255405820462
1729143859.588484,-2.900071337316554,-2.758897297319688,9.850131409931187,-0.13476923570657182,0.13641044368426333,0.018734955008818655,0.9812636982084615,1.0037057716241606,0.8889604625616769,0.09489173120568214
1729143859.596429,-2.934749430807901,-2.840707620335172,10.740859535655979,-0.1277999631398485,0.12769338066495833,0.01659458984868625,0.9834054044714018,1.0730366709515033,0.8266767298843458,0.007554991593813613
1729143859.60442,-3.2160454275277095,-2.5220444391444623,10.9006038512764,-0.11228259801575337,0.13859140947444243,0.01581705769655695,0.9838368056179562,1.1082498596259782,0.692249156264604,-0.10486935083945394
1729143859.612427,-3.3412485553447504,-2.335395513584334,10.86740297116623,-0.1044707092518279,0.14466907277641353,0.015362091375839817,0.9838296277501473,1.1204382815399607,0.5962677698801259,-0.2234067636748583
1729143859.62043,-3.308870777493959,-2.211435149947475,10.320758077865753,-0.10407904968495722,0.150467823852632,0.015931512080456612,0.9829919492674188,1.1281770247498122,0.5271853063899641,-0.3869039547133617
1729143859.628419,-3.032785692814735,-2.0048990001247353,9.750956774209685,-0.1000672246716768,0.14656525978729457,0.014904648471019582,0.984013732944793,1.1336716507986473,0.44912648301013225,-0.5058610823481033
1729143859.636386,-2.5913226107572003,-1.7593518658951535,9.49742203327581,-0.09063928624085063,0.13013216181307224,0.01194714097853118,0.9872727110955942,1.1135554730475365,0.27628693078947186,-0.601925382493746
1729143859.644365,-2.3451195344718982,-1.5504926026913888,9.089839871576814,-0.08369314911575,0.12375618281345162,0.010475695218483783,0.9887214591664438,1.0550855496975087,0.07169465489057414,-0.6655236234416002
1729143859.652334,-2.0942075971479825,-1.5760117493589738,8.488554527194136,-0.09098258682796204,0.11820417493979961,0.010876858361376904,0.9887525655456375,1.0029759932290108,-0.0659598627999356,-0.6977229071498443
1729143859.660319,-2.035837198669649,-1.4900485071349157,8.41173563745906,-0.08692491433122937,0.11626035769484848,0.010214657001078169,0.9893549662681865,0.9419119550455697,-0.1302479007713741,-0.7076772960226261
1729143859.668389,-1.9313831114381173,-1.3197181594567307,8.650554301176609,-0.07515943281603166,0.10809158424715525,0.008195717390117417,0.9912618722064185,0.8899486899228719,-0.18755108625856656,-0.7030076778097443
1729143859.676445,-1.6697525011402141,-1.1002040695021633,8.961918455950105,-0.060773218555008966,0.09113359651941459,0.005572098905427244,0.9939669185670567,0.8110934439655058,-0.36326209795627656,-0.6627451814733565
1729143859.684455,-1.320040901318894,-1.0951488833516885,9.05536308406811,-0.05997953826677666,0.07166930319062843,0.004317628643740502,0.9956140437199391,0.6854533250820722,-0.5844764016925752,-0.5585579521166618
1729143859.692445,-1.0120516733596958,-0.9431964283996849,8.843997535499458,-0.053009697159469446,0.056540406870312025,0.003006246098932418,0.9969875209261114,0.569203007851657,-0.7308270659011393,-0.43304348540626436
1729143859.700446,-0.5476153826779269,-0.6030279827722328,8.797383961973503,-0.03419582653891087,0.030987953697187917,0.0010607894216352152,0.9989340653410438,0.4394305188472615,-0.8250228153482082,-0.21725708509755545
1729143859.708427,-0.3084579356614436,-0.16644993419458964,9.01194844603176,-0.009232372324445634,0.017102675075288617,0.00015792809656316534,0.9998111005911308,0.34113390249444664,-0.9066559786427095,-0.026485876061797545
1729143859.716396,0.10606016047813387,0.05359836589926185,8.520588906486243,0.00314511659671273,-0.0062232421590539665,1.9573298041118604e-05,0.9999756892622484,0.2527833184418775,-1.045030789526437,0.2029131659544057
1729143859.724334,0.4670590760232084,-0.1114930800698179,8.11971004921401,-0.006862151347321517,-0.0287218348689202,-0.00019717957396900721,0.9995638689953056,0.17082604383091793,-1.1097510034138058,0.44399527609940137
1729143859.732337,0.7808630127525971,-0.30248529140126573,8.178218522204187,-0.018462124833374942,-0.04753774110918124,-0.0008787915251658959,0.9986984233703029,0.10930666728194327,-1.0698304703757515,0.632064928455526
1729143859.740345,0.9195854004249956,-0.9375800591181032,8.022745153849856,-0.05803883566727879,-0.05655356178551261,-0.003293151357141054,0.9967057456229987,0.09453092454858411,-0.8811360967671126,0.7555489714057515
1729143859.748334,0.6728978442589036,0.23855184001741933,9.485692211938819,0.01256312546548404,-0.035388434547867734,0.00044490319331318715,0.999294565501053,0.12780879499330974,-0.7104513143045551,0.8385788884665895
1729143859.756397,-0.09090335643293906,1.4824475127018577,12.918073618178918,0.05709747372499845,0.0034897482910808747,-0.00019958263002139818,0.9983624894385115,0.22184558795453863,-0.5969725032290077,0.898187710116719
1729143859.764368,1.4794229898023459,0.9416621038125209,12.651774969247192,0.037072524547328185,-0.05797098897084465,0.002154242150394787,0.9976273610934031,0.15694599621459696,-0.5765625034674269,0.8649912131499476
1729143859.772497,1.7634527611665636,1.9512400235179812,12.558554586040504,0.07680289270038686,-0.06867765976604084,0.005302939148888536,0.9946640506011544,0.04947014127524485,-0.5085511055589522,0.8523100460147394
1729143859.781372,1.3367567299421255,2.4621763895990694,13.689428119055943,0.08875507343090618,-0.047698471804594834,0.004255175757779521,0.9949016464993166,-0.05843575795749364,-0.12123255678377365,0.9579349020825147
1729143859.788608,1.019926389039494,2.1354718701363944,12.28332085336716,0.08588477769207747,-0.040649968858332754,0.003507103245286197,0.9954692788928375,-0.13892982977123192,0.1733093214547901,1.0813321143893264
1729143859.796696,0.38259131438072763,2.9203535786248054,11.07071001812381,0.12858205816706667,-0.016562232836026737,0.002147736673537371,0.9915582352984557,-0.2068080156867283,0.32406735464874437,1.1583502722036476
1729143859.804551,0.27600230083546784,2.503033787799883,10.72286390027858,0.11440118301771225,-0.012447649706078865,0.0014335509218765697,0.9933556111849859,-0.3352270798972047,0.43665805776114264,1.0581237857493015
1729143859.812534,-0.022582869987000567,3.1183852336174294,10.551745195635899,0.1431827560204573,0.0010156486415000337,-0.00014693745430130627,0.9896957336705093,-0.47272650715109893,0.5050638597515056,0.8885855480809517
1729143859.82055,-0.6214375235058722,2.6869750659517075,10.494084964061225,0.12494948012340355,0.028423597828145387,-0.003581059607893747,0.9917494151828272,-0.6258907137061327,0.5644120135885908,0.6429793647057751
1729143859.828544,-0.7516252167402421,2.6402552324421182,10.764749536786343,0.11989912039458529,0.033603698439458575,-0.0040606911316261075,0.9922089009716292,-0.7539728928634257,0.5889529642928291,0.46624304043978904
1729143859.836458,-0.9348432855617234,2.2238838230590208,10.077206691065946,0.10827316961413457,0.044889550880541966,-0.004894127370053563,0.9930951094838488,-0.9095748617282773,0.5193909025458897,0.32061207016422844
1729143859.844439,-1.3105305111319558,2.1648788497436158,9.136041257071208,0.11578180565741905,0.06881868684528318,-0.008041490177325084,0.9908551338391131,-1.0178351951983595,0.4312534487983647,0.09062731740911151
1729143859.85233,-1.7463931724018298,2.423723249787576,8.465039442963427,0.13828596728857342,0.09679346317637223,-0.013581326133294484,0.9855574890983524,-1.0534187810395284,0.37837097654984964,-0.13633275708952325
1729143859.860318,-2.240866590696957,2.4959510922065298,9.134083017584697,0.13204317396112794,0.11489914208300747,-0.01541142442139559,0.984441605864037,-1.0147466338780833,0.3521754639997471,-0.3844652879532184
1729143859.86843,-2.4068272310295025,2.4471110337418867,10.012434133060584,0.11874873584709765,0.11362810526652271,-0.013680530120263384,0.9863063593650225,-0.9706845325695768,0.3411407471457679,-0.5520751691757648
1729143859.876605,-2.382862809564967,2.3672893436338036,9.77258201059807,0.11771553177184055,0.11526226573352712,-0.013757468236139356,0.9862395225022055,-0.9301994997562258,0.4056101572975397,-0.6530667879707548
1729143859.884569,-2.4556330971159332,2.241105935281845,10.191547547423294,0.10726510897809606,0.11462895915559845,-0.01245105413679782,0.9875218323509125,-0.8995231291462848,0.5583767398604271,-0.6476797997211339
1729143859.892505,-2.2945910277031536,2.1766486380734036,10.779791043102414,0.09890822134086205,0.1021591449171598,-0.010208649793282657,0.9897860659407062,-0.8683466049364593,0.6338604670626025,-0.6338053552348105
1729143859.90055,-1.9070702843465015,1.919862488508105,10.491330515754024,0.09000487444621387,0.08799160119073896,-0.007983424259907697,0.9920145491034381,-0.8385727488125512,0.5774107786944821,-0.6561303729682828
1729143859.908417,-1.612069175002432,1.530440775575566,10.13342183118093,0.07464092569999424,0.07771319887998447,-0.005834655848704722,0.9941606247089125,-0.8104918736631175,0.54566941598092,-0.6456867401664923
1729143859.9165,-1.5940434996303654,1.427511158460574,10.697271000319883,0.06609729378436355,0.07309544754787638,-0.004855102176739677,0.9951204104453956,-0.7404320908907034,0.6258103826734361,-0.49213179921955513
1729143859.924499,-1.8609554869852505,1.090899037605641,10.686505899752477,0.050648322812579874,0.08555303678229069,-0.004354735122965937,0.9950359096915093,-0.6983962212272549,0.6921996353318132,-0.281231307503486
1729143859.932454,-2.360600474808338,0.9497444872606503,10.590503697322188,0.0444275028042924,0.10890585484181384,-0.0048722931373639386,0.9930468128619778,-0.6936078223793634,0.6669026075231486,-0.11467614669641357
1729143859.940574,-2.3793081925998463,0.8420674211161557,10.644232753061281,0.039216002024503024,0.10932133140887258,-0.004316396922547579,0.9932231976760373,-0.7145734265125021,0.4588867929956495,0.0640096111583057
1729143859.948416,-1.8221493491536576,0.7003678879724279,10.268977063946144,0.03390597304128697,0.08744504448721288,-0.002978049350151548,0.9955877060353955,-0.7292812392996956,0.2574530932159843,0.21676990244757466
1729143859.956477,-1.4476314551953195,0.804968939570566,9.273608976404796,0.04314509224954311,0.07699213173054988,-0.003334864743625595,0.9960921600652751,-0.7019222717477389,0.06890815357572223,0.4378358559055937
1729143859.964415,-1.4048800449921914,0.4695738344454646,8.280866009622175,0.0282151741621306,0.08376258136267081,-0.0023726686576452626,0.996083382229572,-0.6480461658079062,-0.084659366047328,0.705844867525331
1729143859.972426,-1.4204094674250025,0.38254019055985683,8.152568393615102,0.02335149969090648,0.08602536850390217,-0.0020168540792536347,0.9960172065459394,-0.5918818588021328,-0.2325652758726843,0.8960228887380537
1729143859.980544,-0.9209592681014858,0.3748521551073985,7.401861476842889,0.02524689941058671,0.06175570934919916,-0.0015626237274067388,0.9977707074473652,-0.4870930343345095,-0.46646913272645085,1.0080012511583771
1729143859.988733,-0.7244792400601102,0.49449839999803286,7.405856801877219,0.033288950935292445,0.04860360029306254,-0.0016207798716001219,0.9982619440090801,-0.38335349375358047,-0.6595970144600027,1.0530523854145455
1729143859.996557,-0.5910289124442692,0.30196628365116346,7.7034590615950815,0.019573205344947116,0.038240328004808505,-0.0007491776007102016,0.9990765764842712,-0.25683057012425625,-0.8831733290500279,0.9919652232456061
1729143860.004457,-0.6153459082575772,0.21637453459499495,7.779788006537127,0.013890914491258339,0.039436331378871044,-0.0005482862511611991,0.9991253763388053,-0.15026713152139548,-1.1233159431080888,0.8995475278927163
1729143860.012437,-0.44127301492524945,-0.05596532807112804,7.922789960904698,-0.0035304330790908375,0.027815137921324642,9.823810582319152e-05,0.9996068449615411,-0.06759870565534962,-1.317207248733983,0.8317518988985834
1729143860.020423,0.2193437667284441,0.26306238885068256,8.222872182109224,0.015988160768444934,-0.013325342586283876,0.00021309388405069008,0.9997833608093291,0.02159152558024685,-1.5323021263687109,0.7374375737578878
1729143860.028401,0.8723722536894103,0.3917509355076751,7.086828862244051,0.027554076866910082,-0.061086942017604964,0.0016869889644001944,0.9977506263747391,0.08532222579669348,-1.7009482286655166,0.6335973818511849
1729143860.036429,1.4344170839030992,0.6399100620370269,7.638216725305415,0.04159305211926779,-0.0922872079607018,0.0038583545273654105,0.9948558701453005,0.16102137133522024,-1.7668036149422512,0.4738102426323578
1729143860.044405,1.613626672461,0.7459493282378412,8.619793454372703,0.042957902304781456,-0.0919761121549651,0.0039716492168819706,0.9948262357944366,0.21878587044073522,-1.5824038743792634,0.3370717132007066
1729143860.052324,1.371838403378944,0.5732651841009079,9.623175799186122,0.029668836859413225,-0.07058710589763643,0.002100408141897858,0.9970620887818585,0.24578214879772764,-1.3619359941842668,0.2473661744353993
1729143860.060362,1.9069581335801005,0.818729299669529,8.997698014912062,0.045100923989419915,-0.10371248720594896,0.004707785567935696,0.9935730790474865,0.2538918046441445,-1.1419631134060901,0.14841970466123958
1729143860.068396,2.227311711202748,1.2157230021649987,8.043493382921849,0.07423784516044181,-0.1328529649203441,0.009979465711279209,0.9883011900842402,0.24598689630813364,-0.9516598465188859,0.0643617992319459
1729143860.076447,2.19111701939743,0.7792331958302492,9.497662309049984,0.040647532465751916,-0.11266532968549435,0.004612823690388393,0.9927905234483788,0.2382641208762929,-0.6706073822934469,-0.020979529065516894
1729143860.084486,2.613524612273223,0.7809409148126025,9.550389016289365,0.04040726096133056,-0.1326314429838588,0.005411621856342132,0.9903266470930217,0.2647058301039168,-0.5236860968927471,-0.13305800483306507
1729143860.092613,3.0707157292779965,0.5466155230086552,11.404730764509948,0.023728931971887458,-0.13094706720911922,0.0031351355472402044,0.9911003855825626,0.3380390139378654,-0.4734197411224481,-0.2211639033052335
1729143860.10039,2.8487123953304696,0.3679524815298025,12.211356841274327,0.014958110588652707,-0.1142790620393744,0.001720869162217577,0.993334580851963,0.45270347444093173,-0.3589732954907864,-0.3157450684118137
1729143860.108405,2.3190306000400787,0.4214055880389752,13.045364770047797,0.01608033046187467,-0.08779482796696807,0.001417428544356657,0.996007772083536,0.5074543787145245,-0.18856550342236383,-0.4240022649126676
1729143860.116452,2.3649007550435783,0.665364298868307,12.964457364225943,0.025527567972286887,-0.08994773922626323,0.002306256253958621,0.995616607265867,0.524128698943123,-0.0033112661962141354,-0.5753716652899725
1729143860.124446,2.7051055848620846,0.6283436781979372,12.012101794023847,0.02596159661890371,-0.11034225141676254,0.0028832570609842885,0.9935503358572215,0.5222139693593452,0.1244431885364949,-0.6504427732422602
1729143860.132429,1.9891367847551413,0.8290314803562624,11.068868934080324,0.037217529109892206,-0.08848276386127016,0.003308405698864681,0.9953766676380137,0.5244706521007748,0.3275258096303437,-0.6197126070733912
1729143860.140352,1.614622142874569,0.9549508254696167,10.216582699559524,0.046435546062335464,-0.07787307755800445,0.0036310582281810122,0.9958746604215218,0.5334870828519491,0.5093976809527995,-0.5616853316561008
1729143860.148341,1.3065951399727884,0.9584369625669262,9.406175171493526,0.05062575333760872,-0.06851913922430627,0.0034815113505948744,0.9963583892042439,0.5388969413026536,0.6219263242379691,-0.5098413639472452
1729143860.156376,1.0535441909172667,0.9648382078135933,8.523211439566037,0.05622147434697282,-0.060971158326193424,0.0034397591566355263,0.9965489610307962,0.5327776750209117,0.7013628319300078,-0.46638997153953304
1729143860.164344,0.917515352440985,0.7704390575006559,7.836373571503295,0.048895112802754874,-0.05789755758177517,0.0028390830491965093,0.9971203941237541,0.5274033550060184,0.7528559470983893,-0.44074482615636773
1729143860.172388,0.7935206799704504,0.7134151886507842,6.899461846759399,0.0514080458558022,-0.05684710276100521,0.002931032773818681,0.997054175446774,0.5535513772379625,0.7892857869984247,-0.41684393769722794
1729143860.180512,0.37795013991586396,-0.12381436947554504,6.314809316307592,-0.009797527302809923,-0.02987842698463724,-0.00029287953926915956,0.9995054788650485,0.607552296108712,0.8515842467773389,-0.40676030523636436
1729143860.188519,-0.2903774746442316,-0.9898313365290771,6.565680675233773,-0.07472743461913575,0.021789401756576267,0.0016332236219335375,0.9969645756329228,0.6612373505042632,0.9268497381148082,-0.4177377282183275
1729143860.196442,-0.9372585538783359,-1.9238778241342431,8.862365858753545,-0.10653306891653402,0.051175737739284265,0.0054904727371483586,0.9929761345587252,0.7930598575237093,0.960941091319277,-0.486474930980962
1729143860.204441,-1.4230706291531732,-2.042336090232499,11.329499304070486,-0.08888249348258018,0.061212665986677926,0.005472781153908851,0.9941443358695777,0.9513317131673149,0.9081772126704888,-0.5639009078628154
1729143860.212431,-1.8694627217301854,-2.3858711988172336,13.327645190352447,-0.0882378682034266,0.0682810583532348,0.006062941767701633,0.9937379012708524,1.1820899561598663,0.7675422297469359,-0.6788925938873145
1729143860.220429,-2.115271322002955,-2.455522769339168,13.694547645217328,-0.08833202605354948,0.07507250256360884,0.006676468420244343,0.9932356202339632,1.3103283404803086,0.6703905381489431,-0.7776859098043561
1729143860.228423,-1.942651720203726,-2.3826314521308447,12.867225891817897,-0.09116229040733637,0.07331346798533675,0.006729785750007736,0.9931109113303561,1.3204380314230346,0.5874094996253496,-0.8386646596004292
1729143860.236373,-1.989435823382001,-2.349431149110538,11.659994366877848,-0.09889814165900247,0.08235913634562962,0.008213754767321294,0.9916494665300941,1.1813435350301176,0.4933491101191422,-0.8531160262820474
1729143860.244313,-1.8568553538924817,-1.5777316460092918,10.913868216806396,-0.0714625822240938,0.08309975753469327,0.005974623954001184,0.9939576618287864,1.0485067900647718,0.43137890561641135,-0.8362454426032965
1729143860.252369,-2.120635590265177,-1.149667288386825,11.659702054351415,-0.0489174870800202,0.08930303533097328,0.004391346589965477,0.9947928243677564,0.9198503860174306,0.3235322327120756,-0.8205891215970396
1729143860.260348,-1.850820475252856,-0.8174113215184232,11.650628100286628,-0.03490314490653386,0.07845285959369941,0.0027484128258914256,0.9963028482967131,0.7864654554760377,0.14984757323519404,-0.8414193233570897
1729143860.268386,-1.617584196772807,-0.9271491757235539,10.611606871158303,-0.04343254336265381,0.07520998940255999,0.003278968741479561,0.9962160006921743,0.6698251518654673,0.03669728625836247,-0.8139025786356888
1729143860.276435,-1.5463560173312623,-0.8218064695454604,9.461469768446936,-0.043160154837911927,0.08054065564307007,0.0034907723437092755,0.995810332508855,0.5645086945977764,0.040748734459346875,-0.660746022073536
1729143860.284459,-1.270902708299148,-0.4724937474499325,8.648086121322068,-0.027211993720257215,0.07275799863571322,0.001985894858145724,0.9969763473893986,0.5064271009747063,0.046159433810171735,-0.5105325497159461
1729143860.292637,-0.743148591532223,-0.2949884164387095,8.208179386416287,-0.017941467720364812,0.045094151135116826,0.0008100100255898898,0.9988212878954877,0.4515707119121487,-0.06638184329700594,-0.3199416117963526
1729143860.300382,-0.8083712862669901,-0.3129837041601007,7.879113060316568,-0.019822935281690386,0.05104723415422378,0.0010134271979951412,0.9984989755064029,0.35097215870215115,-0.22628135289857343,-0.08511676165084162
1729143860.308427,-0.6492650056469127,-0.27374206209566976,7.970892825203613,-0.017149044241483745,0.04059654580986706,0.0006968691773574736,0.9990282003643643,0.24804402062994946,-0.34095142136384327,0.10430681544313655
1729143860.316434,-0.34694221383736634,-0.24708461469880813,8.396583101128027,-0.0147053693467359,0.02063535897905286,0.00030354805395725593,0.9996788694029501,0.11008861678492479,-0.4535995387735945,0.28734844171783464
1729143860.324436,0.06908322394367396,0.0033021962686057573,8.5849596201983,0.00019232287830090255,-0.00402340506790284,7.737991206140735e-07,0.9999918875785799,-0.002908619885894234,-0.5624803451812622,0.44825622485809724
1729143860.332424,0.4829407204990169,-0.32650315001227403,8.526560692773277,-0.019127769850544547,-0.028259944841771596,-0.0005408648092831498,0.9994174360112709,-0.11880993883359524,-0.6997504494129463,0.6495206498619146
1729143860.340357,0.6929479918697226,-0.5071481058276769,8.970840508681544,-0.02821092508930465,-0.03845966180445568,-0.0010862195589608037,0.9988612607597526,-0.2130407537670137,-0.6859065580615376,0.8396667848825161
1729143860.348322,1.0729771508347243,-0.9507233117387935,7.897613149203067,-0.05972654973160519,-0.06686858623696641,-0.004010012414967683,0.9959644829170663,-0.27128200297291283,-0.5890566904665897,0.9771674192752887
1729143860.356356,0.46446058615513136,-0.1322950832346824,9.59807899914098,-0.006889162876128376,-0.024171416386710765,-0.00016657344877588098,0.999684077255416,-0.2785568985014203,-0.4960401848697344,1.0162474136418251
1729143860.364318,0.8209630277184695,-0.24601348548768448,10.69928252521701,-0.011485690785448923,-0.038268347402750376,-0.00043988970518850346,0.9992013906071642,-0.28803011655606914,-0.4687515156295773,0.957962918461037
1729143860.372371,1.4030927079885034,-0.6271666838219075,10.06186850072591,-0.031042854285114448,-0.06905552050739494,-0.002149856134652302,0.9971274012902696,-0.3660813578374038,-0.3846935943130201,0.8659497531166518
1729143860.381184,1.4993034006720083,0.7343701398533399,10.736699539156248,0.034054199272166935,-0.0691176246648078,0.0023607702632941867,0.9970243187788301,-0.4303653951261479,-0.02563354696311279,0.9154616090296804
1729143860.388431,1.00492691345008,1.400218109302629,12.916659273054295,0.05392315307675633,-0.03853118990534099,0.0020823059262597716,0.9977992307918305,-0.45871925602430563,0.2962249968123395,0.9958258398914794
1729143860.396411,0.7224268109118449,1.2926349793511087,12.063389274770076,0.05332325048955414,-0.02969067715857393,0.001586162322763792,0.9981345494151475,-0.48935365452998525,0.5127530764580226,0.9699743077141653
1729143860.404433,0.49163518688890384,2.187920546936837,11.304824504803452,0.09541944360598593,-0.021236372353638875,0.0020361188547023345,0.995208521110622,-0.5328500072596529,0.6745966788550848,0.8654941655622121
1729143860.412444,0.32227501105912354,2.468912309851555,10.964367902344963,0.11050294895835135,-0.014245263881649366,0.0015840081742407206,0.993772439568815,-0.5925773337529541,0.9113291804528685,0.6363612662393859
1729143860.420439,-0.31659994697780713,2.2122971527566357,10.31070228925854,0.10547035024965566,0.014922535842985465,-0.0015828929835841035,0.9943092162863785,-0.7029094904047902,1.0520916112271526,0.3784112392519353
1729143860.428455,-0.777497055589028,1.7585740106481222,9.656337839619576,0.08987607571129846,0.039353944088757566,-0.003554148888225786,0.9951687927809414,-0.798481398636772,1.110581975942539,0.19554567900297082
1729143860.436411,-1.1648868576209948,1.5907273177658265,9.309448421545184,0.08435246763831701,0.06110313245397246,-0.005182458711862341,0.9945472389632073,-0.89541371929193,1.0758630246919978,-0.03890084515478312
1729143860.444355,-1.336029176340175,1.694962964145824,9.363001012155626,0.08919821230508994,0.06941344525482497,-0.006231607924344973,0.9935726544154225,-0.9608098427298795,0.9984148757672229,-0.26811229243353807
1729143860.452335,-1.6453341708431677,1.4524830604699162,8.877027327264079,0.08065914162543321,0.09003746803383378,-0.007316193318076927,0.9926398292118028,-0.9715262826746931,0.8565914126448628,-0.5346232494237866
1729143860.460326,-1.92357277179301,1.636916107033903,8.824384442012743,0.0910477964557526,0.10492808479081941,-0.009647474059801896,0.9902561900977686,-0.9247448889588272,0.7314824689940158,-0.7554035024070062
1729143860.468425,-2.028745529530884,1.500973163976201,9.322396118088506,0.07926946598153685,0.10528460467251295,-0.008419593564071516,0.9912419554408352,-0.8711346490415859,0.66109969347959,-0.888723034319862
1729143860.476437,-2.340367316497827,1.7689608405243926,8.903660886185135,0.09709422222333856,0.12522184748017445,-0.012314845804611965,0.9872894942707056,-0.8032105399284304,0.6903859584965557,-0.8920905424044098
1729143860.484529,-2.550564144781509,2.0434780253107294,8.492247655978659,0.11655862034653354,0.14059103572332116,-0.016669793754017614,0.9830413860430063,-0.7722469458741638,0.7620203553124132,-0.8315346082202199
1729143860.492425,-2.9797881719274986,1.6560854333505002,9.572984538411413,0.08456006335746825,0.14771137355984168,-0.012676478934203143,0.985327484995662,-0.7787845030678637,0.903335397599657,-0.7245364975070085
1729143860.500383,-2.5674249637033744,1.562513574463425,10.169472491845676,0.07556160268584991,0.1216123972168326,-0.00928529512075605,0.9896538042857419,-0.7805785870767734,0.94342696651849,-0.6650202217551642
1729143860.508446,-2.5115431715813994,1.5573669544925084,10.34253289574217,0.07411929180945029,0.11723321463113597,-0.008774391550114256,0.9902957709804888,-0.7854862480352776,0.9300211824611311,-0.5718422980066833
1729143860.516435,-2.3681202401070425,1.4635387395900359,10.183006955462883,0.07083779773058141,0.11259641211854379,-0.008047870005026856,0.9910798586285036,-0.7714032421518988,0.9100583903057787,-0.32990898689868703
1729143860.524438,-2.6737578728239915,1.5784272293497246,10.46581467376601,0.07417943574942319,0.12306016301868236,-0.009224654651358376,0.9895799681361157,-0.7701901696667262,0.8848843231072444,-0.12940929224382514
1729143860.532423,-2.836071477844785,1.2915819565063191,10.88377801690609,0.05853258420583436,0.12604620113340176,-0.007450316084195876,0.9902680367235279,-0.7975578702321166,0.7999667127083505,0.07517715671857426
1729143860.540356,-2.9265164560428083,0.9614574832299633,10.958342780602637,0.043358219553883574,0.12951698104883982,-0.005668841504979593,0.9906125784852033,-0.8114243502025786,0.6689864149141523,0.347771927730649
1729143860.548323,-2.7375325542897473,0.785648874703603,10.937480513332284,0.035567237817501623,0.12193950080447047,-0.00437251043528762,0.9918904228240553,-0.8120818170785393,0.5457007797841201,0.593486972200066
1729143860.556337,-2.423029273784786,0.8999514219901306,9.941664531143902,0.04479057499144702,0.11866136218686925,-0.005358261335259825,0.9919095596632564,-0.7724614314266848,0.3844629361063843,0.8669202570744775
1729143860.564376,-2.2202015156868873,0.7827429015339221,9.335076975522277,0.041520373574528424,0.11599061318104158,-0.004853000843212887,0.9923702356554903,-0.7159110653029956,0.2540907150442423,1.0973878775872015
1729143860.572396,-2.1178978942754134,0.7713151501000408,8.608163470469616,0.044331787044854444,0.119749618711288,-0.005352609144727405,0.9917994106931374,-0.6181273364094774,0.1000945514667155,1.3259147429247866
1729143860.580422,-1.9104694201589978,0.9852038923061183,7.9610862011782535,0.06108703598597921,0.11641496019845603,-0.007173898391388869,0.9912943388612232,-0.5160367128042392,-0.061690626698111733,1.3881094113100199
1729143860.588447,-1.833178108394227,0.912184778010624,7.3834584882850764,0.06095590182885698,0.1202767862642475,-0.007399361048236307,0.990839604665787,-0.4326464554450707,-0.18174899691595778,1.3424166503560637
1729143860.5964,-1.9730722104955205,0.7129896216891869,7.61699692280503,0.04626319756525776,0.12573208673850228,-0.005869786868121543,0.9909675597705218,-0.3276982831009675,-0.3048668264221092,1.1302515071091683
1729143860.604426,-1.6885410362582496,0.47567780621663713,7.757119983517003,0.03043539218374724,0.10671762327356102,-0.003268196481724569,0.9938180692044297,-0.24003935612970773,-0.4170496296573829,0.9314364908354098
1729143860.612487,-1.2764868043721374,0.5030396146381854,7.829941072141452,0.031964776232416246,0.08051017285639755,-0.0025832082863416627,0.9962377688995704,-0.16147690619776792,-0.5575780021700165,0.7657472643717933
1729143860.620424,-1.2157625745666416,0.5704531950524425,8.476014863011432,0.033505785601312794,0.0709734495907721,-0.002385386173984431,0.996912454389665,-0.09688614371866075,-0.7074512951427496,0.486692522556646
1729143860.628395,-0.6933050996716256,0.889107576211153,7.249488378256079,0.06090850645243947,0.04721443472794401,-0.002884350641254482,0.9970218811623104,-0.05387478561657613,-0.8352616863965103,0.17878195718508716
1729143860.636343,-0.43633377391430345,0.7482244346427074,7.144205204688023,0.05212698941841503,0.030288291480229185,-0.0015817165045957776,0.9981797906921779,0.0013046434855548197,-0.9477058863115773,-0.18943679852798376
1729143860.644351,-0.31926110419233206,0.776700868061015,7.588127212168282,0.05096737008562187,0.020886614546696984,-0.0010661549651599094,0.9984813167170046,0.05527111395847294,-1.0198549969367,-0.4384635960123203
1729143860.652345,0.2913538123381164,0.6905966365592653,8.017525549713078,0.042941372398933246,-0.01807719054520904,0.0007771035115298836,0.9989137349284075,0.0927592769797682,-1.097199668228736,-0.6249147098501191
1729143860.660329,0.6110358298833386,0.8637496335468873,8.243321670159878,0.05213995041506145,-0.03673571196239757,0.0019193096803776075,0.9979620379992825,0.10971820399353893,-1.1993718690554838,-0.7372110682142603
1729143860.668389,0.8155343092092999,0.8235104917980541,8.309846334615457,0.049308113101356854,-0.04859824845621044,0.0024020584212739596,0.9975976896247871,0.12415046081642168,-1.2738715814568553,-0.7888383509586498
1729143860.676442,0.8290578011017518,1.0565042650495355,8.168998907947008,0.06418010463421071,-0.05003145278320267,0.003221725877949214,0.9966781769377271,0.1455805167540123,-1.3049493269308932,-0.824071621219904
1729143860.684442,0.9152228703583166,1.1970187894984714,8.95023377225844,0.0663392605321185,-0.05037178554541142,0.003353299126049068,0.9965192126185977,0.1643982111770351,-1.323595974215316,-0.8481914138068907
1729143860.692594,1.3109686904767088,0.8824535075858015,10.209779499194907,0.04300489954169532,-0.06351564879382889,0.002739565631247498,0.9970500668240586,0.1761145178923108,-1.3726703780560905,-0.8239254937660377
1729143860.700508,2.2147225045692283,0.44806924810616844,11.417771628960303,0.01951680717725074,-0.09555975428767852,0.0018739589878030427,0.995230584274718,0.16526531934007094,-1.317828388191073,-0.7604115846733923
1729143860.70848,2.5800432903391934,-0.04384118795270518,12.967848219075401,-0.0016818970504641235,-0.09803778671252186,-0.0001656878714213949,0.9951812579356341,0.22218361936656972,-1.1887172403816433,-0.7103839174968682
1729143860.716402,3.0075313062347657,-0.6636411947052168,12.691216536425708,-0.025935555448339895,-0.11588865842937801,-0.0030270716309720854,0.9929189305519187,0.32572207940078013,-0.9384203867424007,-0.6429065917822949
1729143860.724333,2.522539861621719,-0.1523002063250832,12.619808492412066,-0.006003315658441338,-0.09847495771171039,-0.0005940746007012436,0.9951212438593353,0.37379738339305935,-0.6090267586833398,-0.5436749678717907
1729143860.73232,2.16043720554725,0.16623597483776262,12.86546496605271,0.006436903216448661,-0.08308209275496203,0.0005366580084380718,0.99652177303791,0.44350881168878187,-0.04189160849885981,-0.3555775949639546
1729143860.740346,1.6525195303595999,0.33221856610382944,11.36205680555936,0.01457536451796611,-0.07211382041369116,0.0010539420888958533,0.9972893486148258,0.4491520134419427,0.40906889759195636,-0.14395907696006158
1729143860.748326,1.407145126418885,0.18999375318768824,10.173425970542647,0.009313604727395963,-0.06865297380765299,0.0006409469079886289,0.9975969201743802,0.4482810338792189,0.7290252483760417,-0.02465038726404236
1729143860.756321,1.6537666571501588,0.17911853706886297,9.02522102788223,0.009879408673517338,-0.09046815659871288,0.0008974965548876225,0.9958499407168865,0.5086321249306551,0.9197219886621069,-0.02585817395643824
1729143860.764352,1.453383234036189,0.37155156535655215,8.263274911651212,0.022376723730496626,-0.08683435348177274,0.0019509315420717915,0.9959695131662464,0.56016762177415,0.9975306875480112,-0.027434226094799827
1729143860.77245,0.8792125454021821,0.005298008305728179,7.87625735055518,0.00033578738123885785,-0.0555553616778873,1.868364533619036e-05,0.9984555516829956,0.6196101539982031,1.0293167547283826,0.006101037600607779
1729143860.780489,-0.11627329917470641,-0.5802881395966413,7.724491989678811,-0.03748127190815076,0.007499219578405456,0.0002812858655121635,0.9992691513501876,0.7216833229207118,1.095639991858891,0.04154703803048548
1729143860.789344,-1.4172206738407616,-1.2981921025079848,8.735962637654943,-0.07345234681429728,0.07925498077316409,0.005855853945717692,0.9941273106321363,0.8144282888224074,1.172894659545855,0.04067875509238646
1729143860.796722,-2.088374082771254,-2.2494339211727596,10.155437069897655,-0.10821942059723191,0.09832155868640856,0.010756532003089686,0.9891944829619406,0.927969116722261,1.259262325935464,-0.08244095237153806
1729143860.804642,-2.9256137294479085,-2.6420504088559995,10.930507276118279,-0.11730755454830348,0.12602674296770033,0.015009752251271423,0.9849522349028939,1.0386626196083764,1.2995892941097549,-0.23336267797452048
1729143860.812644,-2.974735143186323,-2.858466688184693,11.552609028756907,-0.12003807639540784,0.12126637925184582,0.014774891460136112,0.9852243541756258,1.1519046281008691,1.291007340281753,-0.4064995852599441
1729143860.820755,-3.665486489964528,-2.7728383063678472,11.913899072039298,-0.1128275687843234,0.14411073363434365,0.016541376837368258,0.9829691851863487,1.237303125716308,1.193909114709153,-0.480157735267394
1729143860.828436,-4.0349263068205135,-2.6446074039867242,11.958290578477486,-0.10717899628467899,0.15752149010703875,0.017200668425262588,0.9815313443367925,1.2766229025646343,1.069668219838978,-0.5358462569313388
1729143860.83637,-3.9278663089946524,-2.271027276864691,11.266425564127507,-0.09789009912578417,0.16310580341835318,0.01626564079313632,0.9816055492477548,1.2286988383480089,0.9184994718537072,-0.6505661716689537
