Time,Accel_x,Accel_y,Accel_z,Orientation_x,Orientation_y,Orientation_z,Orientation_w,Gyro_x,Gyro_y,Gyro_z
1729499506.0331242,-9.783178549096371,0.23082400855694882,-0.26885713123593197,0.7152928047484005,0.07748264672347656,-0.6898537113388908,0.08033990218969565,-0.0017878982606086393,0.01644008291262503,0.0011741810812061198
1729499506.0411668,-9.794003650453917,0.23306537071034114,-0.2752782777649967,0.7154412347654895,0.07797784117201573,-0.6895781972257488,0.08090244615751754,-0.0010727389563651836,0.01624940066950549,0.0007045086487236719
1729499506.049212,-9.793794946620006,0.21908729737737656,-0.2736243018640761,0.7155945327114476,0.07353393437500853,-0.6904410374983546,0.07621285316147489,-0.0006436433738191102,0.0165606813850958,0.0004227051892342031
1729499506.0572097,-9.805880152786456,0.21788305835806654,-0.26928003399930506,0.7154768128316253,0.07316043855390597,-0.6906491811875674,0.07579042852393796,-0.0003861860242914661,0.017173139875912017,0.00025362311354052184
1729499506.0651991,-9.798287226193358,0.21524515361835556,-0.2695465152726299,0.7155239319117571,0.07235348615976374,-0.6907775706892471,0.07494547174266399,-0.00023171161457487965,0.017114924908939715,0.0018549341139724395
1729499506.0731747,-9.798998713889844,0.21892965442687268,-0.2800014711752967,0.7157832929865949,0.07330873430611487,-0.6902910062816972,0.0760160088553968,-0.00013902696874492778,0.017079995928756336,0.003241410775693622
1729499506.0811357,-9.802059228333906,0.22066151457995176,-0.2776553187403342,0.7156876426409673,0.07389696689226408,-0.6902607863105544,0.07661907945853916,-8.341618124695667e-05,0.017059038540646308,0.004073296772726331
1729499506.0891824,-9.794318730359718,0.2085325215409398,-0.27217748445709117,0.7156920132844202,0.07015254307483625,-0.6910754909513961,0.07265141861872612,-5.0049708748174e-05,0.01704646410778029,0.004572428370945957
1729499506.0971498,-9.795899355891612,0.21514149534643887,-0.26242643940472343,0.7153176024637365,0.07248550008468908,-0.6909671356639197,0.07503997145123881,-3.00298252489044e-05,0.01703891944806068,0.004871907329877733
1729499506.1051886,-9.792538168222467,0.21767035863364453,-0.2687862408400997,0.7154719341811767,0.07319019852850217,-0.6906477375568418,0.07582089979695612,-1.8017895149342638e-05,0.01618301252930485,0.0029231443979266395
1729499506.1132238,-9.791239716119026,0.22613086142042108,-0.2639829957247629,0.7152157313927349,0.07602856132666205,-0.6902756939881224,0.07877551472487695,-1.0810737089605582e-05,0.016520848500975415,0.0017538866387559837
1729499506.121175,-9.803868174153838,0.22617933960615888,-0.27905756110673274,0.7156493296107665,0.07562241719660778,-0.6899085726540576,0.0784439189704563,-6.486442253763349e-06,0.017149240145439785,0.0027550922291017165
1729499506.129136,-9.80617800532238,0.2242930651894766,-0.2876234600038834,0.7159303408412561,0.07480800146394827,-0.6897964906819573,0.07764220130025451,-3.891865352258009e-06,0.017100585070656378,0.0016530553374610299
1729499506.137242,-9.798944778046943,0.21813347705313904,-0.2886928565199081,0.7160553298394243,0.07285910131951699,-0.6901022265939052,0.07559915881542459,-2.3351192113548054e-06,0.0166457019643243,0.0009918332024766178
1729499506.1451938,-9.79963266516801,0.2300000349623522,-0.2790394272908511,0.7155946595838248,0.07687318082989988,-0.6896758621249653,0.07976216174596308,-1.4010715268128832e-06,0.016372772100525054,0.002297860167334097
1729499506.1531885,-9.808903943583228,0.22826142356530194,-0.2737262100854482,0.715460022927731,0.07637509539066287,-0.6899355485860329,0.07920062621979457,-8.406429160877299e-07,0.016634704243707537,0.0035071664077106165
1729499506.1612017,-9.805129324157749,0.23631622303566552,-0.27628436374658144,0.7154160763760403,0.07891334164510626,-0.6893808541255997,0.0818935903363195,-5.043857496526379e-07,0.016366173468154995,0.004232750151936528
1729499506.1692083,-9.795203107189963,0.22726273308897743,-0.2718337517928707,0.7154257498355521,0.07619113758974734,-0.6900147678437,0.07899700742827569,-3.0263144979158275e-07,0.016630745064285503,0.0046681003984720745
1729499506.177181,-9.79140215850343,0.22949208443346458,-0.26605092246244116,0.715227375887437,0.07706148297552323,-0.6900225337918198,0.07987635120798325,-1.8157886987494963e-07,0.016363797960501775,0.004503620484931371
1729499506.1851296,-9.78361492547315,0.22532303142179747,-0.2752704936630116,0.7155601895704062,0.0755702539781814,-0.6900153780858428,0.0783679132087168,-1.0894732192496977e-07,0.0170550098211556,0.004404932536806949
1729499506.1931832,-9.782533888145219,0.22521580127495347,-0.2855906397036663,0.7158686729263762,0.07530763399823408,-0.6897476978523055,0.07815955918287797,-6.536839315498186e-08,0.017469736937547897,0.002642959522084169
1729499506.2011702,-9.790743811891037,0.22850334551106583,-0.2786146181971998,0.7156087252780337,0.07646513504476768,-0.689756344441268,0.07933108301007905,-3.9221035892989116e-08,0.01686719308445921,0.0015857757132505014
1729499506.2091765,-9.787768900660012,0.214674141095702,-0.28951247575230427,0.7161353726947488,0.07180167131697988,-0.6902501312725693,0.07449432360685257,-2.3532621535793468e-08,0.016505666772606,0.0026542256737984273
1729499506.2171595,-9.785744533755382,0.21834762674726493,-0.285756123146695,0.7159712408988297,0.07307974162153186,-0.6901424884630933,0.07581476893250585,-1.411957292147608e-08,0.017140131108418135,0.0032952956501271827
1729499506.2251775,-9.793388459755183,0.22366418029640586,-0.28326289141731387,0.7158160900866707,0.0747916195015514,-0.6899217179750169,0.07759872351893288,-8.471743752885648e-09,0.017095119648443388,0.0019771773900763095
1729499506.2331784,-9.790792210374594,0.227093532591906,-0.29637158250663836,0.7161603480316524,0.07559917119189173,-0.6893700340925226,0.07853710790165154,-5.083046251731388e-09,0.016216732649534476,0.0011863064340457857
1729499506.2411742,-9.792825763236475,0.23561548845162797,-0.29873013334187365,0.7160975589595964,0.07823642952428328,-0.6888163439871942,0.08133505642411892,-3.0498277510388327e-09,0.01611539051165116,0.00284023416773763
1729499506.2491581,-9.79165169329345,0.22851823350066425,-0.2934414991945773,0.7160497658564714,0.07611721379456099,-0.6893677477620079,0.07906333490678304,-1.8298966506232994e-09,0.016905965351845232,0.0038325908079527363
1729499506.2571115,-9.793820293319818,0.21947147720977356,-0.28500107505385575,0.7159280728137825,0.0734049415936158,-0.6901157956865638,0.07615049343689262,-1.0979379903739797e-09,0.017380310255961675,0.004002314730619768
1729499506.265106,-9.79081189034736,0.22792979306414538,-0.2727542155889541,0.7154450601178847,0.07641428769543743,-0.6899423383004629,0.07923883144901198,-6.587627942243878e-10,0.017239227136969508,0.0024013888383718606
1729499506.2731884,-9.78709148723576,0.23755376573106535,-0.26349073858188804,0.7150366268428312,0.07973110940243504,-0.6895873031399425,0.08267359805199943,-3.952576765346327e-10,0.016728887204112176,0.0014408333030231162
1729499506.28113,-9.795393732673487,0.2332725023585611,-0.27900162698702347,0.7155463668268272,0.07794782465052777,-0.6894733156634151,0.08089549147681294,-2.371546059207796e-10,0.01642268324439778,0.002567260227661996
1729499506.2891908,-9.796065516947843,0.23980171064365227,-0.2828014962117453,0.715556062372437,0.07993050405611726,-0.6889843644167771,0.08301314180656992,-1.4229276355246776e-10,0.017090340991493206,0.003668806443907356
1729499506.2972252,-9.79072250352808,0.237973151630332,-0.27933533376220343,0.7154858733266803,0.07947013300683284,-0.6891715826611697,0.08250450098105142,-8.537565813148065e-11,0.017916625701212493,0.0039040441121925397
1729499506.3051846,-9.790150317302395,0.23400297423015232,-0.2746220144663064,0.7154097126141518,0.0783192787995461,-0.6895303103044675,0.08125875237216221,-5.122539487888839e-11,0.01756101640412,0.002342426467315524
1729499506.3131938,-9.79387714838925,0.23880347277051325,-0.28520155218564325,0.7156434052942207,0.07957110240672863,-0.6889788308932597,0.08265063037646302,-3.073523692733303e-11,0.017347650825864504,0.0014054558803893143
1729499506.3211346,-9.793479625215191,0.23210696525410482,-0.28053594718052655,0.715610050014473,0.07755340140266483,-0.6894991205918817,0.08049030346683071,-1.8441142156399817e-11,0.01764532154037324,0.0008432735282335886
1729499506.3291168,-9.783424884504113,0.23958122871300977,-0.2877922311501128,0.7157123945515449,0.07982856676906985,-0.6888422981687986,0.08294248890899016,-1.106468529383989e-11,0.017823923969078483,0.0005059641169401531
1729499506.337171,-9.788405367714187,0.22778521549929023,-0.2883152788756146,0.7159087715514864,0.07602633836129241,-0.6895390381407055,0.07893377965742396,-6.6388111763039334e-12,0.017931085426301625,0.00030357847016409184
1729499506.345148,-9.784211052659762,0.21496152358668352,-0.27306679671990003,0.7156393332160349,0.07227812905678477,-0.6906718190875842,0.07489095494388587,-3.98328670578236e-12,0.017144002177711448,0.002310597389408613
1729499506.3531964,-9.78696170727945,0.21444991341958822,-0.28259248037569,0.715929685757123,0.07188812756824506,-0.6904494259854329,0.07454107809003739,-2.389972023469416e-12,0.01667175222855734,0.003089118679493294
1729499506.361163,-9.787893839553217,0.2194101909716748,-0.2832800670828359,0.7158805896261811,0.07346273827032869,-0.690153298932317,0.07620125625694395,-1.4339832140816495e-12,0.01681409232052691,0.004407611576468166
1729499506.3691914,-9.790129060079586,0.22813244148730175,-0.2846502997711859,0.7157933074600564,0.07621123976195628,-0.6896190065085227,0.07910381654216758,-8.603899284489896e-13,0.01647380631424662,0.004773017253191058
1729499506.3771765,-9.795540335217673,0.24198491777324044,-0.29241562419864897,0.7158045974338075,0.08039040616392815,-0.6886057909350438,0.08356569619255348,-5.162339570693938e-13,0.016269634710478445,0.004566570597762761
1729499506.3851774,-9.783464209675525,0.22826974827136612,-0.2846249702223144,0.7157939412461007,0.07630087235389531,-0.689597466927095,0.07919939495439648,-3.0974037424163625e-13,0.01657282180967957,0.004442702604505783
1729499506.3932004,-9.776697374682268,0.21932238607219467,-0.28713318281698236,0.7160039586498821,0.07342080015968913,-0.6900316430729716,0.07618430848687907,-1.8584422454498173e-13,0.01675473406920025,0.0026656215627034697
1729499506.401194,-9.781735239994907,0.22879801904566058,-0.27403348024683005,0.7154741189440352,0.07672578159656096,-0.6898387034868034,0.07957702389068992,-1.1150653472698903e-13,0.016863881424912654,0.0015993729376220817
1729499506.4091797,-9.779011875198115,0.23041325600747448,-0.26784959986684803,0.7152715118493322,0.07740257827200663,-0.6898952803620322,0.08024965637190834,-6.690392083619342e-14,0.0169293698383401,0.000959623762573249
1729499506.417112,-9.772589452999728,0.23066413768651595,-0.26916709512518694,0.7153089245564612,0.07749790681165844,-0.6898329468547745,0.08035995472465389,-4.0142352501716046e-14,0.016968662886396563,0.0005757742575439493
1729499506.4251175,-9.773763823167025,0.2262656835396439,-0.28144976024894025,0.7157342842123519,0.07579852871340181,-0.6897775421567406,0.07865087274863505,-2.4085411501029628e-14,0.016992238715230444,0.002048224800374496
1729499506.4331841,-9.772553083939277,0.22410545138355195,-0.29169240131537977,0.7160740631490851,0.07487674304668296,-0.6896278956676101,0.07774815080080659,-1.4451246900617776e-14,0.017432074273992803,0.002931695126072824
1729499506.4411588,-9.7821217075413,0.2352591607227093,-0.28658523815250914,0.7157457869539191,0.07849328707638534,-0.6891302278379572,0.08152485155867786,-8.670748140370665e-15,0.01769597560925022,0.0038874673829538526
1729499506.4491827,-9.777328394397827,0.2273467561992506,-0.28663340241298985,0.7158709121584477,0.07600033175746819,-0.6895853843593587,0.07889730271778927,-5.2024488842223995e-15,0.017854316410404667,0.004035240675620438
1729499506.457171,-9.790972397966822,0.23600684278205034,-0.2854652001392001,0.7156966148881396,0.07869647708501679,-0.6891338421031193,0.08172984522350686,-3.1214693305334395e-15,0.017949320891097336,0.0024211444053722627
1729499506.4651883,-9.791976195127749,0.24455477705594894,-0.27662399313039504,0.7153021283166447,0.08161691098427089,-0.6888385650794182,0.08475244141847404,-1.8728815983200638e-15,0.017580633518050906,0.0014526866432233575
1729499506.473162,-9.790902532262196,0.2501623779523193,-0.2854450587200339,0.7154660703751181,0.08318069808553863,-0.6882678276942765,0.08646774525215009,-1.1237289589920383e-15,0.016933731032761017,0.0008716119859340144
1729499506.4811535,-9.788103553048723,0.24538665284561034,-0.28666755525155163,0.7155826530823338,0.08166218596471678,-0.6885271627360676,0.0848710796781378,-6.742373753952229e-16,0.016971279603049116,0.002225727437408535
1729499506.4891524,-9.786424165520641,0.23677513379720994,-0.2806972885220247,0.715546411223491,0.07908666604329394,-0.6891999618417188,0.08210995820673907,-4.0454242523713373e-16,0.016993808745221974,0.0030381967082932474
1729499506.4971263,-9.781346390181524,0.22993228120606032,-0.2792699099784492,0.7156114056244405,0.07697145940247557,-0.6896349581565916,0.0798707397362867,-2.427254551422802e-16,0.01743301629198772,0.003525678270824075
1729499506.5051887,-9.77973624597415,0.22965729230762055,-0.275779861026132,0.7155135897700811,0.07697494042442952,-0.6897382867276879,0.07985146976068364,-1.4563527308536812e-16,0.017270850758585136,0.004243857269804603
1729499506.5131228,-9.778770159449722,0.23188650062871294,-0.2866145206195854,0.7158006545466727,0.07744105925655471,-0.689322580339919,0.080415704469299,-8.738116385122086e-17,0.017173551438543586,0.00467476466919292
1729499506.5211163,-9.783697171353428,0.2267596811389465,-0.2923970558776106,0.7160493408128245,0.07563440346486432,-0.6894801195257496,0.07854898670760686,-5.2428698310732514e-17,0.017115171846518656,0.00493330910882591
1729499506.5291047,-9.779231353349166,0.21985286678883664,-0.28772629138789446,0.7160128050844214,0.07356108212304759,-0.6899908316665935,0.07633532844016033,-3.145721898643951e-17,0.0170801440913037,0.002959985465295546
1729499506.53713,-9.775594181882546,0.223849063823302,-0.2834873116979711,0.7158295577787319,0.07496444111534027,-0.6898679466721576,0.07778555735424712,-1.8874331391863706e-17,0.017059127438174726,0.0017759912791773275
1729499506.5452096,-9.790410710789685,0.22289489971976245,-0.29387261284886074,0.7161478680042851,0.07432052084340128,-0.6896760061187985,0.07717316838452083,-1.1324598835118223e-17,0.01704651744629734,0.002768355013354523
1729499506.5531728,-9.792357443319514,0.22758964490998246,-0.2914846675628321,0.716004621931701,0.07586277144495358,-0.6894749049009293,0.07878183034803858,-6.794759301070934e-18,0.01703895145117091,0.00336377325386084
1729499506.561142,-9.798313886157723,0.22346330720966137,-0.27975683325254297,0.7157121277197166,0.07477387732489375,-0.6900362729022439,0.07755617050820508,-4.0768555806425606e-18,0.017460101915557084,0.0037210241981646304
1729499506.5692,-9.797817609038384,0.2231422860836093,-0.2751143343265258,0.7155796957739713,0.07477816050224946,-0.6901760195509161,0.07753056007010296,-0.0017027602458481287,0.017712792194188788,0.003935374764746905
1729499506.5771573,-9.794646800774592,0.22630155573219682,-0.27855375928732173,0.7156373193675631,0.07573518769344081,-0.6898953283875908,0.07856108669326092,-0.0027244163933570036,0.017438716299905777,0.004489675166158301
1729499506.5852008,-9.796575038472566,0.22340871420103683,-0.27750495210559617,0.7156471114610148,0.0748185897906514,-0.6900951797940033,0.07758887358588608,-0.0033374100818623284,0.017699960824798005,0.004396565345543107
1729499506.5932114,-9.803238644909712,0.22550373193859083,-0.2804669702867952,0.7157011480264933,0.07537843011616906,-0.6899096219801242,0.07819637130982238,-0.002002446049117397,0.017431017478271308,0.0043406994531739905
1729499506.6011813,-9.798617682795436,0.2226905997588576,-0.2832018618595771,0.7158255588957626,0.074446337519427,-0.6899901781831393,0.07723384020176859,-0.0012014676294704381,0.016418271347431228,0.004307179917752521
1729499506.6092794,-9.800154668515152,0.23321314891781456,-0.27813903215480873,0.7155197419496917,0.07791599759595445,-0.6895092653343562,0.08085523617521757,-0.0007208805776822628,0.01623631373038921,0.005138448319423702
1729499506.6172135,-9.796049036460653,0.23761131708506375,-0.2830021998104634,0.7155965061064931,0.07923009446881257,-0.6891117697315206,0.08227515661568056,-0.0004325283466093577,0.01655282922162603,0.005637209360426412
1729499506.6252167,-9.800050001710376,0.22684268868853824,-0.2832864785776843,0.7157667921421748,0.07576362622923048,-0.6897510211678954,0.07862125033948282,-0.0002595170079656146,0.016317048454906093,0.005085085862103973
1729499506.633248,-9.79646507670982,0.22133919231468543,-0.2745984996954387,0.7155905994830457,0.07421936241799665,-0.6902911623338351,0.07693953065599084,-0.00015571020477936877,0.01617557999487413,0.0030510515172623835
1729499506.6412375,-9.794792962041516,0.22737448096498314,-0.2760894770145288,0.715548995023954,0.07613379145193166,-0.6898969991874944,0.0789646251903577,-9.342612286762125e-05,0.01609069891885495,0.00183063091035743
1729499506.649237,-9.792592592410456,0.2250101500047711,-0.2767446432399673,0.7156036804565494,0.07537608808350593,-0.6900137941333735,0.07817148948264054,-5.605567372057275e-05,0.015614080211781414,0.0028011387920625842
1729499506.6571615,-9.794624252956039,0.2255069127567689,-0.2713916589908554,0.7154383265734348,0.07564160722835081,-0.6901284857863165,0.07841569506164753,-3.363340423234365e-05,0.015328108987537292,0.003809133582547709
1729499506.6652184,-9.795124988785341,0.22388960907984257,-0.2732076919277163,0.7155143344017425,0.07507856347466135,-0.6901769260635272,0.07783480777719692,-2.018004253940619e-05,0.016007906375914878,0.0022854801495286255
1729499506.6732435,-9.789679346298547,0.23393255451040554,-0.27932513517616103,0.7155485029466194,0.07819045434881686,-0.6894131712974835,0.08115461799013081,-1.2108025523643715e-05,0.016841474870403463,0.0013712880897171753
1729499506.681213,-9.78593312047444,0.22391717064569647,-0.28467154228733726,0.715858443787467,0.07489013919657962,-0.6898542040854003,0.0777131431290858,-7.264815314186228e-06,0.017767306028558645,0.0008227728538303052
1729499506.6892185,-9.800923636933101,0.21216185634249599,-0.2909918487122461,0.7162073111676798,0.07087752915838229,-0.6903744279500055,0.0735296710387568,-4.358889188511737e-06,0.017471424600527693,0.0026221140196083415
1729499506.6972542,-9.806087224152048,0.20654518875666947,-0.29095330991094137,0.7162788291434888,0.06903829038265898,-0.6906897694711499,0.07159605945694365,-2.6153335131070418e-06,0.01729389574370912,0.003701718719075163
1729499506.7052412,-9.818522762958024,0.22184996115439232,-0.28709946397390856,0.7159433398324211,0.07395763886451368,-0.6899755108185747,0.0767410989876462,-1.569200107864225e-06,0.017187378429617976,0.003923791477293223
1729499506.7132301,-9.808266993956456,0.227202101936776,-0.2852659967437201,0.715816044268414,0.07577748771616707,-0.6896954049609139,0.078647387109472,-9.415200647185349e-07,0.01712346804116329,0.00405703513222406
1729499506.7211683,-9.797564549401217,0.2387930922167531,-0.28105345424740397,0.7155201345213181,0.07964158063954814,-0.6890932826397941,0.08269584964520314,-5.649120388311209e-07,0.017085121808090478,0.004136981325182563
1729499506.7292523,-9.801677569972762,0.22611523277145812,-0.28882099588828614,0.7159417585897108,0.07539225878575394,-0.6896504728941055,0.07826640952280073,-3.3894722329867254e-07,0.017487804129708823,0.005036329163881727
1729499506.737251,-9.79744161766725,0.23478908839334364,-0.28989021838258106,0.7158436556293215,0.07815815164779286,-0.6891061108613346,0.08119071375358222,-2.033683339792035e-07,0.0173037234612178,0.006001627928563257
1729499506.7452595,-9.793702945453866,0.2282618136317093,-0.28526450822681426,0.7158078005548549,0.0762140841034245,-0.6896029144973961,0.07911021657026515,-1.220210003875221e-07,0.017618965121585218,0.006155117125910144
1729499506.7531981,-9.80271248992857,0.21812052445832247,-0.2757853174849167,0.7156671744211068,0.0731169863047006,-0.6904569382282945,0.0757866625616704,-7.321260023251326e-08,0.017808110117805667,0.005395830521394213
1729499506.7611423,-9.792795325988392,0.22017603659882162,-0.2744073660280594,0.7156030927819628,0.0738738264068742,-0.6903557516051843,0.07657550260062182,-4.3927560139507954e-08,0.017495907054075905,0.003237498312836528
1729499506.7691991,-9.811744724889909,0.2254794867053867,-0.292734208435195,0.7160631514718274,0.07503124839727837,-0.6896041581719763,0.07791007572901258,-2.6356536083704772e-08,0.016882895154376017,0.0019424989877019168
1729499506.7772222,-9.81162219626207,0.22147895178885701,-0.2987024903931482,0.7163029944649454,0.07361717674431921,-0.6896697672748678,0.07646007792160414,-1.5813921650222863e-08,0.016515088014556083,0.0028682596384692763
1729499506.7851424,-9.792634485970133,0.22602181565339233,-0.27953854379643583,0.715671529609005,0.07563676050895282,-0.6898816542925407,0.07846429275412828,-0.0017027697342011166,0.015868713669202093,0.004275096151853755
1729499506.7932162,-9.786987943779344,0.23545129862055106,-0.28408132696145527,0.715666340141715,0.07858058380274335,-0.6891940219076733,0.08159890688059741,-0.0027244220863687964,0.01590657912345173,0.004693507998422411
1729499506.801228,-9.789106682283231,0.2320110220922525,-0.28345511453624817,0.7156998073274443,0.07748447468948884,-0.6894197943324554,0.08043810761167863,-0.003337413497669404,0.01635498845746354,0.0028161047990534465
1729499506.8092308,-9.789899085053532,0.2227642511948046,-0.2713477989463583,0.7154782137478821,0.07479312281766136,-0.6902804101362652,0.07752335011744368,-0.0020024480986016425,0.01704972411933266,0.001689662879432068
1729499506.8171637,-9.79109278721376,0.220328650814539,-0.2710265944068775,0.7155021617623735,0.07400827952583641,-0.6904326395033793,0.07669551084250381,-0.0012014688591609854,0.017892255577916166,0.0027165579735073673
1729499506.8251424,-9.798991613490365,0.21288178643598904,-0.282326039651939,0.7159361938998292,0.07131172425066039,-0.6905679947584328,0.07393137942674474,-0.0007208813154965912,0.017972084391604238,0.0016299347841044203
1729499506.8332014,-9.800139606766095,0.21487801229128092,-0.2898239672970227,0.7161346630447962,0.07178122451233265,-0.6902553520011586,0.07447247294794743,-0.00043252878929795474,0.017594291618355046,0.0009779608704626522
1729499506.8411345,-9.797237100241299,0.20530184033375296,-0.28163345508524484,0.7160165358969383,0.0688901452495311,-0.6909983646012778,0.07138437033417394,-0.0002595172735787728,0.01651623583148147,0.0022895367681257175
1729499506.8491297,-9.799565739148685,0.20745700263775177,-0.28294407207458444,0.7160268431596719,0.06954470799741665,-0.6908499763923671,0.07207914804584135,-0.00015571036414726368,0.01672078248228139,0.003076482306723557
1729499506.8571835,-9.781809309211866,0.2147356041705417,-0.2858852237623288,0.7160280652574019,0.07194048101076025,-0.6903336235238259,0.07461812908500709,-9.342621848835821e-05,0.016843510472761336,0.00354864962988226
1729499506.865196,-9.792224425859152,0.2274824709007625,-0.2766365871382566,0.7155647636674758,0.07617341583372886,-0.6898710243883436,0.0790104387224174,-5.605573109301492e-05,0.016491457205587274,0.0038319500237774824
1729499506.873195,-9.795600453855334,0.22986334728655125,-0.26294711951928207,0.7151308539535184,0.0772203618930058,-0.6900878581348815,0.08002265608961252,-3.363343865580895e-05,0.016280225245282838,0.002299170014266489
1729499506.881191,-9.791401146336637,0.23775621760044635,-0.27268995139906926,0.7152957828762501,0.07955285811425876,-0.6893543005788311,0.08254655679539745,-2.018006319348537e-05,0.016153486069100175,0.0013795020085598934
1729499506.8891423,-9.785050839169172,0.24009773812862717,-0.2723107262105353,0.7152512191174498,0.08035308274873063,-0.6892062452504847,0.0833896105729383,-1.2108037916091221e-05,0.01650313262485261,0.0029561515124460944
1729499506.8971815,-9.78124065486869,0.2426997512756138,-0.2763927540856962,0.7153296959187807,0.08111111414145075,-0.6889351435916341,0.08421865128255022,-7.2648227496547325e-06,0.016712920558304072,0.003902141214777815
1729499506.9051898,-9.790686132423167,0.235162992855212,-0.2762083489846208,0.7154380529693107,0.07864884254137718,-0.6894210922651018,0.08161684550616563,-4.358893649792839e-06,0.017264483379836982,0.004044044974714815
1729499506.9131448,-9.787734292979291,0.2378235427834397,-0.2737035042638194,0.7153256667871477,0.07957660173259215,-0.6893166457858544,0.0825791543596435,-2.6153361898757034e-06,0.017595421072756728,0.004554877292139047
1729499506.9211357,-9.794103474957495,0.22409698211537632,-0.28512928639618224,0.7158651231904286,0.0748828105516698,-0.6898487745014452,0.07770687487146406,-1.569201713925422e-06,0.01694260356558451,0.0044356866211315545
1729499506.9291985,-9.797446143812387,0.2292685750114133,-0.2917453355095843,0.7159842445588109,0.07635754567389191,-0.6893815656265908,0.07930412181241772,-9.415210283552531e-07,0.01612522299981915,0.004364172218527059
1729499506.9372134,-9.789396098152666,0.24123007689161358,-0.2909265616573131,0.7157757008360239,0.08023193855081344,-0.688675710499583,0.08338913536529623,-5.649126170131518e-07,0.016486174783283992,0.004321263576964361
1729499506.9451907,-9.787678532915038,0.25104059984590565,-0.28373153269751283,0.7154027313171629,0.08352447997759434,-0.6882476929278836,0.08681996572137846,-3.389475702078911e-07,0.017128435914824932,0.0025927581461786166
1729499506.9531355,-9.78497205261035,0.2406463423294184,-0.28731538080014835,0.7156804433271158,0.08016723969734621,-0.6887934373848035,0.08329656255835535,-2.0336854212473463e-07,0.017088102532287465,0.0032584151335552963
1729499506.9611254,-9.787897147581834,0.23345210715546355,-0.29545119381212026,0.716035852573244,0.07766421672773534,-0.6890187977474951,0.08070950142561527,-1.2202112527484079e-07,0.017489592564227018,0.003657809325981304
1729499506.9691808,-9.784145540746367,0.22003759974249687,-0.2876434128204753,0.7160048790679381,0.07359008746978747,-0.689992750083905,0.07636437002127458,-7.321267516490447e-08,0.01773048658339075,0.00432313590289894
1729499506.9772232,-9.776866753158757,0.2273117859197169,-0.2831981643915039,0.7157691865188717,0.0760722794382706,-0.6896769769261298,0.07895028454168526,-4.3927605098942684e-08,0.017449332933426955,0.00429664178758749
1729499506.9851487,-9.785907009903065,0.23167629762604888,-0.2836434774923242,0.7157120740386005,0.07739524960396985,-0.6894278318106075,0.08034592173239874,-2.635656305936561e-08,0.016429260620524615,0.002577985072552494
1729499506.9931514,-9.788936962289494,0.23597094581195746,-0.2927692114953945,0.7159151838434031,0.07852242402179976,-0.688942424858579,0.08159665249376376,-1.5813937835619365e-08,0.01581721723278321,0.0015467910435314964
1729499507.0011902,-9.802247101690103,0.2385477347235026,-0.2850765427663773,0.7156398323384899,0.0794341250021881,-0.6890159824934083,0.0825034909826121,-9.48836270137162e-09,0.016301371323062433,0.002630834871967024
1729499507.0091937,-9.794910294705469,0.2503888752091016,-0.28070036169498264,0.7153229398949843,0.08334142642140781,-0.6883800949216453,0.08660336724232089,-0.0017027659388657473,0.017017553838691996,0.0032812611690283405
1729499507.0171883,-9.785480387028358,0.2498321141879609,-0.3008195688236302,0.7159276152491612,0.08272185956595172,-0.687889999517248,0.0860935086853852,-0.0027244198091675746,0.0170215732866077,0.0019687567014170042
1729499507.0251179,-9.782216644082249,0.2645815280342609,-0.2970893621437875,0.7155554110908381,0.0874629908430995,-0.6870464899541716,0.0910922583596095,-0.0016346518855005446,0.017023984955357126,0.002884014266698329
1729499507.0331788,-9.789356364623178,0.2595448067131347,-0.3034703641124444,0.7158328488272276,0.08566490745744286,-0.6872283221623456,0.08923054066927112,-0.0009807911313003267,0.01702543195660678,0.0017304085600189974
1729499507.0411737,-9.787175852465314,0.25197379076616205,-0.28670883101629474,0.7154737419717659,0.08374706082838762,-0.6881143645130158,0.0870768379213078,-0.000588474678780196,0.01660061009589454,0.0010382451360113985
1729499507.0491843,-9.789458847660828,0.2486282820280566,-0.2943690034437612,0.7157546947565107,0.08248116463323654,-0.6881365337692815,0.08579152234782729,-0.00035308480726811757,0.016771407040929227,0.000622947081606839
1729499507.057117,-9.785082560793764,0.23512880881644332,-0.2968103254061005,0.7160516753850016,0.07818265990911925,-0.6888782197150847,0.08126664918675283,-0.00021185088436087053,0.017299575269412074,0.0020765284948122296
1729499507.0651817,-9.784372150001648,0.23780303236017847,-0.28223396746045715,0.7155763776943168,0.07939153678646413,-0.6890940785395597,0.082442601210049,-0.0001271105306165223,0.01719078614503975,0.0033743674041974963
1729499507.0731964,-9.784903584190442,0.22887307918173205,-0.28545916099385243,0.7158089733028795,0.07646443347589117,-0.6895433162732912,0.07937706932811589,-7.626631836991339e-05,0.017551202731878386,0.004153070749828656
1729499507.0812135,-9.790489688356063,0.23716205673755486,-0.2847606552877177,0.7156579369698484,0.07908407542994517,-0.689081565176256,0.0821341755890477,-4.575979102194803e-05,0.01776745268398157,0.004194602695745319
1729499507.0891883,-9.788813527369106,0.2323192164644079,-0.2747647452234119,0.7154398656227803,0.0777873394271803,-0.6896249501433431,0.0806991737398245,-2.745587461316882e-05,0.017471512593781446,0.0042195218632953176
1729499507.0972075,-9.782061746792559,0.23755379794505097,-0.28217472848170333,0.7155796312812913,0.07932991477465982,-0.6891055688069796,0.0823776119852079,-1.647352476790129e-05,0.01644256841673731,0.004234473363825317
1729499507.105244,-9.781123140604832,0.2394974460033587,-0.2794381134562095,0.7154692463248583,0.08002061651713291,-0.6890550209264418,0.08308812569566257,-9.884114860740774e-06,0.015825201910510827,0.00254068401829519
1729499507.1131823,-9.782954178552352,0.23491755085396834,-0.28306338809325693,0.7156465375877825,0.07846294737310022,-0.6892433941339701,0.08146866128045502,-5.930468916444464e-06,0.015880472068236968,0.0032271706568252406
1729499507.121205,-9.781419179494693,0.2312119331002716,-0.2849991327094698,0.7157616147289609,0.07724590096720908,-0.6894103186990453,0.08019846716512391,-3.5582813498666785e-06,0.016339324224334685,0.0036390626399432704
1729499507.1291955,-9.780977020392127,0.22587610028985045,-0.2880759408073225,0.7159341552766098,0.07547167716213918,-0.6896402808972284,0.07834918135304973,-2.134968809920007e-06,0.017040325579455347,0.0021834375839659623
1729499507.1371481,-9.774965640946213,0.22147749977351963,-0.28968260550001845,0.7160507299841925,0.07406551659388354,-0.6898370225091977,0.07687999555431155,-1.2809812859520041e-06,0.017035236331065712,0.0013100625503795773
1729499507.1451426,-9.783329821579448,0.23248528892661177,-0.27939385651290166,0.7155755919038569,0.07777096957592626,-0.6894842304619404,0.08071396723598047,-7.685887715712025e-07,0.0166064927205699,0.002488797776075873
1729499507.1532228,-9.79481267444181,0.22185171046534205,-0.278727270938991,0.7157064247903062,0.07430324933145332,-0.6901491847529969,0.0770548080098797,-4.6115326294272146e-07,0.016349246554272414,0.00319603891149365
1729499507.1611857,-9.79595630217485,0.2257666305272521,-0.283833983413004,0.71580104738529,0.07543445804527611,-0.6897904837846655,0.0782789344693345,-2.7669195776563285e-07,0.016194898854493923,0.0036203835927443163
1729499507.1692266,-9.785150310845925,0.228833843062445,-0.28522206973530234,0.7158023764219498,0.07645577079195688,-0.6895523641032911,0.07936630381250753,-1.660151746593797e-07,0.016102290234626827,0.0021722301556465896
1729499507.1772285,-9.799017430159898,0.22229446477301387,-0.2807876778763377,0.7157591232837721,0.07437121581889494,-0.6900778089406873,0.07713894801775284,-9.960910479562781e-08,0.01604672506270657,0.0030060983392360798
1729499507.1851997,-9.782677424648673,0.22555344277982395,-0.28842210989963074,0.7159484266407045,0.07534901113922497,-0.6896533248095563,0.0782219182209524,-5.976546287737669e-08,0.016013385959554417,0.0035064192493897742
1729499507.193185,-9.786041530472797,0.22990303124406625,-0.2819894414768878,0.7156898765201075,0.07686679299295135,-0.6895759676448894,0.07977770132202738,-3.585927772642601e-08,0.015993382497663123,0.0038066117954819907
1729499507.201214,-9.78111680915282,0.23323104482065848,-0.2824394034115233,0.7156550369619666,0.07795277516697979,-0.6893563013554513,0.08092665009911515,-2.1515566635855606e-08,0.01640707048199038,0.002283967077289194
1729499507.2091074,-9.784147480511223,0.23427017230255137,-0.2846247419004296,0.7157021271962274,0.07821120934539402,-0.6892444009837474,0.08121346915432963,-1.2909339981513363e-08,0.016655283272586734,0.0013703802463735165
1729499507.2171977,-9.782853421168062,0.22435916148699955,-0.28665420549182025,0.7159129755550606,0.07500661747299205,-0.6897695814881621,0.07784949081917658,-7.745603988908017e-09,0.016804210946944544,0.0008222281478241099
1729499507.2251716,-9.776091481411775,0.22296153815196534,-0.289547824808764,0.7160242717332321,0.07453690112864,-0.6897583358316733,0.07737525967487649,-4.64736239334481e-09,0.01689356755155923,0.0021960971345425925
1729499507.2331755,-9.789990830009176,0.23385455228571048,-0.2802706687622115,0.7155773148865788,0.07814121709813888,-0.6893942160467942,0.08110900992714454,-2.788417436006886e-09,0.016947181514328044,0.0030204185265736818
1729499507.2411945,-9.785880590534802,0.23009529362728562,-0.2744649549682644,0.715465634573401,0.0771030374397471,-0.6897592308143434,0.0799765644951746,-1.6730504616041316e-09,0.016553659830527298,0.0035150113617923354
1729499507.2491558,-9.783414446850177,0.23789538540488697,-0.27385456868408364,0.7153308121472599,0.07962659960854387,-0.6892989897299047,0.08263374967200138,-0.0017027612496784033,0.016317546820246852,0.0021090068170754013
1729499507.257154,-9.790793306781982,0.24401196146754153,-0.27899500073193456,0.7153800246956067,0.08139593911570564,-0.6888104586310884,0.08453563415752632,-0.002724416995655168,0.016175879014078583,0.0012654040902452407
1729499507.265201,-9.790432219420751,0.2378656802984937,-0.2811215792965826,0.715539953010915,0.07939541873895939,-0.6891320165748686,0.08243789698832679,-0.0016346501973931009,0.016090878330377624,0.0024620026999952705
1729499507.2732003,-9.803144255968856,0.24303645773964308,-0.27353898029279333,0.7152328751069857,0.08112843432890998,-0.6890342974503777,0.08421311326984186,-0.0009807901184358606,0.016465567981619078,0.003179961865845289
1729499507.2812324,-9.798561049430923,0.23775921839378583,-0.25845493358583227,0.7148863635156918,0.07982848701921866,-0.6897237559990655,0.08274080208744637,-0.0005884740710615163,0.017116071833825984,0.0019079771195071732
1729499507.2891963,-9.792938083515976,0.22597374880970902,-0.25922073236829624,0.7150801671313998,0.07606978524436402,-0.6904101700649563,0.0787879395534856,-0.0003530844426369098,0.017506374145150126,0.00284754651755243
1729499507.2971942,-9.794831547619351,0.22632449220574727,-0.2661445561201965,0.7152738815929478,0.07601885160681962,-0.6902161489069731,0.07877865383062298,-0.00021185066558214588,0.01774055553194461,0.0038369782178416163
1729499507.3052063,-9.797643567243485,0.2243801567492296,-0.26910174954125854,0.7153859956085807,0.07530994844379627,-0.6902603064898005,0.07805125391125493,-0.00012711039934928752,0.017881064364021305,0.0023021869307049696
1729499507.3131356,-9.807231644496479,0.23709992510422528,-0.27183374625795825,0.7152742895296724,0.07925164487068455,-0.6894503063031758,0.08222008672806312,-7.62662396095725e-05,0.01753967960180529,0.003084072404271108
1729499507.3212018,-9.801013482547498,0.24784424827542575,-0.2595865746590718,0.7147623197322945,0.08299853236391684,-0.6890674719434501,0.0860934900315215,-4.57597437657435e-05,0.01733484874447568,0.003553203688410791
1729499507.3291643,-9.808535333180842,0.23370070790080233,-0.2594208766802087,0.7149694519638446,0.07843775262800469,-0.6899708827213304,0.08127965746689382,-2.74558462594461e-05,0.017637640291539945,0.003834682458894601
1729499507.3371692,-9.799880334429991,0.2218627013518095,-0.2703347855296096,0.7154561965998149,0.07445857788917983,-0.6903797541403734,0.07716311294086996,-1.6473507755667657e-05,0.017393625158316474,0.0023008094753367604
1729499507.3451953,-9.790377772191198,0.24253263668022632,-0.27999559299745325,0.7154330875879784,0.08090546319145402,-0.6888756663618855,0.08402451728261545,-9.884104653400594e-06,0.016821526016920357,0.0013804856852020562
1729499507.353197,-9.791619419662375,0.23985112741829204,-0.28100367415784694,0.7155046831506136,0.08002096715905187,-0.6890170912257173,0.08309717927415909,-5.930462792040356e-06,0.016903956593544718,0.0008282914111212337
1729499507.3611484,-9.780393399844298,0.23704512103105335,-0.2720317162134582,0.7152924343957583,0.07941941985599352,-0.6893902865060585,0.08240340962012262,-3.5582776752242133e-06,0.016527724878057305,0.0004969748466727402
1729499507.3692276,-9.785868216420251,0.24493832383933514,-0.2700004237710436,0.7151081127280317,0.08194183060517608,-0.6889645973294588,0.0850512030149013,-2.134966605134528e-06,0.016301985848764855,0.0002981849080036441
1729499507.3771799,-9.790589627361916,0.24704062369813234,-0.27883729527825113,0.7153262731966088,0.08236074832749622,-0.6886258162075423,0.08555416566177007,-1.2809799630807169e-06,0.016166542431189385,0.001881671190650313
1729499507.3851495,-9.784085087452304,0.24854142377942628,-0.27982985519429443,0.7153328987246442,0.08285874582729069,-0.6884925330273901,0.08608893196953002,-7.685879778484301e-07,0.016085276380644106,0.0011290027143901877
1729499507.3931844,-9.783055405498727,0.24249871901374953,-0.2792282903138423,0.715414475813775,0.08096579779742011,-0.688880601465273,0.08408438801568636,-4.61152786709058e-07,0.01646220681177897,0.0006774016286341125
1729499507.4011369,-9.787704839978923,0.23983077681840595,-0.2695299649109616,0.7151742512577155,0.08031422181369746,-0.6892979445703018,0.08332922490689214,-2.766916720254348e-07,0.01753974519338395,0.0021092012230285936
1729499507.409166,-9.787621458674854,0.24062421316135607,-0.26945705365360817,0.7151598716386717,0.08056934965163481,-0.6892505441345214,0.08359799821010905,-1.6601500321526088e-07,0.018186268222346938,0.0029682809796652823
1729499507.4171908,-9.78326186690413,0.22817158600228238,-0.2742017102195086,0.7154875153227096,0.07651068013561198,-0.6898747035538044,0.07935127370793667,-9.960900192915653e-08,0.018574182039724732,0.0017809685877991693
1729499507.4252455,-9.7914200193124,0.23674116082988506,-0.28590705030162705,0.7156979410733563,0.07891620483818673,-0.6890794465143927,0.08196466402489597,-5.976540115749391e-08,0.018381240268689376,0.0027713413985276276
1729499507.433244,-9.798948532583534,0.23996754439832163,-0.2850293888723825,0.715617467343743,0.07990887902067596,-0.6889240669538476,0.08300506886905516,-3.585924069449634e-08,0.018265475206068162,0.003365565084964703
1729499507.4411564,-9.789818691083322,0.23783323171711795,-0.28881235500311697,0.7157674345544156,0.07920395113869179,-0.688935617738293,0.08228868918002472,-2.1515544416697805e-08,0.018196016168495435,0.003722099296826948
1729499507.4491768,-9.79008687016757,0.24253814825878642,-0.28437837003312016,0.7155611561068461,0.0808026227837882,-0.6887642446615374,0.08394631199830294,-1.2909326650018682e-08,0.0181543407459518,0.0022332595780961686
1729499507.457141,-9.777319088653277,0.22955936722675618,-0.28985826469565334,0.7159339675583825,0.07663130603715711,-0.6893711440980989,0.07958406069076109,-7.745595990011209e-09,0.018129335492425618,0.0013399557468577012
1729499507.4651997,-9.78881203302595,0.2267999220938662,-0.285005915848642,0.7158244382319121,0.07578590800742217,-0.6896845244470818,0.07865828955463364,-4.647357594006725e-09,0.017688642278847876,0.002506733693962747
1729499507.4732108,-9.794989539151507,0.2325662801606166,-0.2777849435521539,0.7155215850061033,0.07775360249983952,-0.6895459019991421,0.08068263583225371,-2.788414556404035e-09,0.0169985362892392,0.0032068004622257747
1729499507.481152,-9.785767353861997,0.24081449832097934,-0.28278974664887047,0.7155442732588357,0.08032535189173341,-0.6889000827620997,0.0834320491197838,-0.0017027619188968602,0.017010162756936023,0.0019240802773354648
1729499507.48914,-9.803697218957824,0.23690488307461882,-0.2781311831944004,0.7154614368686903,0.07906742210592538,-0.689295273426059,0.0820688805078204,-0.0027244173971862425,0.01744282869901615,0.0011544481664012788
1729499507.4972024,-9.79793514656024,0.22761592911234943,-0.27773024678187463,0.7155921832181353,0.07615246066533031,-0.6898467199244668,0.07899451285483187,-0.0016346504383117455,0.017276738202802195,0.0006926688998407672
1729499507.5052147,-9.794717323287705,0.20791676694006592,-0.27557432360623413,0.7158014102035893,0.06987956427078108,-0.6910177127029532,0.07238582995764599,-0.0009807902629870473,0.017177083905073824,0.0021183615857525867
1729499507.513154,-9.808109519949186,0.21046247959763328,-0.2814633746813186,0.7159374179502432,0.07049281339001406,-0.690743100647414,0.07306398392570604,-0.0005884741577922284,0.0171172913264368,0.0029737771972996783
1729499507.5211308,-9.802497888483183,0.21773599117654874,-0.2837997044962911,0.7159116602395795,0.07281814761057047,-0.6902638371723679,0.07552381878356522,-0.000353084494675337,0.017507105840716616,0.001784266318379807
1729499507.529185,-9.80032801043366,0.21683285447155423,-0.2808919393969934,0.715838319481876,0.07260634364948323,-0.6903885243018737,0.07528283161184723,-0.00021185069680520222,0.017740994549284506,0.001070559791027884
1729499507.5372162,-9.79112521812543,0.21724865311262,-0.2848933643217898,0.7159577298061298,0.07271096144035331,-0.6902386767031717,0.07542025192431119,-0.0001271104180831213,0.01788132777442524,0.002345096120464857
1729499507.5452135,-9.789434265396743,0.2268355187718689,-0.28466059745049577,0.7158132922722927,0.07580110203572771,-0.6896928725832532,0.07867188217102035,-0.001779026496697999,0.01839121777097171,0.0035355079795890724
1729499507.553141,-9.795362878573982,0.22348967185882446,-0.2778171726792818,0.7156558098765472,0.0748456602142949,-0.6900797656715083,0.07761962347104016,-0.0010674158980187995,0.018271461707437563,0.004675445156525633
1729499507.5611393,-9.79987772714439,0.2245946258692009,-0.2682044539981941,0.7153557695480828,0.07538347966509341,-0.6902755530210355,0.07812243512177783,-0.0006404495388112796,0.017773918007855043,0.004508027339763506
1729499507.5692022,-9.793967510310072,0.21448369080472368,-0.26794348660790085,0.7154890174645755,0.0721695402051132,-0.6908549191993787,0.07474291921097903,-0.0003842697232867678,0.017475391788105532,0.0048332667111682616
1729499507.577141,-9.795688623861825,0.2235006002250217,-0.2701811078338811,0.7154308432629433,0.07501669522103567,-0.6902797548557659,0.07775000953345204,-0.00023056183397206066,0.016870585994793793,0.004602720272549083
1729499507.585133,-9.791454048340531,0.22316466189282552,-0.27343904189759427,0.7155332390049359,0.0748651785963702,-0.6902055498290988,0.07761242102879036,-0.00013833710038323638,0.01650770251880675,0.00276163216352945
1729499507.5931287,-9.801123731494554,0.22248425856147652,-0.28066104598816594,0.7157515348266231,0.0744209516259716,-0.6900746007774311,0.07719007523177504,-8.300226022994182e-05,0.016715662494676556,0.00165697929811767
1729499507.601196,-9.793278591924075,0.22854036104508904,-0.28714902993664954,0.7158599973855564,0.07626186553330104,-0.6895362132935406,0.07917324399907327,-4.980135613796509e-05,0.01684043848019844,0.000994187578870602
1729499507.609226,-9.789768609011867,0.2269067788829128,-0.28864761864558347,0.7159311718991088,0.07572882418446697,-0.6895841142741042,0.07862220825953706,-2.9880813682779055e-05,0.016489614010049537,0.0005965125473223611
1729499507.617195,-9.790296241090715,0.2388553185504508,-0.2902650323689907,0.7157939707199713,0.07948940029779474,-0.6888379064408549,0.08260003251460604,-1.792848820966743e-05,0.016279119327960195,0.002060667774241543
1729499507.6251273,-9.794682963160287,0.23046213155995796,-0.2823769344604569,0.7156886161912346,0.07697724619747714,-0.6895513684484496,0.07989504673632304,-1.0757092925800458e-05,0.01615282251870659,0.0029391609103930523
1729499507.6332302,-9.787259349429375,0.22949636218792788,-0.2848266806958054,0.7157795490745896,0.07666231510639487,-0.6895283899733677,0.07958093986527348,-6.454255755480274e-06,0.01692842455607849,0.0017634965462358313
1729499507.6411963,-9.789030105507235,0.22915632073072545,-0.2882118897651395,0.7158846575419444,0.07646221957216628,-0.6894632225265078,0.07939238538747831,-3.8725534532881644e-06,0.01739378577850163,0.0010580979277414987
1729499507.6491985,-9.78793777765981,0.21530534639351337,-0.2821027295622087,0.7159026254225942,0.07216819641364358,-0.6904167764983069,0.07483219273230911,-2.3235320719728985e-06,0.017673002511955516,0.0023376190024930257
1729499507.6571476,-9.77650847348065,0.2330915598868893,-0.2640720234795127,0.7151242638715112,0.07836429852017038,-0.6898236267643391,0.08123846316471402,-1.394119243183739e-06,0.017414842490565817,0.0031053316473439417
1729499507.665194,-9.781861319439953,0.2358624225043992,-0.2513382385017701,0.7147208583063914,0.07949821060822712,-0.6899802962022603,0.08234877087428953,-8.364715459102434e-07,0.016834256416269962,0.001863198988406365
1729499507.6731932,-9.785073027015535,0.2243568309440458,-0.25997853880418703,0.7151278321902734,0.07558629422272413,-0.6904710553672172,0.07828548685801912,-5.01882927546146e-07,0.01691159483315448,0.002820679638891945
1729499507.6812344,-9.790112513719086,0.22631202215041185,-0.27306358446415285,0.7154778891247592,0.07589324928355229,-0.690028348208285,0.07869233479640272,-3.011297565276876e-07,0.017383687944747227,0.0033951680291832934
1729499507.6891434,-9.79241794524317,0.2238938343839971,-0.28594243534646047,0.7158933151332463,0.07481033655212893,-0.6898353350873904,0.07763623739823763,-1.8067785391661257e-07,0.017666943811702873,0.0037398610633581023
1729499507.6971984,-9.794758884821682,0.21909103939992952,-0.28265641823912624,0.7158626506190361,0.0733292456818927,-0.6902021797353285,0.07605549464051814,-1.0840671234996753e-07,0.01741120727041423,0.0022439166380148613
1729499507.705217,-9.798557650228947,0.21094211875714522,-0.28906451378527265,0.7161667536328646,0.07054251182051732,-0.6904894665250136,0.07316578185885726,-6.504402740998052e-08,0.017257765345641045,0.0013463499828089167
1729499507.7132056,-9.787668800342445,0.22329101832459963,-0.2888392282906948,0.7159916570668026,0.07458216138585362,-0.6897827298589746,0.07741597898398911,-3.902641644598831e-08,0.017591390252239165,0.00080780998968535
1729499507.7211728,-9.798852582695702,0.2213629715904629,-0.2846339141716825,0.7158873003758313,0.07398688796565676,-0.6900284670245922,0.07675954836665516,-2.3415849867592985e-08,0.017365875134736003,0.00048468599381121
1729499507.729242,-9.803886910945547,0.22260034521013713,-0.27851942321004075,0.7156848950981431,0.07448785448950303,-0.6901302331495685,0.07724604685569854,-1.404950992055579e-08,0.01765625612569614,0.000290811596286726
1729499507.7372286,-9.801400844077094,0.22549755087608228,-0.27676608996118074,0.715592868339742,0.07547253029716185,-0.6900031236014388,0.07827153615524811,-8.429705952333473e-09,0.01783048472027222,0.00017448695777203557
1729499507.74521,-9.803500506446257,0.22867239527174307,-0.27739003117397404,0.7155639343880518,0.07646030330553209,-0.6898051393089254,0.07931549410116491,-5.057823571400084e-09,0.017509331815555838,0.00010469217466322134
1729499507.7531552,-9.804520883701738,0.23799932705562396,-0.27991917739579064,0.715496245147556,0.07936736473049276,-0.6891854776760997,0.08239734192224617,-3.03469414284005e-09,0.017316640072726007,0.0017655755506460593
1729499507.7611363,-9.815907017525731,0.22587839384079622,-0.28023956429880253,0.7156825053266467,0.07541841900855438,-0.6899202557045142,0.07823461134461054,-1.8208164857040298e-09,0.01762671508849014,0.003187795637697794
1729499507.76923,-9.797599580388486,0.22459133806229026,-0.2756433931202971,0.7155747315051845,0.0752328156312214,-0.6900774368372927,0.07801255188464234,-1.0924898914224179e-09,0.01738707003648659,0.004041127689928835
1729499507.7772038,-9.796191924746763,0.22956518857956165,-0.274082791243272,0.715457413003015,0.07687117355403147,-0.6898224298296495,0.07972783804529932,-6.554939348534507e-10,0.01724328300528446,0.004553126921267459
1729499507.7851703,-9.794389650697667,0.22728225523758075,-0.2841597577537757,0.7157891731665955,0.0759221197519986,-0.6896905278184248,0.0787950959602646,-3.9329636091207043e-10,0.01715701078656318,0.004860326460070634
1729499507.793132,-9.798575529920553,0.23237683971481407,-0.27464362686906224,0.7154309517205227,0.07774083966171244,-0.6896454824778008,0.08064752734535864,-2.3597781654724225e-10,0.017105247455330413,0.005044646183352539
1729499507.8011377,-9.80084763728827,0.22106838044021657,-0.28234147763510925,0.7158219197184259,0.07393098449818952,-0.6901105232263469,0.07668542569493567,-1.4158668992834534e-10,0.017499879518052784,0.003026787710011523
1729499507.809198,-9.798619599218664,0.22170533002194245,-0.2838477259365343,0.7158590039695607,0.07411594500639283,-0.6900294163302574,0.07689029672489428,-8.49520139570072e-11,0.017736658755686207,0.0018160726260069138
1729499507.817211,-9.78363582691401,0.22112981910691548,-0.27828713043496744,0.7157094531511209,0.07415529722648263,-0.6901794090509757,0.07689833473763451,-0.0025541404197433983,0.017453036236804227,0.0010896435756041483
1729499507.825144,-9.786616571832,0.22365755455008676,-0.27351425213793357,0.7155308650586625,0.07505438610694408,-0.6901648884402104,0.07781289763801272,-0.0036609345591561973,0.017708552786937073,0.0006537861453624889
1729499507.8332214,-9.79175690110701,0.23379332179255208,-0.2670592226694789,0.715193203075416,0.0784143902840489,-0.6897382307609398,0.08130829415180303,-0.002196560735493718,0.017861862717016782,0.00209503193306562
1729499507.8411906,-9.80465732547866,0.23748058047787501,-0.2655804066485623,0.7150902113797698,0.07953491145175315,-0.6895778817278584,0.08247746650399525,-0.001317936441296231,0.017528158613602574,0.0012570191598393718
1729499507.8491697,-9.803778454125087,0.2255671458941469,-0.2728334026805436,0.7154752180931326,0.07556689511808136,-0.6901064787315068,0.07834478074254565,-0.0007907618647777385,0.01732793615155405,0.0024569717417517495
1729499507.8571527,-9.8010963498188,0.2267987909544569,-0.2791005616278574,0.7156429630387655,0.07583836178571376,-0.6898654851895413,0.07867213406889383,-0.0021772173647147696,0.017207802674324934,0.003602633352361208
1729499507.8651435,-9.804514910721359,0.2105389462035335,-0.2751994116837457,0.7157505484350831,0.07067361168933345,-0.6909022360393895,0.07321538951227913,-0.003009090664676988,0.017135722587987463,0.004290030318726883
1729499507.8731856,-9.787891274313674,0.203656081345167,-0.2771682847055599,0.7159078944577256,0.06850784583970465,-0.6911928798716278,0.07095748393421876,-0.0018054543988061927,0.016666784474722952,0.00512815856000832
1729499507.8811612,-9.797549546082346,0.2105396900668658,-0.27404004553036715,0.7157197865045969,0.07074258071329678,-0.6909200037504784,0.073281804680807,-0.0010832726392837155,0.016385421606764244,0.00520534544331515
1729499507.8891697,-9.8026262486455,0.21586695612996323,-0.2834158498279859,0.7159260522286198,0.0722252886105555,-0.6903793885569711,0.07489789904375262,-0.0006499635835702293,0.01664229394745105,0.004825967511837216
1729499507.897202,-9.803278068523237,0.22528824008422793,-0.28209814759210405,0.7157526251943136,0.0752720839113473,-0.6898792999878229,0.07809509817781816,-0.00038997815014213757,0.017222107413325166,0.0028955805071023298
1729499507.9052508,-9.808936404102223,0.22663144746850553,-0.27484318176815303,0.7155162882706583,0.07582806128648348,-0.6900025876680105,0.07863189780466392,-0.00023398689008528254,0.017569995492849638,0.0017373483042613979
1729499507.9131918,-9.788149968682035,0.22911331306118143,-0.2697719417757356,0.7153421368793328,0.07687916797797595,-0.6899432181137545,0.0797093251430485,-0.00014039213405116953,0.01777872834056432,0.002745169228404965
1729499507.9211333,-9.799141283699456,0.2238986677683495,-0.27893962624708196,0.7156812269369371,0.07492633089993844,-0.6900343485934735,0.07771115820198474,-8.423528043070171e-05,0.017903968049193128,0.001647101537042979
1729499507.9292424,-9.79137086274897,0.2313043678973378,-0.27725763194942105,0.7155268226360191,0.07738777351241656,-0.6896269600948673,0.0802941748167705,-5.054116825842103e-05,0.017553421812908383,0.0009882609222257874
1729499507.9372642,-9.7931729546611,0.2369448888048089,-0.2750513345407464,0.7153759283286844,0.07922652758969324,-0.6893479918530145,0.08221790937605251,-3.0324700955052614e-05,0.017768784132599566,0.0005929565533354724
1729499507.9452102,-9.796408991302519,0.23937152068522907,-0.2730092955974947,0.715277887875152,0.08002431061691745,-0.6892584009043828,0.08304522629195255,-1.8194820573031567e-05,0.017898001524414276,0.0003557739320012835
1729499507.9532402,-9.796914092291276,0.23915155865137183,-0.26938987057138747,0.7151769245572789,0.08003516503672688,-0.6893634802634211,0.0830321083523719,-1.091689234381894e-05,0.01754984189804107,0.0019162246050488964
1729499507.9612012,-9.801047875540782,0.23854074109902623,-0.2767950221963481,0.7153983971252803,0.07963793924986806,-0.6892241110529382,0.08266230559270155,-6.550135406291364e-06,0.017340946122217146,0.0011497347630293378
1729499507.9692004,-9.796106120344,0.2386530908996501,-0.26998536536859014,0.7152020258209747,0.07986825906018694,-0.6893774832620123,0.08286017757404725,-3.930081243774818e-06,0.017215608656722795,0.0006898408578176026
1729499507.9771395,-9.792183386561868,0.2186092068347119,-0.2647024704418572,0.7153398345958103,0.07358286975198292,-0.6907002614911149,0.07620781518720424,-2.3580487462648906e-06,0.01671471611596415,0.00254235482200072
1729499507.985183,-9.787435544632434,0.21304722087817088,-0.2744614224506612,0.7157047795045085,0.07160886336283105,-0.6907487168760656,0.07419602021911378,-1.4148292477589344e-06,0.016414180591508964,0.00365386320051059
1729499507.9931965,-9.786023360470868,0.2204839367749494,-0.2760072306676623,0.7156496445784758,0.07398244141745351,-0.6902818971942549,0.07670128409951464,-8.488975486553607e-07,0.016233859276835853,0.0043207682276165124
1729499508.00119,-9.797147058274708,0.22422770581496965,-0.278850076925988,0.7156748664353876,0.07504716435385297,-0.6900135014849642,0.07783814260113961,-5.093385291932164e-07,0.016551356549494016,0.004295221182418034
1729499508.009198,-9.802624176126935,0.24347279902609112,-0.282710566175124,0.7154917055128953,0.08104976112651258,-0.6887772081043684,0.08419330828239908,-3.0560311751592985e-07,0.016741854913088914,0.004279892955298946
1729499508.017202,-9.79824900152577,0.2272471156949515,-0.2895758428789025,0.7159493264681032,0.075758838069499,-0.6895578458914018,0.07865835971998504,-1.833618705095579e-07,0.016856153931245853,0.004270696019027494
1729499508.025205,-9.795863316931086,0.21607518470017403,-0.2810057401023415,0.7158546591036874,0.07238899959645193,-0.6904191170685761,0.07505586295031286,-1.1001712230573473e-07,0.016924733342140015,0.004265177857264622
1729499508.0331411,-9.792995385178182,0.2270891183884638,-0.2739483171082799,0.715491181256237,0.07610298290475807,-0.6899656405261242,0.07891844164026438,-6.601027338344083e-08,0.016965880988676515,0.004687557021668932
1729499508.0412004,-9.780740138821752,0.22675429378698453,-0.2768964682923117,0.715588740033601,0.07601215767013311,-0.6898829312619472,0.07884445558742613,-3.96061640300645e-08,0.017841949699522477,0.004940984520311517
1729499508.0491948,-9.777935974162192,0.22535629819601882,-0.27794709850468385,0.7156415839686072,0.07555875183653815,-0.6899314802312128,0.07837442760094074,-2.3763698418038698e-08,0.017941900864568025,0.00296459071218691
1729499508.0571487,-9.780802458520752,0.21709547569495505,-0.2840841404504666,0.7159413391725633,0.07274674243160655,-0.6902481533888469,0.07545460272689154,-1.4258219050823219e-08,0.018001871563595354,0.003481514673160272
1729499508.0651627,-9.784437710464013,0.21285724269236367,-0.2880057857839518,0.7161168009214179,0.0712717454310701,-0.6903851790076447,0.07392814313822119,-8.554931430493931e-09,0.018037853983011748,0.0042173591112063214
1729499508.0731647,-9.790210164120206,0.2263554540138557,-0.2889222519879492,0.7159474054396754,0.07554331696855,-0.6896096668126617,0.07842848554011501,-5.132958858296359e-09,0.017633753373199553,0.0025304154667237927
1729499508.0811865,-9.790800594321732,0.23852452362901655,-0.28971155187636327,0.7157825981687619,0.07939450234481775,-0.6888731474986561,0.08249588966421482,-3.0797753149778152e-09,0.01781698306877427,0.0015182492800342757
1729499508.089139,-9.800013398585227,0.22691177228287868,-0.2889880309793336,0.7159357929998698,0.07565374702767329,-0.6895965432147158,0.07854335394312482,-1.847865188986689e-09,0.017926920886119097,0.0009109495680205654
1729499508.0971973,-9.817033249112072,0.2232960037994147,-0.2952576830895533,0.7161685942091774,0.0742415355034077,-0.6896718625836669,0.07709384563583821,-1.1087191133920134e-09,0.017567193515063965,0.0022493299866604656
1729499508.1051557,-9.800908941166462,0.22376016453550818,-0.29207628954123194,0.716074860099774,0.07456965110722079,-0.6896970765692686,0.07742160188630176,-6.65231468035208e-10,0.01692566703096885,0.0013495979919962793
1729499508.1131635,-9.800092902541675,0.21805315682677368,-0.2856184702579423,0.7159631792829462,0.07289499340838167,-0.6901921055723804,0.07561681858298386,-3.9913888082112483e-10,0.017392131263435848,0.0008097587951977676
1729499508.1212027,-9.79864559870274,0.2175019941937205,-0.288447543336406,0.7160570357224073,0.07266398858756508,-0.6901436502851733,0.0753923625179755,-2.3948332849267487e-10,0.017246319741454012,0.00048585527711866053
1729499508.1291902,-9.80136851888961,0.2207625991041229,-0.2796104998787967,0.7157446338338272,0.0738905378532549,-0.690201713928035,0.0766250719062642,-1.436899970956049e-10,0.01673314276680288,0.00029151316627119633
1729499508.1371522,-9.797735027349392,0.22631026454059877,-0.27670247546438737,0.7155810623627306,0.07575907695971369,-0.6899496430723217,0.07857350361549388,-8.621399825736294e-11,0.0164252365820122,0.0018776681456108442
1729499508.1452155,-9.78621754595065,0.2207803176599061,-0.2761547616458199,0.71564975085683,0.07407323779228425,-0.6902613274588939,0.0767977171288997,-5.1728398954417765e-11,0.016240492871137793,0.0032550511946766647
1729499508.1531591,-9.795827048566483,0.2258420553420374,-0.2837269988331951,0.7157968218159773,0.0754619114765055,-0.6897886613128694,0.0783071677348743,-0.0017027602768851658,0.01655533670607518,0.004081481024116157
1729499508.161165,-9.787945800673093,0.22480895512905055,-0.2856367193194483,0.7158731549486584,0.07514012360377105,-0.6897813676917247,0.0779823866908272,-0.002724416411979226,0.016318552945575583,0.00415164886031782
1729499508.1692157,-9.784653572933152,0.22730155715946157,-0.28821907260729396,0.7159151553427344,0.07589937104267734,-0.6895616902558063,0.07880007079609751,-0.0016346498471875354,0.016176482689275823,0.004193749562038818
1729499508.1771364,-9.790818521933721,0.21586842941286444,-0.2744455939550014,0.7156645039159059,0.07249817717744683,-0.6905967348624535,0.07512976732338414,-0.0009807899083125213,0.016091240535495967,0.004219009983071417
1729499508.1851969,-9.78254648303328,0.21236043508912492,-0.275040052906204,0.7157338943073602,0.07140588674154502,-0.6907619495385797,0.07398730261291252,-0.0005884739449875128,0.016040095243228053,0.004234166235690976
1729499508.1931932,-9.79697629314028,0.22390258795777182,-0.27970629126520674,0.7157050039076507,0.07492476435015177,-0.6900094333313349,0.07771492123391814,-0.002055844612840634,0.01686078819079137,0.002540499741414586
1729499508.2011383,-9.806591859868544,0.23370092167114748,-0.28346371494467093,0.7156656505716005,0.07790219103525553,-0.6893570331846405,0.08087524975358655,-0.0012335067677043804,0.01735320395932936,0.0015242998448487515
1729499508.2091916,-9.797277729446517,0.23024253542456347,-0.28404222799024004,0.7157399205667915,0.07685058121633431,-0.6895264706780988,0.07977217878408273,-0.0007401040606226282,0.017648653420452153,0.002617340152757377
1729499508.217249,-9.802941998996035,0.2315193860008318,-0.27864325183320654,0.7155587136140644,0.07734471983368832,-0.689603161349793,0.08025585051075672,-0.0004440624363735769,0.017400233035663796,0.0032731643375025527
1729499508.225226,-9.80059447674137,0.23755273999893659,-0.2720519838147677,0.7152765220818376,0.07943775266941822,-0.6894028084207393,0.08241910064384553,-0.00026643746182414616,0.01725118080479078,0.003666658848349658
1729499508.2332697,-9.79703118189443,0.21938551729037756,-0.27384330698807935,0.7155952120969362,0.07360381103880351,-0.6904246819141443,0.07628715506727075,-0.00015986247709448768,0.017161749466266973,0.002199995309009795
1729499508.241194,-9.790104801665954,0.2230898137921953,-0.28162186554050384,0.7157772345422102,0.07466665789387951,-0.6899914844308845,0.07745703404422788,-9.591748625669261e-05,0.01710809066315269,0.003022757431254003
1729499508.2491798,-9.791934477679261,0.2157355850526609,-0.28245827801570855,0.715905121504829,0.07227309783848146,-0.6903910853445687,0.07494401649720768,-5.755049175401556e-05,0.017075895381284116,0.0018136544587524018
1729499508.2571664,-9.784173737144664,0.22664593843394032,-0.2915792514773939,0.716026161426906,0.07561419011936038,-0.6895094696034223,0.07852210982934,-3.4530295052409334e-05,0.017056578212162974,0.0010881926752514411
1729499508.2652178,-9.791727721290705,0.2288825874744267,-0.28196836509542067,0.7157016847019646,0.0765023873935576,-0.6896486967392611,0.07939243240822393,-2.0718177031445598e-05,0.01661929784922826,0.002355675850998991
1729499508.273227,-9.793387069786142,0.22663327440848413,-0.28577863990686175,0.7158475533943491,0.07568393723812823,-0.6896834903765549,0.07855510833467287,-1.2430906218867359e-05,0.015931239570005397,0.0031161657564475207
1729499508.2811964,-9.796298040211529,0.22791730839509047,-0.27657263682497646,0.7155545207077095,0.07628639731677525,-0.6898556604935782,0.07912825768432055,-0.0017102187895794469,0.01509271454100965,0.003572459699716639
1729499508.2892115,-9.799481143462854,0.22461758596478867,-0.27416149713404836,0.7155298330815141,0.07526170569215573,-0.6901185332377627,0.07803296552359781,-0.001026131273747668,0.015015289585074233,0.002143475819829983
1729499508.297212,-9.796842022259353,0.2257502146648107,-0.267926409999179,0.715332791931677,0.07578142547518935,-0.6902084087530787,0.07853995688007143,-0.0006156787642486007,0.016245904795899078,0.0034145357992081482
1729499508.3052306,-9.80028637302358,0.22882399354498018,-0.2718468030307574,0.7154010937911962,0.07665639990056863,-0.6899326249358981,0.07948612712735155,-0.0020721675043972867,0.016984273922393985,0.004177171786835047
1729499508.3132029,-9.796846319663757,0.22587985755276935,-0.27012889602743884,0.7153950679554794,0.07577431198591346,-0.6901438660645453,0.07854676646125901,-0.001243300502638372,0.016150225213904832,0.004209063317949155
1729499508.3211448,-9.798373590138098,0.22914119944377098,-0.26909815182544766,0.7153174791235855,0.07683285638587915,-0.6899802979933678,0.07965428187391495,-0.0007459803015830232,0.016075486050273372,0.0025254379907694927
1729499508.329245,-9.799050532256686,0.21769047528149693,-0.2675220246401905,0.7154312700325797,0.07318086151022303,-0.6906929292166589,0.07580195840677849,-0.0004475881809498139,0.016882022675018562,0.0015152627944616955
1729499508.3372295,-9.78676742872901,0.21465076344038253,-0.26346388617083305,0.7153588991055089,0.07236473396805594,-0.6909499356860868,0.07492113936453171,-0.00026855290856988835,0.01694025458840364,0.0009091576766770172
1729499508.3452137,-9.788974373253032,0.21354519683376075,-0.2720423307259373,0.7156253294931735,0.07181155313469789,-0.6907887531950747,0.0743934612944146,-0.000161131745141933,0.01697519373643469,0.0005454946060062103
1729499508.3532,-9.79101680046549,0.21671257952603767,-0.2738375151347811,0.7156348690557683,0.07278230652649122,-0.6905654306123665,0.07542450590739085,-9.66790470851598e-05,0.01742184728671535,0.0020300570094518525
1729499508.361224,-9.80181906343359,0.225556193955857,-0.26773202079961866,0.7153275597260289,0.07568957914365479,-0.6902351447988401,0.07844115495060737,-5.8007428251095876e-05,0.01768983941688375,0.0033464845129812697
1729499508.369209,-9.8044696985582,0.22990468194968605,-0.2786733543254743,0.7155829549335219,0.07681807210515963,-0.689701246693072,0.07970074476865323,-3.480445695065752e-05,0.017424944633522753,0.003710650953636888
1729499508.3771412,-9.817791667767732,0.2248523294334835,-0.2797314906226283,0.7156813587847538,0.07508920581487902,-0.6899969831668523,0.07788431856761538,-2.0882674170394512e-05,0.017266007763506157,0.003929150818030259
1729499508.385148,-9.821235866139155,0.2383409093788401,-0.2818028933970145,0.7155382819794008,0.07931363094728805,-0.6891536548738193,0.082350196975973,-1.2529604502236707e-05,0.0171706456414962,0.0023574904908181555
1729499508.3931963,-9.80295167105068,0.2301534860569915,-0.2840034157257087,0.715737247104152,0.07678441099596231,-0.6895448400629477,0.079701072002434,-7.517762701342024e-06,0.017113428368290225,0.00311725454033902
1729499508.4012256,-9.80538868329447,0.21734016658536678,-0.27478924181823766,0.7156469349884728,0.07287003352155622,-0.6905332142097069,0.07552021404486978,-4.510657620805214e-06,0.01707909800436664,0.003573112970051538
1729499508.4091892,-9.797992344498168,0.20869449423832942,-0.2702184181378176,0.7156295209072417,0.07022253455970062,-0.6911267073370981,0.07271216439815521,-2.7063945724831284e-06,0.01705849978601249,0.002143867782030923
1729499508.4172542,-9.789723818564134,0.21595693946291952,-0.2737008482459718,0.7156417702747528,0.07254995684493316,-0.6906094262495105,0.07517965665749078,-1.623836743489877e-06,0.017471830916462032,0.0012863206692185537
1729499508.4252,-9.788354005493948,0.21385006211525173,-0.27267784415266116,0.715640474844139,0.07190052745916575,-0.6907532921611236,0.07449103492715482,-9.743020460939262e-07,0.017719829594731756,0.0007717924015311322
1729499508.4332144,-9.793517621802229,0.2288665069957135,-0.27134578119862796,0.7153890428893092,0.07672772593824659,-0.6899287706790767,0.0795591903900582,-5.845812276563556e-07,0.017442938740231558,0.0004630754409186793
1729499508.4411924,-9.790869707602821,0.22710246645328744,-0.2722224845883174,0.7154414885272938,0.07616055870207018,-0.6900051291362435,0.07896814267611126,-3.5074873659381336e-07,0.017276804227531438,0.0002778452645512076
1729499508.4491956,-9.795745303565598,0.2315507059461912,-0.2705937251279904,0.7153267770355125,0.07758885238478584,-0.6897924330876597,0.08046099239137322,-2.10449241956288e-07,0.017177123519911366,0.002295157466040883
1729499508.45714,-9.78909385450264,0.21746023802083975,-0.2751231332701536,0.7156638047589007,0.0730079575349138,-0.6904847354829783,0.07567025016210613,-1.262695451737728e-07,0.017117315095339324,0.0035055447869346877
1729499508.465176,-9.806890220172287,0.2219346462304726,-0.27712251765740464,0.7156514350807092,0.07428550099029504,-0.690211609357237,0.07702351665585855,-7.576172710426368e-08,0.01750712010205813,0.004231777179470971
1729499508.4731333,-9.7964990649647,0.22198566933008043,-0.27018186264522404,0.7154516712930433,0.07452407085776573,-0.6903697168251984,0.07723161915610197,-4.545703626255821e-08,0.017315313044627384,0.004241826553530709
1729499508.4812312,-9.817558270765927,0.224649905016017,-0.2698481922941657,0.7153944220246047,0.07524581592851784,-0.6902660494730684,0.07798505668509209,-2.7274221757534924e-08,0.017200228810168937,0.0025450959321184252
1729499508.4891908,-9.820856407772057,0.2257696060955477,-0.2864074017046244,0.7158644994598112,0.07520980813891628,-0.6897745962103274,0.07805452962987454,-1.6364533054520954e-08,0.017556868330955898,0.001527057559271055
1729499508.497196,-9.817328626157375,0.21518867894053176,-0.2719220704173059,0.7155848486523527,0.07216114961614603,-0.6907552235169817,0.07475502691639098,-9.818719832712573e-09,0.017345161981966045,0.000916234535562633
1729499508.505218,-9.808987032872158,0.21602272762799093,-0.2761595606097585,0.7157036045371423,0.07239284955095598,-0.6905784677414816,0.07502669976922886,-5.891231899627544e-09,0.0167924481111101,0.0005497407213375798
1729499508.5132198,-9.811882942379544,0.22274808115687267,-0.2724771304088239,0.7155006891788779,0.07461595249815034,-0.690296820879052,0.07734030321649003,-3.534739139776526e-09,0.0160351297271345,0.00032984443280254785
1729499508.52121,-9.808592664597649,0.2114604026492017,-0.28750592424138804,0.716106345686068,0.07068033235541842,-0.6905239063898737,0.07329888805665492,-2.1208434838659155e-09,0.016006428758211174,0.001900666905529655
1729499508.5291333,-9.800393573612105,0.21857416517350542,-0.28670697373428594,0.7159883968238671,0.07303579883867675,-0.6901340473040668,0.07577192391178303,-1.2725060903195493e-09,0.015989208176857176,0.002843160389165919
1729499508.5372393,-9.797628900514917,0.21925112019785326,-0.2852699227659622,0.7159371552076519,0.07330330230653134,-0.6901288559375961,0.07604457815253278,-7.635036541917296e-10,0.01597887582804478,0.0017058962334995514
1729499508.5452197,-9.79956139914684,0.2076862849116807,-0.2810558098607492,0.7159666970440897,0.06965898015243466,-0.6908894961147715,0.07218739063144387,-4.581021925150377e-10,0.016398366480219372,0.0010235377400997308
1729499508.5531857,-9.799523797495917,0.2076905685544303,-0.27780908161957446,0.7158687430099975,0.0697292530154137,-0.6909782961729802,0.07224104285711748,-2.7486131550902264e-10,0.016224370810062096,0.0023168828899079647
1729499508.5611956,-9.788009068536612,0.2158334243846113,-0.27442452367877596,0.7156658523640194,0.07250562075045229,-0.6905936650361861,0.07513795666346842,-1.6491678930541358e-10,0.016119973407967732,0.0035185800412549373
1729499508.5692036,-9.789719357137592,0.21521247406436056,-0.2877166795392968,0.71607225483056,0.072002402499957,-0.6902731780137954,0.07469350447560248,-9.895007358324814e-11,0.01563164490524908,0.003813908270601089
1729499508.5771418,-9.795773353784508,0.21292454254408508,-0.2899458890712343,0.7161680750188638,0.07117848360480392,-0.6903510085777835,0.07384034636384632,-5.937004414994888e-11,0.015338647803617891,0.0022883449623606533
1729499508.585174,-9.798926911440626,0.2204103297744979,-0.29367761645055307,0.7161734566967648,0.07347483414521555,-0.6898394307464653,0.07627967263782004,-3.562202648996933e-11,0.015588539604101209,0.001373006977416392
1729499508.593206,-9.792678760389766,0.22729600377290188,-0.2987896948703318,0.7162294554170718,0.07559329388560625,-0.689297772498763,0.07854681368924285,-2.1373215893981597e-11,0.0157384746843912,0.0025265644322979616
1729499508.6011925,-9.787253928597142,0.22639958468561613,-0.2843792698030585,0.7158125109876361,0.07568284740026436,-0.6897210336193395,0.07854585607168335,-1.2823929536388957e-11,0.016254125794027224,0.001515938659378777
1729499508.6092482,-9.78926627317391,0.22897419539144778,-0.2721417122724601,0.7154126636766279,0.07677346280004546,-0.6898929381027532,0.07961337837796288,-7.694357721833374e-12,0.016563516459808837,0.0009095631956272661
1729499508.617227,-9.783530495105516,0.2247728778305718,-0.2825162700392573,0.7157828868607564,0.07522979727896353,-0.689856818781392,0.07805706924722,-4.616614633100024e-12,0.016323460797815777,0.0005457379173763596
1729499508.625222,-9.776258305608232,0.2299135326065462,-0.28419202154503875,0.7157599837589372,0.07688551407010141,-0.6894968983528762,0.07981409986553532,-2.7699687798600143e-12,0.01617942740061994,0.0003274427504258157
1729499508.6332247,-9.787936143032908,0.22437879949556833,-0.288788774938742,0.7159739805241407,0.07492965670416392,-0.6897222865895934,0.07778157326922752,-1.6619812679160086e-12,0.016518697423764467,0.00019646565025548942
1729499508.6413283,-9.789915022001384,0.22129737979499725,-0.29346218830308896,0.716159214890131,0.07382238592249507,-0.6897765081810486,0.07664595896863116,-0.001702760246845315,0.016722259437651186,0.00011787939015329365
1729499508.6493344,-9.791581189714503,0.21346302382426396,-0.2907595725033377,0.7161878923451533,0.0713601155760598,-0.6902906020798082,0.0740372976510783,-0.001021656148107189,0.016844396645983216,0.0017734878799401026
1729499508.6571922,-9.797129873496669,0.21283255306408963,-0.28267365854106513,0.7159483988266573,0.07130015541967288,-0.690557565401711,0.07392176216201675,-0.0006129936888643134,0.017769059093906497,0.0027668529738121878
1729499508.665239,-9.803092705592142,0.21389079160407876,-0.2751884883375297,0.7157066388715474,0.07176487676304977,-0.6907127784437642,0.07436173231489585,-0.0020705564591667145,0.018323856562660466,0.0033628720301354387
1729499508.6732256,-9.797333018374816,0.21979297838041598,-0.2714156467134553,0.7155178559864032,0.07378592186601991,-0.6904659548985783,0.07646306706506603,-0.002945094121348155,0.018231044982450817,0.002017723218081263
1729499508.6812623,-9.799144449696763,0.22213718961614023,-0.2722644038972138,0.7155093383243686,0.07450945095080443,-0.6903118017887678,0.0772291706596599,-0.001767056472808893,0.018175358034325028,0.0029133941766968843
1729499508.6891391,-9.791851602679385,0.22905038017593413,-0.275886120365672,0.7155198678340019,0.07669507805061736,-0.6897972002293852,0.0795550519660669,-0.001060233883685336,0.01729056574252549,0.0038764868133282886
1729499508.697133,-9.79346139861935,0.23846553816415425,-0.274228427590497,0.7153284493697186,0.079728201081435,-0.6892767614664329,0.08274158311863734,-0.0006361403302112015,0.01761107049036983,0.004454342395307131
1729499508.705198,-9.793469595519266,0.23788970864068001,-0.27850105557773563,0.7154615761156705,0.07944401030124532,-0.6892038618025232,0.08247071726270243,-0.0003816841981267209,0.017803373339076434,0.004801055744494437
1729499508.7131343,-9.805206101793981,0.23299522777229864,-0.2875289768525008,0.71579739790678,0.0775910131265724,-0.6892905204342319,0.0805747992326417,-0.00022901051887603253,0.017067374925376334,0.004583393692544789
1729499508.7211301,-9.80722018207248,0.24107186688798854,-0.29533993127751607,0.7159006592930452,0.07994683704401362,-0.6886121162864328,0.08311499608350799,-0.00013740631132561952,0.016625775877156274,0.0027500362155268732
1729499508.729146,-9.792387479116535,0.23370742189060562,-0.2715355041766659,0.7153234781004677,0.07828039820615135,-0.689631492608145,0.08119670767954783,-8.24437867953717e-05,0.016360816448224236,0.001650021729316124
1729499508.7371702,-9.79761364713789,0.23144353638631648,-0.273054578873187,0.7153990107620922,0.07748563883515172,-0.6897399404808147,0.08036818823670569,-4.946627207722302e-05,0.01705322091378908,0.0009900130375896743
1729499508.7452033,-9.802904129444844,0.2336765075739774,-0.28306398999969345,0.7156560375346441,0.0779293067997452,-0.6893608247699783,0.08090186867049842,-2.967976324633381e-05,0.017468663593127987,0.002296768068401931
1729499508.753196,-9.794825671026281,0.22112992065766768,-0.28116877119708167,0.7157893017055672,0.0740167703389521,-0.6901258453849677,0.07676920479027445,-1.7807857947800285e-05,0.017717929200731328,0.003506511148351317
1729499508.761143,-9.78854207497905,0.22892485913288185,-0.27644033742528024,0.7155395882647289,0.07666488287735598,-0.6897832743954547,0.07952752808699945,-1.068471476868017e-05,0.0174417985038313,0.004232356996320948
1729499508.769129,-9.789320900505007,0.22378559541136975,-0.27551863849032443,0.7155867392411948,0.07503262058182304,-0.6901104907272246,0.07780253889821118,-6.410828861208102e-06,0.017276120085691286,0.004667864505102727
1729499508.7771387,-9.785957473164332,0.2226173985065875,-0.2764021401254446,0.7156312115061185,0.07466011615494782,-0.6901481467111422,0.07741687002966814,-3.846497316724861e-06,0.017602403096269308,0.004503478948909762
1729499508.7851892,-9.792797962902506,0.22239532069574935,-0.28172064442682926,0.7157887457843551,0.07442378147967622,-0.6900344177101068,0.07720151898893621,-2.3078983900349162e-06,0.01737248284115409,0.0027020873693458574
1729499508.7931924,-9.806957903718066,0.21484004886276215,-0.2844329066756288,0.715968328444217,0.07184494253434243,-0.6904178821485552,0.07450372411185036,-1.3847390340209497e-06,0.01723453068808496,0.0037497027289176725
1729499508.8011858,-9.79031475077576,0.22515093605593853,-0.30018605381983043,0.716305908022566,0.07489225919451788,-0.6893775474240816,0.0778176891989629,-8.308434204125697e-07,0.017151759396243478,0.0043782719446607615
1729499508.8091357,-9.793736388307254,0.23205572886989123,-0.28569592550478884,0.715763200963945,0.07741406253608517,-0.6893688924210271,0.08037806435659413,-4.985060522475418e-07,0.017102096621138593,0.004329723412644583
1729499508.817147,-9.792676908667946,0.2280583189137316,-0.27915663000990454,0.7156303286596744,0.07629714957156362,-0.6897724940613845,0.07915733766391007,-2.9910363134852506e-07,0.017497989017537692,0.004300594293434877
1729499508.8252063,-9.790844120054283,0.2215897301177702,-0.27427537204891145,0.7155804098355234,0.07434443961705162,-0.6902737064054084,0.0770700434863693,-1.7946217880911502e-07,0.01730983439391512,0.0025803565760609258
1729499508.8332138,-9.784956043565774,0.21651147601011522,-0.2809234239129406,0.7158522085920257,0.07260195785623402,-0.690374757054785,0.0752812459441735,-1.0767730728546901e-07,0.016771251558279545,0.0015482139456365555
1729499508.841196,-9.781423197672668,0.2196894478619285,-0.27868733071495183,0.7157428857792005,0.07369770815227178,-0.6902468873173017,0.07641991768080532,-6.46063843712814e-08,0.0164481018568982,0.0009289283673819332
1729499508.8492153,-9.794626380761803,0.2170472478187196,-0.2835705991125648,0.7159188073471232,0.07265299071302077,-0.6902928106545608,0.07535011470298554,-3.876383062276884e-08,0.016254212036069395,0.00055735702042916
1729499508.8571694,-9.792492643642628,0.21378598663068488,-0.280515056000742,0.7158731665925345,0.07168409745498652,-0.6905538831674803,0.07431240789501603,-2.3258298373661303e-08,0.016989258266496172,0.000334414212257496
1729499508.8651862,-9.796479645023469,0.22044835589442655,-0.2863431754461483,0.715952961655732,0.07367058109088943,-0.6900298521943891,0.07643824473852225,-1.3954979024196781e-08,0.01743028600475224,0.00020064852735449758
1729499508.873202,-9.797195904689861,0.22133331529446842,-0.29055830761143897,0.7160666958564685,0.0738532104367024,-0.6898679273987527,0.0766578967878795,-8.372987414518068e-09,0.01726921258624385,0.0018231493622608249
1729499508.8811536,-9.798822761319776,0.2165970472821498,-0.2827923197719415,0.7158993583359026,0.07249833434369048,-0.6903476017213572,0.07518170687875957,-5.023792448710841e-09,0.017172568535138814,0.001093889617356495
1729499508.8891377,-9.799559455131709,0.21686774863296174,-0.2664011389334774,0.7154091944057496,0.0729358433219829,-0.6907706995780986,0.07553732801080455,-3.014275469226504e-09,0.017540272165937825,0.0006563337704138969
1729499508.8971436,-9.786833362288009,0.22181857276376143,-0.2666220774030552,0.7153546246689013,0.07461258209720824,-0.6904526643217958,0.07730356970112294,-1.8085652815359025e-09,0.017760894344417234,0.0020965605080964646
1729499508.9051492,-9.780634227577883,0.22502848740825684,-0.2758526067933956,0.7155830896792239,0.07548270486910795,-0.6900111798311515,0.07828010436120576,-1.0851391689215414e-09,0.017467577590042846,0.0012579363048578786
1729499508.9131434,-9.792955897874855,0.21689878922229786,-0.27708136143931866,0.7157276884195989,0.07275907874083687,-0.6904721247165437,0.07542040492959386,-6.510835013529248e-10,0.01729158753741821,0.0024575220287628534
1729499508.9211411,-9.78550484976007,0.22471023910955057,-0.2802128158870287,0.7157142722362525,0.07524904213607249,-0.6899253714858211,0.07806179574597807,-3.9065010081175485e-10,0.0167603034443814,0.0031772734631058384
1729499508.9291973,-9.798751313176354,0.2092858150965897,-0.26724763826268594,0.7155333969979741,0.07047077841355431,-0.6911754500124242,0.07295426286688227,-2.343900604870529e-10,0.017292913111483378,0.001906364077863503
1729499508.9372187,-9.798319485415579,0.21391753031771943,-0.26976359882675216,0.7155479405495585,0.07191984677011762,-0.6908471081536759,0.074491298629783,-1.4063403629223173e-10,0.0167610987888205,0.0011438184467181018
1729499508.9452105,-9.789201842616535,0.21142931579805355,-0.27701925914956693,0.7158018235984568,0.07101996733313536,-0.6907734475500498,0.07359319080555393,-8.438042177533903e-11,0.016016320133760743,0.000686291068030861
1729499508.9531996,-9.790913861917577,0.22190739538703527,-0.27778135285302136,0.715679602760995,0.07436816468782921,-0.6901629831880216,0.07711769517976318,-5.062825306520342e-11,0.01642083306364895,0.0004117746408185166
1729499508.961144,-9.794574695324375,0.22149047849198675,-0.2756049872489222,0.715619170913391,0.07425829170932062,-0.6902520265178888,0.07698732507102833,-3.037695183912205e-11,0.01794061100596797,0.0019498250303392364
1729499508.9691918,-9.800123077692671,0.22195858885300457,-0.2762145292145877,0.7156277405248886,0.0743582811865584,-0.6902203081758287,0.07709545506634898,-1.822617110347323e-11,0.01842678770989735,0.002872655264051668
1729499508.9772232,-9.802255006283572,0.22870379955203712,-0.2813686577142995,0.7156813115215843,0.07638756815522049,-0.6896971716633521,0.07926544751434353,-1.0935702662083936e-11,0.018292803670792945,0.003426353404279127
1729499508.9851506,-9.806886045762331,0.20809064887184725,-0.27847563066373593,0.7158793480817516,0.06979847464363814,-0.6909524226643713,0.07231653712466951,-6.5614215972503614e-12,0.017786723185868273,0.0037585722884156026
1729499508.9931884,-9.812777131607788,0.1962015987957646,-0.26764184812480407,0.7156964057135836,0.06612397163580035,-0.6919017197606253,0.06839799277796564,-3.936852958350217e-12,0.017057384833451438,0.0039579036188974875
1729499509.0011806,-9.803143673984204,0.19768729472667748,-0.26928186424597617,0.7157339897667202,0.06663376483391484,-0.6917598206420701,0.0689430766786787,-2.36211177501013e-12,0.016619781822001335,0.004077502417186619
1729499509.0091827,-9.797842439742084,0.2033671156055377,-0.2733783360768826,0.7157913778797282,0.06843075825378007,-0.6913320122153331,0.07085184234832029,-1.417267065006078e-12,0.016357220015131273,0.002446501450311971
1729499509.0171947,-9.80136546384525,0.21443645344535386,-0.28541302581605144,0.7160066294316269,0.07172937612597825,-0.6904024933290855,0.07438951818314854,-8.503602390036467e-13,0.01662537299247127,0.0014679008701871826
1729499509.025205,-9.795099572496603,0.21628965282893106,-0.28066283135877146,0.7158418539452773,0.07247050765244492,-0.690414745186979,0.07513950551596643,-5.10216143402188e-13,0.0172119548403373,0.0008807405221123095
1729499509.033195,-9.799719743497961,0.2097401271465774,-0.2890654624871379,0.716182364607389,0.07014815286164236,-0.6905572531886738,0.07275120166693169,-3.0612968604131283e-13,0.01756390394905692,0.0005284443132673856
1729499509.0412338,-9.798421703276512,0.21897852086802452,-0.28429081435751713,0.7159111909947551,0.07323262346711472,-0.6901721967243593,0.07596373040647311,-1.8367781162478768e-13,0.017349383352826656,0.0003170665879604314
1729499509.0491369,-9.805064904290125,0.22164851510870537,-0.28621442880005715,0.715927130036234,0.074001662902253,-0.6899828117873538,0.0767842288741632,-1.1020668697487261e-13,0.016794980933626465,0.00019023995277625883
1729499509.057147,-9.802586480415872,0.2218139906570201,-0.284256135307378,0.7158675029414067,0.07411536430229997,-0.690020516380951,0.07689159889180484,-6.612401218492356e-14,0.01646233948210635,0.0001141439716657553
1729499509.0651968,-9.797029283269055,0.22406805748014955,-0.2754197138992705,0.7155759139669541,0.07507377326757253,-0.690112587365164,0.07784379665642202,-3.9674407310954137e-14,0.01711413473411835,6.848638299945318e-05
1729499509.0731947,-9.796807427139166,0.2215897749177772,-0.26939960055635914,0.7154341129813309,0.07441170058616202,-0.6904138116697387,0.07710834879670557,-2.380464438657248e-14,0.017505211885325545,0.0017438520756477983
1729499509.0812256,-9.813433725082326,0.21770860372019757,-0.26123854939631547,0.7152408312091237,0.07322458327874064,-0.6908850619242649,0.07580596932195549,-1.4282786631943487e-14,0.0168884780531258,0.002749071491236805
1729499509.0891953,-9.813353856875565,0.2251961278082904,-0.2649610446768518,0.715246999224987,0.0755562549042619,-0.6903514110269854,0.07828097941099028,-8.569671979166091e-15,0.016944127815267985,0.0033522031405902094
1729499509.0971828,-9.816178977943698,0.2325616842533336,-0.274616566991658,0.7154192816030241,0.07767858953122159,-0.6896726762450385,0.08057845791561839,-5.141803187499654e-15,0.016977517672553295,0.003714082130202252
1729499509.1052165,-9.816437529588484,0.23769927861840637,-0.2756214770602291,0.715370573750488,0.07928935275419476,-0.6893384841296266,0.08228362564682662,-3.0850819124997926e-15,0.01657186152546245,0.003931209523969477
1729499509.1131938,-9.804382232108559,0.24844328054995007,-0.27550616260332494,0.7152018473143946,0.08278496650312417,-0.6886515672124333,0.08597665901285953,-1.8510491474998755e-15,0.016328467837207945,0.002358725714381686
1729499509.1211498,-9.792600070466307,0.2414821524120013,-0.27639465459324497,0.7153443012771269,0.08064257317819944,-0.689035549455536,0.08372166749441606,-1.1106294884999253e-15,0.01575674156279321,0.003117995674477138
1729499509.1291344,-9.797980622113768,0.23922083685735704,-0.27884311111532195,0.7154487136844601,0.07982730210582675,-0.6891242215350141,0.08287669889370257,-6.663776930999552e-16,0.01626508592106843,0.003999247711996441
1729499509.1372008,-9.794505188453806,0.23020260221207045,-0.27624204220630255,0.7155119850005143,0.07703736911460653,-0.6897253277183437,0.07991755366843468,-3.9982661585997307e-16,0.016570092536033563,0.00410230887304599
1729499509.1452022,-9.801517894566425,0.21473601445224227,-0.26869589671050026,0.7155039439004093,0.07218609850599689,-0.6908354781733856,0.07476373146380484,-2.3989596951598384e-16,0.016753096505012645,0.004589835631137752
1729499509.153177,-9.791120888107043,0.22628561623970472,-0.26943545306536265,0.715371770821761,0.07595891692047338,-0.6901259757237397,0.07873760272552636,-1.439375817095903e-16,0.016862898886400093,0.0053080417474548405
1729499509.161167,-9.788952827053679,0.2353701588063228,-0.2729916490364832,0.71534210944935,0.07880197667053536,-0.6894865503051966,0.08175702948132527,-8.636254902575418e-17,0.01692878031523256,0.005313275355783062
1729499509.1692262,-9.790764452579864,0.22142785089902803,-0.2832656522636868,0.7158498322309823,0.07409196383969946,-0.6900445761777557,0.07686274440138498,-5.18175294154525e-17,0.01696830917253204,0.003187965213469837
1729499509.177152,-9.784189982583074,0.2099500039964481,-0.28679643237383706,0.7161198580877366,0.07036266976917008,-0.6905776786073614,0.07296515171383243,-3.10905176492715e-17,0.017417716548373763,0.0019127791280819022
1729499509.1851482,-9.791976888719766,0.222935169634197,-0.2886754802739116,0.7159895616772655,0.07444353830769664,-0.6898164613503581,0.07726808411949584,-1.8654310589562897e-17,0.017687360973878796,0.0032761177841592994
1729499509.1932013,-9.79449425090764,0.2307262690168463,-0.2819020435354407,0.7156706967803002,0.0770739190403389,-0.6895477184537052,0.07999380444167344,-1.1192586353737738e-17,0.017423457567719784,0.004094120977805738
1729499509.201201,-9.79241336573013,0.2306125253261234,-0.29483681327946754,0.7160592114495387,0.07674555483324137,-0.6892108709140545,0.0797351925155589,-6.715551812242643e-18,0.017265115524024377,0.004584922893993601
1729499509.209192,-9.7739265826705,0.2197703716409865,-0.29828811213760237,0.7163380565463323,0.07332539894879385,-0.6896978949664363,0.07615765418715623,-4.029331087345585e-18,0.01631873017488307,0.0027509537363961606
1729499509.2172775,-9.781988126115973,0.2158987012560763,-0.2946128074681083,0.7162769016135784,0.07211691772705406,-0.6900308226571757,0.07485996376877709,-2.417598652407351e-18,0.015750898965398285,0.0016505722418376962
1729499509.2252285,-9.795204757993803,0.21237859819505203,-0.29025284317227124,0.7161852854278355,0.07099968346885759,-0.6903714244259782,0.07365445146097842,-1.4505591914444106e-18,0.015835890301169445,0.0009903433451026178
1729499509.233202,-9.799064594298235,0.21290015818460936,-0.283806141938519,0.715980505141733,0.0712849101876203,-0.6905268360848088,0.07391255971237447,-8.703355148666464e-19,0.01588688510263214,0.0022969662529096968
1729499509.2412229,-9.800183395250814,0.221353379822875,-0.2823323228584239,0.7158179444217572,0.07402696881805881,-0.6900931185917525,0.0767864962329298,-5.222013089199879e-19,0.015917481983509757,0.0035066300590559764
1729499509.2492275,-9.80109409598838,0.2221157498175531,-0.2819268717423981,0.7157944837691874,0.07427451582227139,-0.6900621302995513,0.0770442056965659,-3.133207853519927e-19,0.01636153017349836,0.003806738281281712
1729499509.2572172,-9.791345449292248,0.22017897015420373,-0.2816836010727826,0.7158200384000851,0.0737228343934471,-0.6901593195245325,0.07646391297423402,-1.8799247121119561e-19,0.016627959087491522,0.0044124932760791855
1729499509.2652206,-9.799143210737457,0.22212936451439722,-0.28800198315343517,0.7159770845340045,0.07415381145113675,-0.689895363703291,0.07695722064991738,-1.1279548272671737e-19,0.016362126374425388,0.00477594627295767
1729499509.2732086,-9.7810769518331,0.2161169961500446,-0.28820170991159233,0.7160792995525587,0.07233796910754718,-0.6901919845173997,0.07505117910896449,-6.767728963603042e-20,0.016202626746585704,0.004568328009622728
1729499509.281258,-9.791066750933844,0.23262086907674548,-0.289997487128596,0.7158838468927798,0.07750995806905046,-0.6892175607307482,0.08050886993671229,-4.0606373781618246e-20,0.01695830709280596,0.004443757051621763
1729499509.2891722,-9.783174260765383,0.22432726021557853,-0.2838923484783295,0.7158306367612725,0.07505783006387413,-0.6898454390797054,0.07788511925253813,-2.4363824268970946e-20,0.01698602523907608,0.002666254230973058
1729499509.2971332,-9.793043396791262,0.21623863274067523,-0.2740043409717633,0.7156451926513911,0.07261263660102046,-0.690591972008706,0.07524686995435802,-1.4618294561382566e-20,0.01657696606537612,0.0015997525385838347
1729499509.3051517,-9.79944371873882,0.218568061236202,-0.2709445784600111,0.71551971936676,0.07338769024159023,-0.6905530724741468,0.07604099035936628,-8.77097673682954e-21,0.016331530561156146,0.002662611768998427
1729499509.3131528,-9.790115802776494,0.23217614680031495,-0.2691087209529598,0.7152770392791199,0.07786184458927091,-0.6897806653863423,0.08073985321034105,-5.2625860420977236e-21,0.016609959320086194,0.0037260173687092145
1729499509.3211467,-9.800799624488162,0.23387665365636084,-0.2787811139194321,0.7155281703734582,0.07810810475892754,-0.6894545063514123,0.08106198273364776,-3.157551625258634e-21,0.017202706636906255,0.004789750789997719
1729499509.3290915,-9.794520648716334,0.2322633359438165,-0.27668368422079986,0.7154941248823533,0.07768563672037633,-0.6895912853876297,0.08060371097922109,-1.8945309751551803e-21,0.01798404508846032,0.004576610719846758
1729499509.3372598,-9.790035002755191,0.22626752182996177,-0.2711156634133393,0.715421568482155,0.07592308543142731,-0.6900813271040219,0.07871103119294909,-1.1367185850931082e-21,0.017601468036468698,0.0027459664319080548
1729499509.3452096,-9.799793463811318,0.22267003336164895,-0.2898015062023005,0.7160229642385737,0.0742812128202717,-0.6898177552743109,0.07710305190630687,-6.820311510558649e-22,0.016520541682349663,0.001647579859144833
1729499509.3531795,-9.792959271646165,0.22601820409902063,-0.27826809610419273,0.7156338599182456,0.07566230196772261,-0.6899158277774904,0.07848276996614195,-4.092186906335189e-22,0.01629767593134027,0.0009885479154868996
1729499509.3612108,-9.798914403319731,0.21653493857269362,-0.28164311718400004,0.7158657111219325,0.07250314072333404,-0.6903822406968474,0.07517938517667333,-2.4553121438011136e-22,0.01658964654219667,0.0005931287492921398
1729499509.3691921,-9.799614440331682,0.21323918091705368,-0.2757672643533688,0.7157344951063673,0.07156461691014183,-0.6907268526321316,0.07415560109828317,-1.473187286280668e-22,0.015913448785786443,0.0003558772495752839
1729499509.3772297,-9.80889300868143,0.2076704238334353,-0.2688898703307713,0.7155970706764592,0.06984936786569841,-0.6912402433738323,0.0723106091007264,-8.839123717684009e-23,0.015507730131940307,0.0019162865955932966
1729499509.3851495,-9.798897838900265,0.2234827828645143,-0.27122777839963463,0.7154601615423287,0.07496634556955561,-0.6902601058207458,0.07770322123376622,-5.303474230610405e-23,0.016541369124018723,0.0028525322032041042
1729499509.3931963,-9.791703636201486,0.22746353446480233,-0.2699969014147808,0.7153709400504502,0.07632054399383516,-0.6900429845690262,0.07912188156819107,-3.182084538366243e-23,0.016735862457803737,0.003414279567770589
1729499509.4011908,-9.802710005207219,0.2197963384523189,-0.27668040037035285,0.7156705042444912,0.07363625739517692,-0.6903375054935057,0.07633845335262487,-1.9092507230197458e-23,0.01685255845807475,0.0037513279865104797
1729499509.409191,-9.801891801464174,0.21088645785654758,-0.28069049974369603,0.7159121003503166,0.07068540065317966,-0.6907286290396378,0.07326253975614137,-1.1455504338118474e-23,0.01777395618116142,0.0022507967919062877
1729499509.4171925,-9.803076820380458,0.20530110933306916,-0.28094177787356134,0.7159920758983727,0.06886840047198768,-0.6910287800691673,0.07135625959428694,-6.873302602871084e-24,0.01790110475355139,0.0013504780751437725
1729499509.4251766,-9.800435949406008,0.2177516311760134,-0.27343109943898053,0.7156037170924022,0.07306435937038401,-0.6905359480619371,0.0757167346597461,-4.1239815617226504e-24,0.017126013774061307,0.0008102868450862635
1729499509.4331942,-9.79933026715337,0.2216306417915455,-0.28017744018096646,0.7157502735089102,0.07416990882341291,-0.6901327490293082,0.07692307400446846,-2.47438893703359e-24,0.017086649247829287,0.0004861721070517581
1729499509.4411922,-9.798427437635771,0.22252152716477103,-0.28374640429412673,0.7158443481955069,0.07438107755489073,-0.6899850070420463,0.07716874053339472,-1.484633362220154e-24,0.01748872059355211,0.0002917032642310548
1729499509.4491985,-9.805547185237712,0.22856272220706572,-0.26769185014483543,0.7152818274611588,0.0766295345415321,-0.6900657541375255,0.07942969662778174,-8.907800173320924e-25,0.017304273339523772,0.0018777822043867592
1729499509.4571881,-9.804312369980517,0.24152482570705192,-0.2681147646279169,0.7151007641605843,0.08076731237768818,-0.6892648109476035,0.08379474170613357,-5.344680103992555e-25,0.01719360498710677,0.002829429568480182
1729499509.4651997,-9.794712934683622,0.239485861000403,-0.288000966931047,0.7157147050069945,0.07971370633261336,-0.6888678956868036,0.08282033778911883,-3.206808062395533e-25,0.017127203975656567,0.001697657741088109
1729499509.4731994,-9.794938777655876,0.22485495287953866,-0.27934255403558134,0.7156815195876294,0.07525187220555928,-0.6899595476046233,0.07805729254543309,-1.9240848374373196e-25,0.017087363368786447,0.0010185946446528654
1729499509.4811752,-9.798665585929463,0.2318781389640513,-0.2748657667963488,0.7154448405338084,0.0775758087213363,-0.6896698053232219,0.08047505004790864,-1.1544509024623916e-25,0.017063459004664373,0.0023139170326398457
1729499509.489195,-9.797070948237366,0.2284306053022589,-0.2786440389352311,0.7156075427317785,0.07639810083216467,-0.6897732324624533,0.07925946475294102,-6.92670541477435e-26,0.016623426324729098,0.0035168005268940653
1729499509.4972074,-9.789410400973669,0.22947454726338656,-0.2861782458709043,0.7158189873681415,0.07660903264858761,-0.689498853473957,0.07953341749223977,-4.1560232488646097e-26,0.016785096778229966,0.0038128405619845653
1729499509.5051599,-9.793672618758029,0.2190875848033444,-0.2851921062139488,0.7159393419662987,0.0732783859032765,-0.6901320949065445,0.07601860538169673,-2.4936139493187657e-26,0.017307789111792517,0.0039904645830388654
1729499509.5131435,-9.805567335903255,0.22434757529606913,-0.2781360779373537,0.7156477253787844,0.07504529513314982,-0.6900427782090174,0.07782994976312964,-0.0017027602458481264,0.017195714450468014,0.002394278749823319
1729499509.5211341,-9.809352283866172,0.21672966212100087,-0.27031115848116216,0.7155208901977678,0.0727439281257658,-0.6906947631715851,0.07535861423072636,-0.0010216561475088757,0.017128469653673314,0.0031393274957421174
1729499509.5291317,-9.816411655964234,0.21503195620814738,-0.2687286689656504,0.7154933006376313,0.0721842340328261,-0.6908471622844142,0.07475942390986233,-0.0006129936885053254,0.017088122775596494,0.0035863567432933966
1729499509.5372732,-9.804366707934008,0.22047767714285718,-0.28070786422118715,0.7157797090276682,0.07375489041849759,-0.690194952291417,0.0764889019078621,-0.00036779621310319523,0.0170639146487504,0.003854574291824164
1729499509.5452182,-9.798097419779936,0.23308249617829244,-0.2859800200463842,0.7157536924547173,0.0777043934823981,-0.6893102059142947,0.08068530841090707,-0.00022067772786191713,0.01619800964971868,0.0023127445750944983
1729499509.5532048,-9.786434981408977,0.24232132876166296,-0.2802847673989243,0.7154466212200785,0.0808596597018316,-0.6888725493109035,0.08397891654203721,-0.00013240663671715028,0.016104156711761682,0.0030904069909048256
1729499509.5612085,-9.780395199050465,0.23349941835074778,-0.2780647166405264,0.7155225082775977,0.07814631566967042,-0.689451421739292,0.08110135977318977,-7.944398203029017e-05,0.016473535010449514,0.003982694501853054
1729499509.5691817,-9.785629875777934,0.22916395276826115,-0.2690712408729877,0.7153221971365672,0.07692852116790423,-0.6899528627558151,0.07975715698098013,-4.7666389218174096e-05,0.016695161989662213,0.004943757069884022
1729499509.5772493,-9.788770681814416,0.2124368836238473,-0.2619992142503551,0.7153437316096816,0.07166473256848482,-0.6911188966632896,0.07417669733508368,-2.8599833530904456e-05,0.01682813817718983,0.005094704549240572
1729499509.5852156,-9.789697484772244,0.21987831425633964,-0.26445976292521306,0.7153168028616161,0.07401425896933608,-0.6906279623914842,0.07666014985664012,-1.7159900118542672e-05,0.016907923889706404,0.005185273036854501
1729499509.5931933,-9.787619944720769,0.23583534060458505,-0.2752734786047372,0.7154019102535739,0.07890666619222757,-0.6893975703524375,0.0818830558059583,-1.0295940071125602e-05,0.016955795317216346,0.004813924067960827
1729499509.6011906,-9.779909076207462,0.23559332960689167,-0.2784098256882329,0.71550071905342,0.07880994494487828,-0.6893155047354913,0.08180371961640213,-6.177564042675361e-06,0.017410208235184344,0.002888354440776496
1729499509.6092038,-9.782465160079946,0.23951826583054123,-0.2743061297879398,0.7153190505356262,0.0801398947534929,-0.6891861582794598,0.08317867783097357,-3.7065384256052164e-06,0.017682855985965144,0.0017330126644658976
1729499509.6171358,-9.787829533059686,0.2564778576916841,-0.2763928954020607,0.7150987658011533,0.08542165763789168,-0.6880812182198728,0.08877574381055935,-2.2239230553631297e-06,0.01742075457497159,0.0010398075986795385
1729499509.6251762,-9.801343223986201,0.2405568147126667,-0.2685469884619396,0.7151292955687936,0.08047057619069202,-0.6893074963047715,0.08348504371961837,-1.3343538332178779e-06,0.01683780366691343,0.0023266448050558493
1729499509.6332054,-9.794607388249142,0.23387723091744375,-0.2698249484482575,0.7152704529592719,0.07835829317100207,-0.6896693620452293,0.08126701711575006,-8.006122999307267e-07,0.01648803312207853,0.003098747128881636
1729499509.6412218,-9.801579214443628,0.22077151433171624,-0.27801374958653263,0.7156969781882201,0.07392751429899216,-0.6902440012066249,0.07665361596227273,-4.80367379958436e-07,0.01670386085663962,0.0035620085231771077
1729499509.649274,-9.79139710019938,0.20189475674356097,-0.2747867446249664,0.7158559054221918,0.06796342939500565,-0.6913603661078057,0.07037143676467639,-2.882204279750616e-07,0.016407667435914246,0.003839965359754391
1729499509.6571689,-9.79893478111572,0.20972231547191783,-0.2757235836402142,0.7157800324607355,0.07043396354310287,-0.6909223343324005,0.07296800552834037,-1.7293225678503694e-07,0.016229951383479022,0.0023039792158526346
1729499509.6651952,-9.78741623854248,0.2122640692147913,-0.279398149207566,0.7158630620194097,0.07124982954259884,-0.6906589057386165,0.0738499434683739,-1.0375935407102216e-07,0.016123321752017885,0.0013823875295115807
1729499509.6732025,-9.794391482627441,0.22192940710504666,-0.28136346838196147,0.7157839327588151,0.07427181628656113,-0.6900739518885658,0.07703895011432009,-6.225561244261329e-08,0.016059343973141203,0.0008294325177069484
1729499509.6812685,-9.79953430974248,0.22365846701693423,-0.288767584203005,0.715977570290085,0.07462282487322805,-0.6897884587126598,0.0774560202712417,-3.735336746556797e-08,0.016446647367277228,0.0022004197564722953
1729499509.689212,-9.80932377065994,0.24361009607930115,-0.2826755663909436,0.7154855248419292,0.08104610937013439,-0.6887847229672681,0.0841878691055734,-2.241202047934078e-08,0.016679029403758844,0.0013202518538833771
1729499509.6972156,-9.804902380071745,0.23977934255969008,-0.2809357170318318,0.7154978435161063,0.07990571585236383,-0.6890526022754728,0.08297242792230314,-1.3447212287604468e-08,0.016818458625647813,0.0007921511123300263
1729499509.7052145,-9.820445478336016,0.2276646636412828,-0.2798918074163647,0.7156439329566304,0.0759664048437523,-0.6898348175994237,0.0788085717739567,-8.06832737256268e-09,0.017327806220243224,0.00047529066739801577
1729499509.7132273,-9.813730186171531,0.23308512508906656,-0.28261734397130317,0.7156466444500674,0.07767692187876049,-0.6894308384144956,0.08063060918711609,-4.840996423537608e-09,0.01720772471553844,0.00028517440043880946
1729499509.7211516,-9.803954926888464,0.2248452339889868,-0.29047759022067254,0.7160090248866214,0.07493313703951829,-0.6896842071155106,0.07779328833373607,-2.9045978541225646e-09,0.01713567581271557,0.00017110464026328566
1729499509.729217,-9.785161082353783,0.21726767750276704,-0.28298330950349726,0.715903377650948,0.07279837692752938,-0.6902770091062204,0.07550099922552307,-1.7427587124735386e-09,0.01751813653248388,0.0001026627841579714
1729499509.7372391,-9.782503901609536,0.21511534527119147,-0.27513485874897337,0.7156996929234248,0.072294255974673,-0.6906042917035942,0.07492130793680045,-1.045655227484123e-09,0.017747612964344864,0.0017643579163429091
1729499509.745213,-9.794795962791893,0.21286626526818364,-0.2721017294583684,0.7156329757290469,0.0715533242875002,-0.6908368529228336,0.07412157901901761,-6.273931364904738e-10,0.017459608761999423,0.0036127551185779353
1729499509.7532346,-9.79115787186459,0.2160658004206758,-0.2750702552043179,0.7156802047330886,0.07254609836488152,-0.6905695246280741,0.07518403966396879,-3.764358818942843e-10,0.01728680624059216,0.004296103378456919
1729499509.7612028,-9.79855182394883,0.2096058157016242,-0.2675139841772783,0.7155373077620444,0.07057025160460557,-0.6911500485116615,0.07306032597406029,-2.2586152913657055e-10,0.016757434666285768,0.0042804222729222775
1729499509.7692242,-9.800354573373205,0.22416517765339639,-0.2775848516880076,0.715636713520848,0.0750341229028101,-0.6900570365171497,0.07781555766332932,-0.001702760381365044,0.017291191844626,0.0025682533637533663
1729499509.7772505,-9.797844920537594,0.22452108901391285,-0.2879369351827264,0.7159409124176159,0.07492899748949007,-0.6897576147129748,0.07777331295064524,-0.0027244164746671527,0.017185756090168106,0.0015409520182520199
1729499509.78517,-9.792029565847947,0.2285653584864727,-0.28265601731080775,0.7157266389662331,0.07638301533079897,-0.6896499802853505,0.07927116711320563,-0.0016346498848002916,0.016696804576031336,0.002627331456799338
1729499509.7931564,-9.800271941168925,0.232667861332118,-0.2806845674177346,0.7156026389221025,0.07768198266565131,-0.6894765346206208,0.08062556011834217,-0.000980789930880175,0.016829123729011308,0.0032791591199277294
1729499509.801197,-9.796598240384949,0.2324957412133333,-0.2768680756557189,0.7154950475449724,0.07774119988393631,-0.6895771193135788,0.08066312229519605,-0.0005884739585281049,0.01733420528226132,0.003670255717804764
1729499509.809211,-9.796788221574719,0.24101159511862497,-0.2705080377762438,0.7151802454925175,0.08060221198920149,-0.6892206961836399,0.08363810036011711,-0.00035308437511686296,0.01763725421421133,0.0022021534306828584
1729499509.8171453,-9.785170622153816,0.24205096463953435,-0.26884679654269944,0.7151210884077032,0.08105574234522574,-0.6891717385810886,0.08410773025451335,-0.00021185062507011776,0.017393393511919306,0.001321292058409715
1729499509.8252223,-9.780833684327446,0.2381256031977831,-0.2628222283162447,0.7150114323484568,0.07997396187657116,-0.6895549523327299,0.08292638148490293,-0.001829870620890197,0.017672767152006122,0.0024955354808939554
1729499509.8332102,-9.784935286280062,0.24822023496554482,-0.27165733601318426,0.7151028394909543,0.08295057796915299,-0.6887154497528163,0.08612873990912608,-0.0028006826183822444,0.017414701274596177,0.0032000815343844998
1729499509.8411617,-9.786438566787567,0.24996745103792065,-0.26426913183251993,0.7148644497258652,0.08367074379254223,-0.6887866799370826,0.08683855533453871,-0.0016804095710293465,0.01725986174815021,0.0036228091664788262
1729499509.8492208,-9.786622274594025,0.23880535221454927,-0.2641457723124026,0.7150364866915151,0.08011938832630075,-0.6894926820058164,0.08308759097783723,-0.0010082457426176079,0.018018338155206697,0.003876445745735422
1729499509.857147,-9.799182347910712,0.22133418544982328,-0.2738879834069728,0.7155683297210319,0.07421536076965173,-0.6903157118573098,0.07693025210551875,-0.0006049474455705647,0.018047733937978556,0.004028627693289379
1729499509.8651664,-9.807676072564785,0.2204282920316127,-0.2696776630910587,0.7154529117998164,0.0739595580591483,-0.6904958652403518,0.07663272704815752,-0.0003629684673423388,0.017213991284717605,0.002417176615973627
1729499509.8731503,-9.80175897972051,0.21629345349045198,-0.2659543700714321,0.7154026494570003,0.0727454398245819,-0.6908197480500454,0.0753340947958114,-0.00021778108040540326,0.017139435754223067,0.0031530662154323026
1729499509.8812425,-9.815686396133087,0.20902414704544306,-0.256777209445203,0.7152206432330614,0.07049022014917994,-0.6915019714660962,0.07290805041357493,-0.00013066864824324195,0.017094702435926347,0.0018918397292593814
1729499509.889134,-9.819493862826336,0.21878835297335958,-0.2603688793780593,0.7151985493815161,0.07355099193358094,-0.6908571578138407,0.0761424588882139,-7.840118894594516e-05,0.01664217238348628,0.0011351038375556287
1729499509.8972113,-9.816989939521973,0.22297093536800014,-0.25629895702136685,0.715027127786116,0.07500105226530336,-0.6907118593599475,0.07764132938428299,-4.7040713367567095e-05,0.016796344413484272,0.0006810623025333772
1729499509.9051852,-9.808783820890918,0.21997382098642507,-0.2679827934022732,0.7154089952679252,0.07384251989647489,-0.6905687529961682,0.07649868711549133,-2.8224428020540254e-05,0.01688884763148307,0.00040863738152002634
1729499509.9132235,-9.804338990044316,0.2210485943496675,-0.2778661372230046,0.7156872585888475,0.07400152025910554,-0.6902376604367262,0.07673001373488707,-1.693465681232415e-05,0.016944349562282347,0.0002451824289120158
1729499509.921155,-9.80957295701487,0.21259549205901926,-0.2799654208591934,0.7158631059436873,0.07120320408432954,-0.6906689484866383,0.0738005479189955,-1.016079408739449e-05,0.016977650720761912,0.00014710945734720948
1729499509.9291654,-9.80409421122064,0.2171004373252553,-0.2819432515389535,0.715863993826736,0.07264477000932733,-0.69035279395418,0.0753292746041285,-6.096476452436694e-06,0.01657194135438762,0.0017910259202564521
1729499509.937241,-9.809186669554649,0.21693036249280942,-0.2845664709429033,0.7159421650574556,0.07249915358094929,-0.6903019986246898,0.0751920189757384,-3.6578858714620165e-06,0.015902825673101015,0.003203065859464029
1729499509.9451714,-9.801707657250368,0.21754657809138875,-0.27584533544660134,0.7156773721565535,0.07293754507176377,-0.6904859665145607,0.07559856842855804,-2.19473152287721e-06,0.016352736387253115,0.0036245997615265437
1729499509.9532123,-9.786925182729128,0.21073370247006762,-0.2809077212874921,0.715929312399692,0.07072616570710408,-0.6907016421064827,0.07330941769434438,-1.316838913726326e-06,0.017048372877206407,0.0021747598569159263
1729499509.9612477,-9.79792757179568,0.20688539726329055,-0.2746077663174171,0.7157838386573615,0.0695456698865824,-0.6911068905856225,0.07202889629885455,-7.901033482357956e-07,0.01704006470971635,0.0013048559141495557
1729499509.9691985,-9.790163795274673,0.2196598845982087,-0.26867301184123155,0.7154427118375286,0.07385006150939591,-0.6905312904177606,0.07651425649905864,-4.740620089414773e-07,0.017035079809222316,0.0007829135484897334
1729499509.977225,-9.790054512516365,0.22038139218470648,-0.26774578098169205,0.7154057021439996,0.07410344805599572,-0.6905135719893375,0.07677478247829374,-2.844372053648864e-07,0.017032088868925894,0.00046974812909384003
1729499509.985154,-9.790946623525443,0.22775748155105827,-0.27317494661635894,0.7154598081673909,0.07634863993152029,-0.6899419349110043,0.07917243541123893,-1.7066232321893182e-07,0.01703029430474804,0.00028184887745630403
1729499509.9932017,-9.790284789300813,0.2214092277001662,-0.2759536056651279,0.7156328330218831,0.07425294957161918,-0.6902387250918635,0.07698473981606402,-1.0239739393135908e-07,0.01702921756624133,0.0022975596337839405
1729499510.0011916,-9.788930008101973,0.21568491406150594,-0.2838457254107955,0.7159492518008128,0.072245508370258,-0.6903503331295987,0.07492444803955134,-6.143843635881544e-08,0.017454261584599336,0.003506986087580523
1729499510.0091898,-9.792187282204933,0.2254184350091692,-0.28570795526600856,0.7158640473506094,0.07530515944708692,-0.6897531874613143,0.07815586387732079,-3.686306181528926e-08,0.01770928799561414,0.0021041916525483136
1729499510.0171986,-9.799648310485068,0.22383652243128274,-0.28634645284710514,0.715902335616378,0.07473469202886793,-0.6898429902902325,0.07755785204474924,-2.2117837089173558e-08,0.017436613780760987,0.0012625149915289882
1729499510.0251746,-9.797660582970728,0.2231267950505665,-0.2881660723918568,0.7159683180374506,0.0744790166662393,-0.6898309946314454,0.07730098633811061,-1.3270702253504134e-08,0.01769869931331113,0.0024602692407655192
1729499510.0331917,-9.799101568288295,0.23443254675690237,-0.2890184239526922,0.7158224605273155,0.07805437813287991,-0.6891535198565613,0.08107493526498546,-7.96242135210248e-09,0.017855950632841216,0.003178921790307438
1729499510.0412247,-9.791825873834306,0.23786411545648517,-0.29144519621731846,0.7158441362346029,0.07913544449495186,-0.6888703096393031,0.08223412029427102,-4.7774528112614874e-09,0.017950301424559268,0.004035803381494621
1729499510.0491676,-9.786263356331833,0.23154335086568795,-0.2826061924374223,0.7156832209828987,0.07737474768195439,-0.6894634250086181,0.08031725343961214,-2.8664716867568922e-09,0.018006911899590097,0.004124242274744899
1729499510.0571454,-9.788671929814724,0.21769524513855337,-0.28328829431987523,0.7159045889982605,0.0729062762450168,-0.6902517990253612,0.07561579383680056,-1.7198830120541352e-09,0.017615188123146563,0.0024745453648469394
1729499510.0652008,-9.802327502371257,0.2223150706671164,-0.28345813528333136,0.7158366183958512,0.07429566115097147,-0.6900125709890196,0.07707621147186572,-1.031929807232481e-09,0.017380153857280443,0.00318748746475629
1729499510.073196,-9.801183459430566,0.22245334415808232,-0.27398323322078005,0.7155544205209586,0.07455953129985306,-0.690252565745173,0.0772925808048019,-6.191578843394887e-10,0.01723913329776077,0.0036152527247019003
1729499510.0811732,-9.78972312619545,0.20888935878977127,-0.26662235082113994,0.7155247595754833,0.07041253121299644,-0.6911970225561405,0.07289080800863604,-3.714947306036932e-10,0.017580211023511,0.00216915163482114
1729499510.0891404,-9.788353590072738,0.22373530350628465,-0.2559808970649496,0.7150202504907774,0.07544881604242165,-0.6906168164989174,0.07811485335583261,-2.2289683836221593e-10,0.017784857658961137,0.001301490980892684
1729499510.0972152,-9.804770120352236,0.2142075175529895,-0.2543844281315478,0.715092125508241,0.07229021867737179,-0.6912487019285842,0.07478374423449993,-1.3373810301732956e-10,0.01790764564023122,0.0007808945885356103
1729499510.1051743,-9.814141198187905,0.2132792493013249,-0.26228509291408497,0.7153285098359072,0.0717671955786967,-0.6911127272390643,0.07428183427253407,-8.024286181039773e-11,0.018832698551917333,0.00046853675312136613
1729499510.1131663,-9.805877475260399,0.20913098586009182,-0.2677437522816541,0.7155462309531055,0.07036511774775046,-0.6911844274369114,0.07284523897866611,-4.814571708623864e-11,0.01896204023746697,0.00028112205187281965
1729499510.1211636,-9.808341266650379,0.20472666646722698,-0.2724554688982893,0.7157406748241076,0.06882575330809552,-0.6913034781789728,0.07125870572469546,-2.888743025174318e-11,0.018188265125872686,0.0001686732311236918
1729499510.129254,-9.795933171855461,0.21357624280025805,-0.2683393140538173,0.7155116316946155,0.07185504567762496,-0.6908997061887154,0.07441473851813357,-1.7332458151045907e-11,0.018149690120378148,0.00010120393867421507
1729499510.1371956,-9.79231903763476,0.2073938206313267,-0.27185512529752476,0.7156980882188637,0.06980283481871814,-0.6911432635153937,0.07228277850515577,-1.0399474890627544e-11,0.018126545117081425,6.072236320452904e-05
1729499510.1452274,-9.788474615940231,0.20607856899012414,-0.2710915700515617,0.715694119063005,0.06941608428988898,-0.6912290588537157,0.07187296693955872,-6.239684934376527e-12,0.018538348176565425,3.6433417922717424e-05
1729499510.153228,-9.798138971224295,0.20768361966555887,-0.27087285706999953,0.7156618309697388,0.06988049644579111,-0.6911651681848952,0.07235724011787974,-3.743810960625916e-12,0.018785430012255824,2.1860050753630452e-05
1729499510.161205,-9.792445416425984,0.19883042326417905,-0.2843885787439528,0.7161856505601857,0.06676480011584184,-0.6912566326323627,0.06917256131546642,-2.24628657637555e-12,0.01893367911367006,0.0017158762763003045
1729499510.1691759,-9.803155073341918,0.20117995073585118,-0.29273743191434043,0.7164057247567872,0.06728660581713979,-0.6909179883648492,0.06976878648207548,-1.3477719458253298e-12,0.018596938513056573,0.002732286011628309
1729499510.1771622,-9.794976237364525,0.20474444871299508,-0.3025351471368855,0.716667644986192,0.06827309311548702,-0.6904376627736573,0.07086681317823658,-8.086631674951979e-13,0.017543514029764416,0.0016393716069769853
1729499510.1851494,-9.81089849022145,0.21119271048756266,-0.2930908856454125,0.7162785158725852,0.07045703791988187,-0.6903893175859318,0.07309913590566224,-4.851979004971188e-13,0.01648576927832709,0.0009836229641861911
1729499510.1932044,-9.813987497453184,0.20907616340191257,-0.28646664808646627,0.7161036132760369,0.06990164480552041,-0.6906931255830598,0.07247331494274682,-2.9111874029827124e-13,0.015851122427464698,0.0005901737785117147
1729499510.201193,-9.810813078305893,0.21594652079505378,-0.2868016685393798,0.7160221726500519,0.07212328125359321,-0.6902998098519116,0.07481078193100932,-1.7467124417896273e-13,0.015470334316947262,0.002482554574417187
1729499510.209128,-9.803162342833145,0.21216786975242286,-0.2913122437994091,0.7162156283658995,0.07085826286045079,-0.6903697618680568,0.07351103432194228,-1.0480274650737763e-13,0.016093241573560863,0.0031922929904984387
1729499510.2171273,-9.801444943541684,0.20439401530848494,-0.29258206795933295,0.716360180555237,0.06833791277251967,-0.6907497621213528,0.07087162705948173,-6.288164790442657e-14,0.016466985927529022,0.0019153757942990631
1729499510.2252083,-9.798977982970714,0.21265839160696598,-0.28951323979903726,0.7161566677063165,0.07108219568526498,-0.6903839407422918,0.07373576555166422,-3.772898874265594e-14,0.016265542478447886,0.0011492254765794378
1729499510.2332063,-9.80084968895235,0.21354687456378896,-0.28671426223879737,0.7160584740524517,0.07141787971852892,-0.6904153211486637,0.0740704564409569,-2.2637393245593564e-14,0.016144676408999206,0.0006895352859476627
1729499510.2411923,-9.801254452043285,0.22509329197460148,-0.27641574972609095,0.7155884450524433,0.07535185126973105,-0.6900355558923168,0.07814222560198683,-1.3582435947356138e-14,0.016497846828792028,0.00041372117156859763
1729499510.2492251,-9.802933830893942,0.21023390731366715,-0.2838835916813577,0.7160165258770509,0.07039962552174883,-0.6906792489949657,0.07298220608549857,-8.149461568413682e-15,0.017135439142129755,0.00024823270294115855
1729499510.2571676,-9.806335659864489,0.2257391334507003,-0.2864489355263927,0.7158739123994976,0.07529599547670746,-0.6897447971775289,0.07814838051768853,-4.889676941048209e-15,0.01751799453013239,0.0022773899290748534
1729499510.2652185,-9.80765849674877,0.22809908431846707,-0.2760171335326325,0.715530022099407,0.07627988395897435,-0.6898832393084107,0.0791156299283639,-2.9338061646289255e-15,0.017747527762933972,0.0030691942032930386
1729499510.2732017,-9.815395383693792,0.22113534902858026,-0.2664061700121576,0.7153439647469172,0.0742062160393432,-0.690555911551552,0.07686990713204145,-1.7602836987773551e-15,0.01788524770261492,0.001841516521975823
1729499510.2811933,-9.804235784903774,0.2262944943292575,-0.27285002036666955,0.7154650642411102,0.07579660312064211,-0.6900643159234323,0.07858661905796234,-1.0561702192664131e-15,0.01796787966642349,0.0011049099131854939
1729499510.2891626,-9.813341756586796,0.22723520001552325,-0.2724067675910955,0.71543423632657,0.076046055847862,-0.6900393927026884,0.07884470432632863,-6.337021315598478e-16,0.017166078721784567,0.0023657061937594225
1729499510.2972112,-9.802285348141531,0.2268419427632202,-0.2745350175859073,0.715507454240575,0.07594745976635059,-0.6899843692825874,0.07875681828845069,-3.802212789359087e-16,0.016684998155001213,0.0014194237162556535
1729499510.3052685,-9.794454402244293,0.2184657027673071,-0.27389660625466933,0.7156108117925821,0.07332347599788386,-0.6904707595132827,0.07599318502536846,-2.281327673615452e-16,0.0163963498149312,0.0008516542297533921
1729499510.313221,-9.790713515370014,0.21487647976585297,-0.2794990636063172,0.7158288323746177,0.07206919922371845,-0.6905167461330151,0.07471102043418132,-1.3687966041692712e-16,0.016648850872351226,0.0005109925378520352
1729499510.321159,-9.790384344573571,0.22421511393373056,-0.28357879851535284,0.7158190916134644,0.07498092821750235,-0.6898753075717108,0.077800697221516,-0.0017027602458482085,0.01680035150680324,0.0020093557685593472
1729499510.3292084,-9.789468581597658,0.2176078659676602,-0.2922515637771804,0.7161761055241422,0.07267108654235245,-0.6900156368033401,0.07542625553418178,-0.003150106454819083,0.01689125188747445,0.0033340637684457666
1729499510.3372464,-9.783651880159768,0.20406671054739303,-0.2919485591159176,0.7163564502787935,0.06835425713981172,-0.6907503179068009,0.07088815124182993,-0.003592824118739576,0.016945792115877177,0.0037031985069155863
1729499510.3452146,-9.784471422285312,0.2189263532327327,-0.29009081515705054,0.7160945980285284,0.07317564656120774,-0.6899901038352442,0.0759441112538593,-0.0021556944712437455,0.017404206314380843,0.00435036941145951
1729499510.353153,-9.790709231545016,0.22712387834588962,-0.2829906646313397,0.7157586697397046,0.0759233398169013,-0.6897227087468829,0.07878932797250231,-0.0012934166827462473,0.01725356477202101,0.004738671954185864
