Time,Accel_x,Accel_y,Accel_z,Orientation_x,Orientation_y,Orientation_z,Orientation_w,Gyro_x,Gyro_y,Gyro_z
1729144103.149524,-1.1619614303367656,0.10049397159490579,9.770953780370963,0.005132916493228056,0.0591436221551238,-0.0003041156603936465,0.9982362408970687,0.02499099671066304,-0.028712481208565357,-0.0019372837097062906
1729144103.157862,-1.1709893667469813,0.11009577748819346,9.746925041660077,0.005636953760518172,0.0597428265173238,-0.00033737555908508785,0.9981978288945307,0.01925149864101814,-0.02701836013876594,-0.0062706509633681535
1729144103.165528,-1.164674540458345,0.13405279364135358,9.727240554781204,0.006877378910845311,0.059540742874071864,-0.00041022178694998993,0.9982021004362823,0.014105039553383074,-0.026427577558348323,-0.00844498125410324
1729144103.173614,-1.176208535310163,0.14579338150707777,9.736977677595284,0.007471892426290616,0.06006328699534052,-0.00044961077864536734,0.9981665042612045,0.010165783977877969,-0.027775868255945878,-0.007621129121234133
1729144103.181616,-1.1752280667427384,0.13368412094526227,9.761255304066935,0.00683443202568958,0.05986745803514125,-0.0004099049296022542,0.9981828539827988,0.006099470386726781,-0.02858484267450441,-0.004572677472740479
1729144103.189986,-1.1727244242741586,0.12210900161989173,9.766963333807348,0.006239155681593751,0.05970789817388268,-0.00037320000414788957,0.9981963236527146,0.006213822600808258,-0.029070227325639533,-0.001040846237796161
1729144103.198122,-1.155659928001995,0.12234653500513816,9.714603252969955,0.006285193432220357,0.05916193367950798,-0.0003725040721087335,0.9982285425630432,0.009262264359491366,-0.02765869787047248,0.002781012749018556
1729144103.205969,-1.1502096335590095,0.11482760972378601,9.673131557494864,0.005924270032692299,0.059136291438944256,-0.0003509597588466877,0.9982322770210728,0.011517019476163261,-0.02638609013591021,0.006351198325493482
1729144103.214217,-1.1414327930748587,0.10911915372489661,9.661656069506684,0.005636600979203594,0.05875918783135942,-0.0003317806488372469,0.998256217860125,0.013721252669090463,-0.02689959567955895,0.00891899973284047
1729144103.222031,-1.128026403139837,0.1071306011216567,9.689726120952058,0.005518146892474858,0.057909698517605586,-0.00032009629855085013,0.9983065232737051,0.012489652216074593,-0.028484769190134283,0.008756920331400533
1729144103.230562,-1.1259680733292148,0.0975577637491659,9.70058264766889,0.005019530256345727,0.05774179541018904,-0.00029032475712090564,0.9983188894788823,0.010047931698416945,-0.029435873296479488,0.00780829256761251
1729144103.241017,-1.12042351245456,0.12365694340574954,9.721461773659929,0.006348727621865307,0.05733592696986074,-0.00036461738445017967,0.9983346894655385,0.006028759019050167,-0.029580845698824576,0.004684975540567506
1729144103.245906,-1.115899675099689,0.13093674538915284,9.736383450914706,0.006712259438368355,0.05701935010485264,-0.0003833610496395368,0.9983504356292724,0.0036172554114301,-0.0292421390787696,0.0028109853243405035
1729144103.255007,-1.0928346585754385,0.11926347545614796,9.740069213615229,0.0061120330909824735,0.055832046735283594,-0.0003417868590413057,0.9984214084196046,4.190293954790163e-05,-0.02648477473796442,0.001686591194604302
1729144103.261842,-1.0873753544714349,0.11800559748072002,9.725042419282419,0.006056987154927388,0.05564085955197495,-0.0003375451011517414,0.998432418202768,-0.0016776184821193853,-0.021850525703247095,0.0010119547167625812
1729144103.269509,-1.0848180325070798,0.11126536654507264,9.700942872223747,0.005725243635351131,0.055648378528538114,-0.00031910024790200134,0.9984339626272196,-0.001006571089271631,-0.01949566634387873,0.0006071728300575486
1729144103.277677,-1.085677840988623,0.11679803462430921,9.712819362250263,0.00600256155939544,0.05562415763545689,-0.00033441122586444635,0.9984336785741973,-0.0006039426535629786,-0.019359820912643808,0.0020670639438826557
1729144103.286848,-1.0718285161166112,0.21875874387028865,9.76064668448883,0.011186634998784728,0.05464221642804592,-0.0006122156620951034,0.9984431443869088,-0.0003623655921377871,-0.019278313653902854,0.0012402383663295935
1729144103.293731,-1.1468371389668417,0.6620497543788137,9.967950521679628,0.03309783024646623,0.05708707891922295,-0.0018935890704711745,0.9978186274939342,-0.09812613349154994,-0.02476338009766469,-0.02224312029915195
1729144103.301703,-1.096792506768777,0.6981810013089289,10.773962036640588,0.03230731803017823,0.05057185652244669,-0.0016367931784017993,0.9981963962255429,-0.4024075596947895,0.004298024707192609,-0.06442867955493496
1729144103.309918,-1.0626955846276724,0.8443582357951229,11.006896031798805,0.03822572590495341,0.04793125471114962,-0.0018356631232523245,0.9981172371228503,-0.6926760009666271,0.07750026564163312,-0.08846294492401867
1729144103.317691,-1.3230772860793378,1.2301426831762925,10.75448619696014,0.056804348896849696,0.06067668723596329,-0.0034586881671130427,0.9965338143026742,-1.0528636225886376,0.24189189759605237,-0.06797691910558232
1729144103.326166,-1.2702925020186964,1.5197924519467914,10.685161413000303,0.07045840227777814,0.05840058087210752,-0.004132186992117403,0.995795114836845,-1.323038833367522,0.3673453506408119,-0.040786151463349386
1729144103.333513,-1.1816396320705929,1.5341284826426842,10.604062215231822,0.0716640175811127,0.054751165667447955,-0.0039397738325666455,0.9959171936583573,-1.5098339833996504,0.39494013558392016,-0.0321341119843262
1729144103.34159,-0.9445732226017307,1.889171081284829,10.097631339148858,0.09224346139871725,0.04563354839146847,-0.004231904850339465,0.994681262551841,-1.6070119212677563,0.370205070587968,-0.011192356022817119
1729144103.34949,-0.8348945194985384,1.405723377530663,9.645571730735409,0.07222766697207711,0.042597211832932,-0.003087586110352306,0.996473335558881,-1.6316891691331192,0.33109969808706086,0.10140986199766577
1729144103.357492,-1.3942133511034198,1.075671587553554,9.830910222279135,0.05432600766499357,0.06986643022604468,-0.0038105446344644553,0.9960686957074001,-1.563485955867241,0.34977979067125775,0.18216758471527847
1729144103.365483,-1.729565229900333,0.7490718844168981,9.486257321111621,0.03922445510000714,0.08970667839427048,-0.0035357049546732642,0.9951892547470798,-1.4770151913312766,0.3737585480656368,0.1782623407860162
1729144103.373661,-1.4646252939460591,0.5112135334821701,8.704617761807597,0.02922101741351514,0.08307605523655631,-0.002437042757302693,0.9961117216508651,-1.3812866562791086,0.3783549310886375,0.08099031072242578
1729144103.381855,-1.2817193157719324,0.44080341305805204,8.13244393467245,0.026985977683909815,0.07793942639312809,-0.0021104671276530565,0.9965905622423167,-1.312355903588333,0.3734503397961214,0.01070777096333466
1729144103.390893,-1.358723458359644,-0.0048656389327469095,8.126961492639406,-0.0002982836933201878,0.08273283041597712,2.476274789735844e-05,0.9965717180338833,-1.207143942754563,0.320701847829554,-0.04465814479744299
1729144103.397688,-1.3417190200841458,0.07058260760714873,8.726532005446925,0.00403180427803424,0.07620150163815881,-0.0003081279676388637,0.9970842395502543,-1.0167354378771534,0.22945614404492914,-0.05999871167250426
1729144103.405712,-1.1565002157614248,-0.15086250941032014,9.041023901754484,-0.008324799651027918,0.06355916860388185,0.0005302078713146817,0.9979432091440709,-0.8416166561616372,0.13980213673426764,-0.0487699288473635
1729144103.413711,-1.1397004785779485,-0.1791029670719733,9.185426308826127,-0.009728606859942656,0.061669361032211975,0.0006011297499322363,0.998049038254868,-0.6471504742253008,-0.036163315291732334,-0.06587130259415283
1729144103.421872,-1.0005731667854412,-0.18216087204005896,9.0527588809988,-0.010043701691736304,0.054998436223198256,0.0005532533014727601,0.9984357715847898,-0.49641556014653654,-0.21155575658710551,-0.1259378640332841
1729144103.429521,-1.255876314622046,-0.35877233621231663,8.757919695054358,-0.02041596670513754,0.07108018436774821,0.0014551569534474967,0.9972605869139632,-0.366811126044771,-0.40107785353381165,-0.24200753245162482
1729144103.437484,-1.0101842067419775,-0.34359261071176495,8.682290913712302,-0.01974093158667797,0.057826084783175614,0.0011436785259725194,0.9981308188499984,-0.2707437929408444,-0.5479949364958738,-0.3112236434411672
1729144103.44551,-0.6714722293674521,-0.07399563478643396,7.716103686410975,-0.004790021872662773,0.04338564898397748,0.00020801646918467903,0.9990468947361014,-0.20842080240240604,-0.6544498589159785,-0.3493477895431964
1729144103.45365,-0.41916390890953376,-0.1315463213015479,6.786359067315335,-0.00968580852629677,0.030831530863042016,0.0002987843835484057,0.9994776198323428,-0.17272976832519116,-0.7323705843962884,-0.373073657327338
1729144103.461468,-0.415740579232439,0.07908951678938377,6.6077538388267,0.005981206672140346,0.0314091547100084,-0.00018796075066923517,0.9994886967034216,-0.15386928824763443,-0.7416622942758155,-0.3758155463383481
1729144103.469465,-0.6550221087699322,-0.12804127161582285,7.234174090405395,-0.00883933415159158,0.045125516536909875,0.00039930192588375786,0.9989421377071875,-0.1723513045034426,-0.6361322141619415,-0.3425540947050676
1729144103.477738,-0.8594037486603968,-2.0209165110163685,10.111966976215895,-0.09837920482399515,0.04136032840694807,0.004092401899993973,0.9942806985650263,-0.22813797071044084,-0.5234341189640215,-0.3145091125573206
1729144103.485841,-1.0766036981708476,-3.557191592400837,13.91226076556352,-0.12474474248174998,0.03711531379524384,0.004669710164302166,0.9914834322932602,-0.23138597607083553,-0.4813566655329913,-0.3227978368949323
1729144103.493626,-0.5671929842833678,-4.761951277461986,15.420067583605691,-0.14917903190329349,0.017367813652598537,0.002620646989400441,0.9886541901487504,-0.06305875470225969,-0.534437164783387,-0.27839102436790364
1729144103.501536,-0.7674413667418957,-5.503481861447894,14.94521267784896,-0.17545050890102745,0.023698918700874733,0.00422476439770772,0.9841938993636181,0.14180595311562152,-0.49519522406946515,-0.18278514689483735
1729144103.509914,-0.9110535724865437,-4.497514005784752,12.652282802021876,-0.16983970565416157,0.033372994625145216,0.005755020024738432,0.9848896371459964,0.4711844576154356,-0.19665427993663961,-0.10413711733789599
1729144103.517736,-0.8880453002302074,-3.61357227798257,10.552039454162344,-0.16408547116478248,0.039176296819107524,0.006521874105461638,0.9856463062774218,0.7390504204565591,0.06037156779060748,-0.013527913334603958
1729144103.525528,-0.8795075805287494,-3.414804171232901,8.616728577282561,-0.18732043762971468,0.04644682827080299,0.008867503201250038,0.9811600853972662,0.9040268987758537,0.21884397704157604,0.06723039287801723
1729144103.533459,-0.28229887815123406,-2.917498865044428,8.25257178382071,-0.16906711446419498,0.015887261250136484,0.0027256091100260225,0.9854727174263629,1.0085467565664368,0.3156301828380053,0.11568537660558993
1729144103.541463,-0.07361126048449043,-2.3832868178059536,7.912452263407658,-0.1457592828666979,0.0044062505578100555,0.0006491917421613218,0.9893100600743376,1.0606164197042358,0.37455328643878694,0.1387987059816651
1729144103.54959,-0.28286866180827236,-2.0153543965917753,8.012444161999673,-0.12287794212807074,0.016981392657738455,0.00210288491100356,0.9922742672854241,1.0314102288593068,0.3860685051573821,0.16756585575848132
1729144103.557485,-0.45798307696777596,-2.006721210953112,8.337477424934178,-0.11777921085009217,0.026488468599411813,0.0031427914778649545,0.9926814904008809,0.9734459585134563,0.34019206876724734,0.19333994685381167
1729144103.565574,-0.8189918835341812,-2.05924155957968,8.483176828495663,-0.11865267177791645,0.04642428146801758,0.005553714417350835,0.991834404437712,0.9429242969205663,0.2786110020162039,0.21476406237147833
1729144103.57355,-1.245808073235743,-2.1692835832087454,8.773385351247788,-0.12060622290080174,0.0679365487293082,0.008273505139072582,0.9903384842855831,0.9561123645130227,0.1799373030535833,0.2395378534030152
1729144103.581901,-1.6963069618613675,-1.737793692405716,8.94176438091469,-0.09540671080535397,0.09150357516437024,0.00880769776381134,0.9911846849732614,0.9682821056831169,0.11051652220092216,0.22247537341228496
1729144103.591019,-1.8418683885426015,-2.065718584828195,9.67869175965233,-0.10448157904056715,0.09136541737237268,0.009639757213093535,0.990274222238686,0.9308864939316601,0.08333751577903456,0.10198415949918065
1729144103.597561,-2.0469999662310294,-2.3927180905941827,9.920453507939834,-0.11745731127727994,0.09812877017637332,0.011664173474103683,0.9881490128256724,0.8488525182761015,0.09810548641263031,-0.04395494948161343
1729144103.605791,-2.2421443828147893,-2.6188453148057285,10.054736649441633,-0.12630794359531888,0.10520854317852978,0.013473201254966845,0.9863041816168663,0.7864357409774434,0.1252709414356551,-0.15152584775880534
1729144103.613675,-1.748470189259186,-2.6364875074869527,10.506886631998963,-0.12220881161549325,0.07932549340164671,0.009799315375031255,0.9892807720148485,0.7630334466264956,0.10581224928665933,-0.2403327202284563
1729144103.621504,-1.2796437334285584,-2.5206589754394373,10.887352217236486,-0.11331951208766522,0.05660569040039271,0.006466756558271118,0.9919237193726765,0.7634655321056361,0.04518267692912824,-0.28808287291124046
1729144103.629633,-1.423558074773932,-2.1657730183203032,10.844607940449313,-0.09818896586232581,0.06365728546082539,0.006293808660783698,0.9931097950192554,0.7969286081871588,-0.04738615459837858,-0.31801003470529704
1729144103.637457,-1.7555517699131873,-2.1211538207578067,10.611384090441462,-0.09815567702216517,0.0799378292905167,0.007910236366071889,0.9919238048747865,0.825945945126775,-0.0735548392740025,-0.4062051919229662
1729144103.645502,-1.6758234935885372,-2.0036420593003874,10.247831345378158,-0.09607408995970915,0.07911292313086407,0.007660487125091985,0.992195661938264,0.8446334174749309,-0.05732929546972448,-0.49275180110906824
1729144103.653451,-1.6040445111921846,-2.0609853710782793,10.142466596533536,-0.09976154109340836,0.07641915563557442,0.007684843447983623,0.9920426859524715,0.8813873045715463,-0.01694428476189139,-0.5583018485875144
1729144103.661491,-1.4489284840590608,-1.8693787214262643,10.289937493320512,-0.08951327635028304,0.06850134997485254,0.006171226762364248,0.9936079983418552,0.9170617187963006,-0.016126231717603277,-0.5861382454151073
1729144103.669447,-1.158816071148327,-1.6983904127873992,9.571095231588009,-0.08753755526738492,0.05906291013513497,0.005199364414366868,0.9943951506689205,0.9299525661019126,-0.09566513144589234,-0.5696362587176245
1729144103.677739,-0.9588912454721993,-1.7157469307779083,9.048810211462571,-0.09342490807943565,0.051619361756358215,0.004850299832669595,0.9942754661731066,0.8636170037908862,-0.1744638457695941,-0.5022669084017606
1729144103.685592,-0.8971154504083196,-1.6406878423046354,8.701202115647073,-0.09292709919808709,0.050245886828681356,0.00469553136561039,0.9943932104940292,0.7795439000122191,-0.22429721473258732,-0.41757353182019097
1729144103.693962,-1.2088851552547575,-1.6954905984491875,8.507241888284728,-0.09795764309346977,0.06884446055586088,0.006792863438796136,0.9927832580259635,0.6520501366203911,-0.25334585598745923,-0.32078297923334975
1729144103.701571,-1.0143112335337137,-1.5519195897824032,8.631004178380993,-0.0886828037973063,0.057317161850862997,0.005111691072768102,0.9943962861366624,0.544052814037104,-0.27886315190816097,-0.27164813897194773
1729144103.709867,-0.682806991585072,-1.320448943810848,8.88650261811258,-0.07363355284750008,0.0378158901634087,0.0027941183132977896,0.996564223343912,0.429022993234612,-0.3371682256682472,-0.221734111864929
1729144103.717628,-0.5801513531541682,-1.1521178758079933,8.770214575017938,-0.06522677087071836,0.03267079263677344,0.0021367084685673557,0.9973332051762761,0.32509851571323023,-0.4355790890821416,-0.03683451322853826
1729144103.725498,-0.5250223145780478,-1.038669386373468,8.454317818497092,-0.06105389764822506,0.030717561492435527,0.0018798257950199033,0.9976599216430913,0.2499731273565402,-0.5282551219859788,0.13923582535698703
1729144103.733463,-0.4627356311784693,-0.9107452512088463,8.346661461361926,-0.05429432057990209,0.027484289250415166,0.0014950132638722566,0.9981455332427768,0.16616009874948132,-0.6575051223612125,0.3078801576046829
1729144103.741599,-0.31044194145122217,-0.9340683995046047,8.143682791123798,-0.0570580830139564,0.018895119500294988,0.0010800726558013445,0.9981914561169617,0.09331070832775831,-0.7393120232009731,0.4333310904566362
1729144103.74959,0.08356136222887607,-1.0162970357965129,7.963716488639122,-0.06342143063578515,-0.005193485664716284,-0.00033004720853338813,0.9979732666317274,0.03087071137039512,-0.6921902098144104,0.5750092997558851
1729144103.757491,0.09993621186857565,-0.9674719495052514,8.13801308288074,-0.05912819858237417,-0.0060861444357387245,-0.0003605002007483696,0.9982317792065708,-0.0065932868040227965,-0.5523863256794204,0.7110990327108782
1729144103.765431,0.10497271833208288,-1.1170237617441665,8.33668316466985,-0.06654727420369476,-0.006225870670866661,-0.0004152433052073571,0.9977637628233677,-0.011192703127268215,-0.4310432697897676,0.7876445917463297
1729144103.773533,0.06729319398753097,-1.4966926701324375,8.439365222288238,-0.08764749569725117,-0.003910409544760123,-0.0003440643784954287,0.9961438183389465,0.047347015929317095,-0.3335474126911781,0.8152672545247333
1729144103.781562,0.26854333460540925,-1.7649560232220407,8.949647847972551,-0.09719083337506272,-0.01464504953490887,-0.0014302914966704133,0.9951569819371291,0.10673518086660407,-0.2733471381861763,0.8169417000406043
1729144103.789551,0.4041374692691049,-1.4078087958179901,10.27694443143978,-0.0680039057239483,-0.0194242406131486,-0.0013242413597277139,0.9974950696959419,0.1887682965283377,-0.26063992686358695,0.7706947705278414
1729144103.797539,0.5625872435243535,-1.3405244413091535,11.784879114918555,-0.05658455375006618,-0.023658124673804574,-0.001341210506519867,0.998116567625346,0.16774930578414265,-0.3436875831614461,0.7037831271656767
1729144103.80608,0.7675509642786746,-0.6941813884183046,12.651093278277306,-0.027391668859518287,-0.030236849504660764,-0.0008289282461397984,0.9991670242192171,0.09766975304025137,-0.40841532909133266,0.6802380535453971
1729144103.813559,1.0387302794949391,0.2260948925349548,12.164059978196851,0.009283595003470292,-0.042571334183453755,0.0003955907499354912,0.9990502188967334,-0.07719327778223725,-0.4434207660961063,0.8112713203317822
1729144103.821876,1.1806083141813384,0.5876822089584729,11.651094605082173,0.02516269993856645,-0.05039172973247928,0.001270009145124005,0.9984116882244227,-0.23787649432725655,-0.4282403730746978,0.9439539182092912
1729144103.829749,0.37485269724903747,1.0110147819180524,11.17404532384032,0.04509473399389285,-0.016681148360770004,0.0007531031759071389,0.9988431493938337,-0.3811123310150917,-0.2692892356272176,0.9401282248892384
1729144103.837512,0.4147718099998131,1.1077152766215346,11.092041156706536,0.04973838869273636,-0.01857160582048572,0.0009250268035719067,0.9985891710172464,-0.5028117981906033,-0.1351807575656846,0.7760705855416348
1729144103.845601,0.5893185620741066,0.898782088336202,10.814910658379391,0.04142991148855138,-0.027098775556485905,0.0011240788644519095,0.9987732251337621,-0.5890278704012333,-0.03981651857759368,0.6142081827752299
1729144103.853845,0.6878216890022765,0.6347978992419555,10.748709988777634,0.029474889327936175,-0.03187727633039768,0.0009404663828693455,0.9990566478813121,-0.6714071981528775,0.073167422866787,0.4136480561801133
1729144103.861525,0.8326359845927721,0.4936456377385326,10.200461154399393,0.024155201706226835,-0.040652863065747474,0.0009830783430291178,0.9988808259807876,-0.7123209935746235,0.17671575289622604,0.2575540150602327
1729144103.869932,1.0598247792322255,0.694343118727104,9.763054518567369,0.03543881703088904,-0.05387034987055443,0.0019130863576584869,0.9979170385121519,-0.6708873113010562,0.3193001725302135,0.17411415186339305
1729144103.877605,0.8233608575295697,0.654350096089778,9.052894826618937,0.03603143310430885,-0.04518802914391655,0.0016309177139591118,0.9983271597817764,-0.5753625517342185,0.46700157328406255,0.17087614070611273
1729144103.885685,0.5234651949376637,0.7107994582886324,8.55162107932097,0.041432142698118554,-0.03043237707420461,0.0012625490028362071,0.9986769517451936,-0.4852695612615394,0.5658389752114608,0.16680488370443441
1729144103.893581,0.3262895454293951,1.093264837326695,8.432816157114067,0.06440554444574847,-0.019135444708912402,0.0012352208741175815,0.9977395626263554,-0.3980099421838936,0.6144991648313489,0.1818154220233707
1729144103.901597,0.3346374235466995,1.2844368381870326,8.345970892998908,0.07626077373215927,-0.019745214813110864,0.001510481086170475,0.9968912374620638,-0.34437710055292,0.6147483544238637,0.2138090083336822
1729144103.909616,0.003739657497160314,1.2751203927071415,8.410461355379423,0.07516172386232275,-0.0002191880833661158,1.6521287419771885e-05,0.9971713327957614,-0.3083661850211775,0.515286393797257,0.19894995520290654
1729144103.918358,-0.03797879339232881,1.5644961699504567,9.178429458491326,0.08431507864684705,0.002032224508398061,-0.0001719598524542507,0.9964370567206604,-0.2974018872386829,0.3977153690624568,0.13852602588753532
1729144103.926315,-0.08168463687524102,1.618890393620665,10.588750698776435,0.07578317946898505,0.0038017902533970895,-0.00028894477202733775,0.9971170305492528,-0.32743265385492076,0.31099653188601944,0.13930670364550934
1729144103.933481,-0.5687919625450665,1.6362040371977895,12.312178931228752,0.0659934882399903,0.022829561594128293,-0.0015102909694328659,0.99755771244,-0.44846810869847514,0.20362552159009292,0.21043966050299107
1729144103.94149,-0.9539513823610242,1.60469369429133,13.065874856295844,0.06102226853065703,0.03609461978494804,-0.0022081376141072475,0.9974811202695666,-0.55088768590695,0.12004686264674559,0.2420514930194672
1729144103.949474,-1.2769843780005987,1.8644725617896416,12.356186345662271,0.07471116137382271,0.05075409449878496,-0.0038074870958654332,0.9959055011896449,-0.5791356074379965,0.08905572004652862,0.20865871496952304
1729144103.957513,-1.5019287969663748,1.7763707331187069,11.638041216577049,0.07550213105088947,0.06322094913844484,-0.004796686336397536,0.9951278971051906,-0.5437244827967945,0.08663725682195564,0.1507366326694357
1729144103.965449,-1.2428098550841218,1.5286216207794272,11.67043216036615,0.06498083838852939,0.05246454608841605,-0.003421162529557746,0.9965005056160317,-0.42201495350703383,0.07922651802674341,0.022331569767736356
1729144103.973547,-0.9357855248668794,1.2616985913641408,10.606729895584923,0.05910484683263478,0.04360204027383034,-0.0025840799247152414,0.9972957443485823,-0.32131938193814535,0.07180024431938184,-0.06492802944837199
1729144103.981556,-1.2531561745392683,0.6660394917325468,10.706880328708376,0.031003714658724476,0.05808385440931794,-0.0018047341716149897,0.997828531596931,-0.2613277290582743,0.07883811175443975,-0.09301945547470122
1729144103.989558,-1.2048766588251234,0.899054161348122,9.82173977315276,0.04553788555793321,0.06068002793054945,-0.002771237644735321,0.9971141135452736,-0.21554186591672492,0.011119211828391165,-0.12605053342605596
1729144103.997566,-1.166571562922027,0.6234689750803575,9.189380709594783,0.033795074195578874,0.06291513936726786,-0.002131669815589585,0.9974442511651014,-0.16593446483576968,-0.09166287710069461,-0.17353903419190084
1729144104.006223,-1.0906766486907162,0.6676105085833708,8.586107416235384,0.038709537410209646,0.0628985697854349,-0.00244144957812198,0.9972659529716192,-0.06678254416888538,-0.25720050545488177,-0.23693871969129432
1729144104.013936,-1.2481680009331797,0.8609712843980694,8.083843222934592,0.052867704588556504,0.07599172778523663,-0.004034867276934687,0.9956977367483614,0.0650759186797906,-0.5544689610472388,-0.35032567186971003
1729144104.021655,-1.2617387961653765,0.48138800623454475,6.918177907637706,0.03458231616223708,0.08981026579662842,-0.0031203459240745717,0.9953534261797204,0.17100947026110414,-0.8464892808130153,-0.466035130060507
1729144104.029542,-0.6490647828261789,0.47079212991260183,6.114152105910748,0.03835938615285345,0.052662595089885834,-0.0020244101466198408,0.9978732937281833,0.3060855315355136,-1.153239701664249,-0.6099565657308408
1729144104.037545,-0.21083142584805104,0.7443167781917017,6.426372155880434,0.05761433980969516,0.016261132267487446,-0.0009385581433245017,0.9982060321067409,0.42586896389320417,-1.2730107548942227,-0.7201480705749148
1729144104.045494,-0.474855197061565,0.34435765602634916,8.449099178538026,0.020357353279679982,0.02803867456715826,-0.0005711362498114805,0.9993993619666502,0.504124374229749,-0.983888214712404,-0.837771470918265
1729144104.053566,0.5250453033939203,-0.21452547840567487,9.074719464398205,-0.01181234632410654,-0.02888270635563496,-0.00034133877861626955,0.9995129520099936,0.5238334564981058,-0.6558891982925953,-0.9419750259797756
1729144104.061489,1.2336823590383053,0.5881086900073764,9.003333606129157,0.032530206602599435,-0.06785711734087956,0.0022136882244241903,0.9971621216577691,0.5437470170268985,-0.4663265194855646,-0.9866181764352766
1729144104.069891,0.7268018861261081,0.9336985367583321,8.375359205425541,0.05542969663837456,-0.04293621940774327,0.0023858199584183017,0.9975361335092949,0.5480327322378575,-0.1997661801364768,-0.9142182823879239
1729144104.077558,0.2165328394393367,1.497549072006171,8.509018358948683,0.08698850623876549,-0.012480685562755493,0.0010898934977844005,0.9961305358246958,0.523785687492325,0.08319445123550304,-0.8107560472933659
1729144104.085561,0.5970284475600864,1.8856587876861244,7.6492502792852255,0.12046458127800783,-0.0375339164511642,0.004557983539965814,0.9919973359638627,0.5071090103376953,0.21891562514172838,-0.6933389982465669
1729144104.093663,0.34576721990323933,1.5367336136761278,8.278296665373869,0.09162353302427693,-0.020433847650072397,0.001880528990608285,0.9955822666545836,0.4919947233073731,0.21393324700867117,-0.5526499086772523
1729144104.101583,0.43323354849467793,1.975249478508411,8.983251284136431,0.10797634323829171,-0.023393591466512532,0.00254152144141072,0.9938749367239057,0.49739961317888887,0.19774742822351385,-0.4916494083160753
1729144104.109519,0.691375268256963,2.1423515108355153,10.317696627415451,0.10212898358261814,-0.032580392821926644,0.003346706681637571,0.994231858406447,0.46999286267653206,0.24294995488102156,-0.39502680943322255
1729144104.118425,1.0777796006514435,1.8449358344798248,11.382683696664113,0.08016559790309091,-0.04643058774479363,0.0037382380090973063,0.9956925745485402,0.41991929751961743,0.3058294360383368,-0.2370160856599335
1729144104.125567,1.0414716141506315,1.8161240324261758,11.65847554636761,0.0771129026696338,-0.04387399852582542,0.0033966655938604566,0.9960507693677381,0.35496857338558213,0.3354690135649474,0.04594535577025788
1729144104.135396,0.4194604660489727,2.2496651238014085,12.01045896551588,0.09243527969268023,-0.01708275110615714,0.0015860737827923434,0.9955708829876136,0.3023760569383759,0.3877336550593383,0.2493517354838732
1729144104.141494,-0.15150727994092889,2.361109855530845,11.972891464514605,0.0971974865791426,0.006177792919960163,-0.0006033343416974724,0.9952457583255543,0.2657122663325078,0.4723036976387268,0.3428743291940863
1729144104.149502,-0.8376558657672917,2.2211176711310068,11.952745165574,0.0916790148542854,0.034244414178116876,-0.003154653473032139,0.9951946173962208,0.2552076236284617,0.5864735423442026,0.29341675017763025
1729144104.157752,-1.1037775563256094,1.925953774065323,11.424946348611977,0.0833073037345723,0.047306957281364775,-0.003959257256932602,0.9953925201744427,0.2646553702801293,0.6583809696591842,0.19818593330260378
1729144104.165447,-0.8945040948305218,2.001922551304428,10.749615649743358,0.09185173510088544,0.040628092942894094,-0.003750752938464708,0.9949364545915357,0.2979938722661619,0.7091878471544899,0.05463236070079548
1729144104.173502,-0.9291121089979224,1.7489468706264066,9.62472021137922,0.08965073414010631,0.0471385549902607,-0.004247890950221746,0.9948480577073291,0.31416576290462317,0.7303067922995086,0.00255542205667305
1729144104.181512,-1.1083730674007066,1.6414541929324846,8.828875764522843,0.09160067563193004,0.06110419953873534,-0.005631519336091246,0.9939033549658999,0.3170578563043075,0.7314845277270449,-0.03805592248196511
1729144104.189547,-1.0943041981064396,1.421335478405975,7.418109289280112,0.09425881494070748,0.0715569207569549,-0.00679276281709765,0.9929495159730262,0.34092899554014366,0.7070754553573069,-0.18119025635305483
1729144104.197568,-1.1246489434244107,1.1664417045240538,6.06886705550166,0.09440056483811145,0.0894806617251581,-0.008519713641842858,0.9914681835615978,0.3833472231381395,0.6779565498457549,-0.31900504417407655
1729144104.206143,-1.2070203951073808,0.4949213606050572,5.631859493554903,0.04356078738168111,0.10487515619439083,-0.00459823975885238,0.9935202643162394,0.4986187626654256,0.6076996389175319,-0.47363553725377294
1729144104.21351,-1.3644217609902096,-0.7026263767522,7.191402999599739,-0.04845757349954167,0.09307063833839328,0.00453505943220799,0.9944692821227646,0.6891033538984763,0.4518862459502356,-0.6485720149637628
1729144104.221587,-1.541941378127329,-1.4230703804946794,9.59645066206453,-0.07330518815300395,0.07851618848386765,0.00578923784725264,0.994197184798351,0.8663962377346874,0.30603833261002794,-0.8054680890881245
1729144104.229554,-1.6415099635951473,-1.88143358083587,11.861648109641061,-0.07838261198751673,0.06765685592089164,0.0053318564816027935,0.9946106209423734,1.1004789864750235,0.15212193501782645,-1.0060282489282495
1729144104.241472,-1.595427401496932,-2.5304258003569906,13.026596823548307,-0.09560526454910218,0.059515960255634846,0.005726563111646808,0.9936220057649057,1.28179488161958,0.06062347658542959,-1.1659535205482934
1729144104.245644,-1.8742356767380028,-2.272429003163413,12.666850077771562,-0.08839813034103303,0.0719636602194022,0.0064033203276922255,0.9934616246482887,1.4067606410418714,0.05340168840973902,-1.3095859704040673
1729144104.254079,-1.7932419297244424,-1.8545081623960946,11.735853994416845,-0.0780538092958796,0.07459889103101534,0.005857067814029907,0.9941369639380516,1.357864288809795,0.10866522410900911,-1.4519565284305198
1729144104.26183,-1.4448916336647437,-1.8661601598888287,10.893304027509483,-0.08454488271705037,0.0647199536564253,0.005503106617030564,0.994300360164187,1.2642472781897824,0.14054627534418507,-1.5229054011566823
1729144104.27022,-1.5298894198961117,-1.4077185556500942,11.122793957033032,-0.06275414281109197,0.06762351379694503,0.0042618697019716585,0.9957262748408535,1.156994264442331,0.12476832104540406,-1.4654375603488021
1729144104.277638,-1.7549465523282919,-0.47281161556779083,11.646912062696382,-0.020226305249059034,0.074631550315328,0.0015140552912495061,0.9970048825908916,1.0602900115227456,0.10891619754420495,-1.3611436857843011
1729144104.285563,-1.7748197319340844,-0.741697746928565,11.541200534736971,-0.03198625629745171,0.07602561073512407,0.0024400961278813163,0.9965897008555284,0.9107440965566578,0.07088368932552938,-1.239396442502378
1729144104.293555,-1.477652205371388,-0.7263373432254983,11.050169201457418,-0.032737276753450034,0.0662410140686651,0.002174499639729264,0.9972640925638703,0.7431152663294532,0.006772248432506969,-1.176138967946851
1729144104.301612,-1.1877818920704892,-0.8653221837673303,10.544142394897888,-0.040863611755396684,0.05582551985870429,0.002286717411180393,0.9976013469769831,0.5918808508791488,-0.038079967025236944,-1.0666685528879134
1729144104.309505,-1.0990932831915121,-0.45024030244789814,9.944363565600842,-0.022585024521502024,0.054941106130364736,0.0012430422339916967,0.9982333626815624,0.4028057974112368,-0.040301272735085464,-0.760471419126503
1729144104.317593,-0.9620830597586573,-0.45377944880272325,9.321852345903475,-0.02428459892947691,0.05132343151837225,0.0012483838415196984,0.9983860000870393,0.2463660691228244,-0.0352487052390641,-0.4792701147948515
1729144104.325556,-0.9071708246247255,-0.43124265951600893,8.77835729621396,-0.024506888642785857,0.051388381487316545,0.0012614163552018972,0.9983772110209362,0.08013492170123161,-0.030514404495603158,-0.1896533547406436
1729144104.333507,-0.895053037987726,-0.39066610718421474,8.832459490033063,-0.022069913897578213,0.05041331698978658,0.001114306923501287,0.998483938123554,-0.08345727597102878,-0.03533624515584316,0.10841819923879435
1729144104.341569,-0.8157168960348231,-0.3548280078163882,8.911847158863587,-0.01987431962129745,0.04557794129254049,0.0009069527868328312,0.998762654550002,-0.21311365912257538,-0.05440557188754436,0.3519660209686859
1729144104.349528,-0.8164780843982375,-0.41281264331287976,8.78230883731034,-0.02345688908112461,0.046270885280868305,0.0010868351081947786,0.9986528918094656,-0.3419902963889472,-0.09777392253621744,0.5828070362375651
1729144104.357649,-0.794668721976833,-0.44281502129046224,8.5990015511655,-0.02569416453227706,0.04598407827742711,0.0011831659230258137,0.9986109725876049,-0.43464112096140334,-0.13699132483074428,0.740467698164684
1729144104.365506,-0.7171790798657873,-0.6525920010555273,8.39971345755477,-0.038722161312476494,0.04241541494272128,0.0016451342261239901,0.9983480456894306,-0.5225840603759915,-0.18989438044834056,0.8703963704223041
1729144104.373571,-0.6022111271186911,-0.7839648527329258,7.698589018136376,-0.05067968301242247,0.03877257082791454,0.001968998139365234,0.9979601096874974,-0.5642818824267315,-0.2514345181212405,0.9794289482636044
1729144104.381571,-0.686698681886449,-0.5807516081729586,8.012455423821278,-0.036135204519561384,0.04259538348440243,0.0015416015981540136,0.9984375312279976,-0.5573738210475231,-0.29431826158544894,1.0491053955830048
1729144104.389594,-0.5475310230967131,-0.5996027190541657,9.24321067006425,-0.03236904359823305,0.029501767814928644,0.000955861609248871,0.9990400277470937,-0.47958460358706667,-0.3587863032570189,1.0117329125427073
1729144104.397621,-0.19540100155334036,-0.7232014434442181,9.937849927429175,-0.03631238314944344,0.009797341614976878,0.00035601674081971256,0.9992923977392041,-0.4303569327420206,-0.41236628041113194,0.9314155743596924
1729144104.405974,-0.005191963236691702,-0.5033527142110621,11.319975591223129,-0.022216477351716005,0.00022904454941974621,5.089819429194321e-06,0.9997531573577394,-0.45530865810213295,-0.3742754065623646,0.8576837677621616
1729144104.41455,-0.7766817343384994,1.2985121812878158,13.324085744138173,0.048534308085110646,0.028937642059132244,-0.0014067174251740663,0.9984012494768036,-0.47751642436305486,-0.10452064660512583,0.8496283390279158
1729144104.422728,-1.1191472534937246,1.72361986370433,14.797814883982905,0.05790291229974411,0.03741850318377983,-0.0021718127851070566,0.9976183596926833,-0.5138283474385579,0.14587574215332,0.826916099205963
1729144104.429606,-0.817534653365766,1.669832458994082,12.886582509491303,0.06435294612459719,0.03134563780982955,-0.002022376118202788,0.9974327342283369,-0.6514031980015322,0.2773832127040581,0.7000551989638909
1729144104.437902,-0.4455098008085221,1.863333232720668,10.885591932452593,0.08464624059450974,0.020085247025641424,-0.0017066135826896446,0.9962071492793126,-0.7667262430718933,0.356287695034501,0.5634906700910391
1729144104.447326,-0.831858631949957,1.7471961359214634,9.381412815721557,0.09184493043878948,0.04327836371951092,-0.003995577937969588,0.9948243700992639,-0.8222979881473249,0.47301786445107785,0.36831839641842773
1729144104.453817,-1.2930324496777867,1.6214895589942842,9.664274587626293,0.08283526641173558,0.06532312987128952,-0.005441503273905243,0.9944051475049973,-0.8347822221809442,0.569023059850208,0.12819060445233374
1729144104.461489,-1.4483507161445628,1.3047300854942265,10.100466295544527,0.06402122083318747,0.07042857365450668,-0.004529532914385937,0.9954499397898408,-0.8358874116791855,0.6032132237092742,-0.06313766754960816
1729144104.469822,-1.4934182226554877,0.9288843525660673,10.343267127180232,0.0446490157926898,0.07128158978400134,-0.0031939873219566897,0.9964513027697824,-0.8050494608299398,0.5913748773535996,-0.2605185026744074
1729144104.477596,-1.5403306003413397,0.779751945768156,10.09462261273392,0.03842185703363105,0.0753614717003827,-0.002905955585431486,0.9964115439452592,-0.7652621872472909,0.5855489397245808,-0.40789392792870516
1729144104.485739,-1.7298472188473817,0.7541976860155811,9.520225689222384,0.039352467611151784,0.0894062765021446,-0.003535287259308638,0.9952112352455279,-0.7060575479963529,0.6063177106505053,-0.5069614346178346
1729144104.493818,-1.9474655420017883,0.7716656929081768,9.39561466768382,0.04074077346192372,0.10159506633290429,-0.004164118997289345,0.9939825410878772,-0.6535071619873088,0.6404891663406237,-0.5557596870947614
1729144104.501607,-1.9130760415096666,0.7857377995339686,9.445585961254823,0.04127145866360386,0.09933172195384084,-0.004123524567258833,0.9941895554966399,-0.6245310707506546,0.6626948000005428,-0.5875927789496898
1729144104.50954,-1.9894075084507215,1.563916897249678,8.381657998872035,0.09147330011756637,0.11387572806636667,-0.01053011466385812,0.9892189194552046,-0.659930983629954,0.6564364373692408,-0.6058412539397227
1729144104.517555,-2.0316150861251203,1.2203870939162131,8.429239997077127,0.07131654181099337,0.1165098378928367,-0.008388007754050813,0.9905902532653064,-0.7224628673193505,0.6650264315728587,-0.5984856662908751
1729144104.525757,-2.0291668934719476,1.3604707719747278,9.859115427689636,0.06814852786327001,0.10015865459673398,-0.006876474653850197,0.992611069934129,-0.7574278571642163,0.6863566504305865,-0.5570372783543698
1729144104.533474,-1.9652093145499652,1.4433238779797588,10.325109874289561,0.0690748855838602,0.09279820464915577,-0.0064534891447614,0.993265073317958,-0.753291137444876,0.6493490445541655,-0.5274856549163842
1729144104.54146,-2.1047239505463855,1.3369337933405896,10.18931255421241,0.06483992156748102,0.10062040280073112,-0.006571613101991238,0.9927880604704004,-0.7648568776415188,0.6352325921960915,-0.4748480958137063
1729144104.549482,-2.2382321266754874,1.12250445813326,10.686512703425882,0.05201711402802759,0.10236048046696726,-0.005360023311229762,0.9933719454649752,-0.79180375464822,0.6565610250835894,-0.3023621500081671
1729144104.557477,-2.397824527470136,1.1188241836690185,11.130160833725451,0.04978141901301384,0.10525141885955273,-0.005275518508864929,0.9931848357952131,-0.8139315417127091,0.6327487395303533,-0.12267206152313986
1729144104.565438,-2.613768891286769,0.9684149362268017,10.834430582266519,0.04423616620565786,0.11751912581810268,-0.005240144453646222,0.992071044609447,-0.8182687226606999,0.4894772795754161,0.07411121441344103
1729144104.573602,-2.5716712505435457,0.6839996331227998,10.514537432611863,0.032232943853911074,0.11934471381319421,-0.0038765961662858097,0.9923219480680254,-0.7676597735467405,0.365627988132333,0.23773001655182696
1729144104.581532,-2.3871982556972213,0.7324199031646955,10.073365149996805,0.036028340315941605,0.11571240910507118,-0.004199920423036828,0.9926202485047438,-0.7040905792843264,0.2798247816070083,0.3759161636122895
1729144104.590078,-2.0708525361820045,0.6436773435101454,9.106203013337927,0.03504856459610393,0.11123466562266195,-0.003925433207618846,0.9931681822620476,-0.6110350447982758,0.1508672665057237,0.5418374138336632
1729144104.597558,-1.9811227338674056,0.7302531846705403,8.632926545551584,0.04190452591093818,0.11206508808221446,-0.0047300641371304025,0.9928056472616197,-0.5339172210335439,0.027092540745591503,0.6656544974698232
1729144104.605596,-1.7963220216680995,0.6871488834585743,7.882809601647356,0.04318009047841297,0.11128014271057449,-0.004839745249073188,0.9928387515052555,-0.45188856161189406,-0.14295255853944494,0.7118492035950251
1729144104.613609,-1.7783366187625786,0.43407656518256643,7.936958304933727,0.027142626734787966,0.10978653923802499,-0.00299914962230445,0.993579991101681,-0.35116286852199835,-0.288400004379594,0.6761382081123036
1729144104.621533,-1.6545390586598907,0.3531015433575867,8.120761071827424,0.021611382475303413,0.1002108677868517,-0.0021771710343410694,0.9947291038525009,-0.26348328873449095,-0.39439883458801284,0.6317243475037209
1729144104.629485,-1.4804223133697625,0.09167200267470825,8.156822480498798,0.005595534370418615,0.08964284638526816,-0.0005036352563137684,0.9959581298621871,-0.18746258748157474,-0.5563325369107934,0.573574966590381
1729144104.637482,-1.3850502325042793,0.2666506283626375,7.832976026141076,0.016945965857314036,0.08733324861346606,-0.001485839236011882,0.9960339001306863,-0.13801895617666673,-0.7173462675237665,0.5122925542317311
1729144104.648614,-1.3565574039068644,0.3194442075839888,7.37937611373152,0.02153643080694441,0.09067137284579772,-0.0019612770686619546,0.9956460403610391,-0.08281137370600004,-0.9322963429779951,0.3610124802832546
1729144104.653597,-1.2283707497171656,0.3549510777730495,7.603773590602193,0.023243799614224646,0.07988923942988331,-0.0018633936515936277,0.9965309643793854,-0.020739900044181876,-1.1029840142738112,0.12593550507854
1729144104.661588,-0.9759637755138932,0.32262508269898593,7.867220126041003,0.020450958059536527,0.06160864481553048,-0.0012626198842128138,0.9978900435365957,0.026293855566535757,-1.2113562779117695,-0.08109263957090361
1729144104.669589,-0.16467761345286713,0.30753904864282905,7.517477875185149,0.02044083887885777,0.01093957696790729,-0.0002236742565872256,0.9997311877357427,0.06728481077682727,-1.3146917416261272,-0.3142861820948498
1729144104.6776,0.525361804731014,0.478531393052885,7.611935555677495,0.03136719792639574,-0.034363059807201606,0.0010790420724369717,0.9989164703232892,0.10550146586978718,-1.3537057565357922,-0.46569593926869246
1729144104.685524,0.5927050552507178,0.31752519691571535,8.453908308504154,0.01875792295508669,-0.034959954769368064,0.0006562930046104125,0.9992124454631393,0.13524249990895565,-1.116591847866828,-0.515249857611181
1729144104.693562,0.10423185883402442,0.5539549301611479,9.85260801977046,0.028078431852785482,-0.005278912802909611,0.00014828412696967004,0.9995917730534427,0.1352081377510514,-0.7780803843314528,-0.5385968576947436
1729144104.701537,0.22342946686291465,0.7594985342685637,9.654180847018525,0.039241569354434916,-0.011524812632151224,0.00045263050156158576,0.9991631863985101,0.1334847602104607,-0.5873185179926266,-0.5670785198345902
1729144104.709648,0.28010398138728004,0.9826629059615289,9.280620906892755,0.05271450575921264,-0.014980981345531693,0.0007909038086975659,0.9984969331708797,0.15416092682066992,-0.5018083223687491,-0.6016208096384416
1729144104.717546,0.35337359732846174,0.45169172795191737,10.152550462836825,0.022225252088875807,-0.01737382420691529,0.0003862913897562113,0.999601940364751,0.18699974973697298,-0.44071133358079584,-0.6074470313695812
1729144104.725481,0.9745773871568426,1.1384342982457596,10.625669381706002,0.05328373893235461,-0.04539244431070676,0.002424633494945296,0.9975442297549033,0.1973378621345901,-0.4521561172532334,-0.5777389396142265
1729144104.733455,1.4816143741886367,0.2731732547287058,13.184511150507976,0.010341104880565444,-0.05590886868184125,0.0005790963637678883,0.9983821535864748,0.2133316009867871,-0.4551917769035377,-0.5573599441922416
1729144104.741538,1.5100245351577133,0.12511788594269221,13.275873190548925,0.004704214516843878,-0.05659426404467193,0.0002666619129509796,0.9983861419983981,0.26294271007553627,-0.35740169831160484,-0.5757822313643168
1729144104.74948,0.725252495752831,0.16006489050116218,13.764519755393808,0.005812012519631274,-0.02631539942272929,0.00015300100355156103,0.9996367824637041,0.28376988423808314,-0.03309705280413744,-0.5157453634034027
1729144104.757413,0.29413301966849553,-0.09118763552352144,13.480705094203081,-0.003381886519479554,-0.010907149036366486,-3.688914562423194e-05,0.9999347956655268,0.3141451713170166,0.23342735488742633,-0.40778162223977094
1729144104.765466,0.047432342318675415,-0.05614910231020661,11.701512781863645,-0.0023991982326609478,-0.0020267194671698893,-4.862525745204628e-06,0.9999950681040369,0.4004807533983017,0.3592867945854021,-0.22508723051660912
1729144104.773563,-0.0029046363568416287,0.029756882608016656,10.355072901051779,0.001436821857276982,0.00014025112655710717,-2.0151609413769483e-07,0.9999989579357227,0.4850602373796492,0.44033642920319394,-0.07758418001259118
1729144104.781693,0.18380784684800439,0.2800192113519194,9.363094864898645,0.014947586347634595,-0.009808650793866754,0.000146639094002679,0.9998401564895061,0.5685860625010342,0.5191902043376733,0.018154381334674098
1729144104.790166,0.3006237400912245,-0.22056740263220775,8.563682641595436,-0.012872807819303262,-0.017536877246711047,-0.0002258022932366292,0.9997633208757988,0.645520031445973,0.5826786917539182,0.07006354734402684
1729144104.797658,0.13608151334184407,-0.3959420443625278,8.146523970943589,-0.02427891511823442,-0.008338944329676252,-0.00020252726982006918,0.9996704233250342,0.712964915886038,0.6322654158631398,0.11993940965396789
1729144104.807311,-0.30405697944606547,-0.8593393977600947,7.965421196530998,-0.05369814025098999,0.01893833446288526,0.0010186064478077158,0.9983770889109291,0.8113256949089134,0.6986267956144077,0.16220993882233142
1729144104.813688,-0.8753161481168581,-1.2520600693201192,7.809593759178363,-0.07927615041151743,0.05490840591371798,0.004373351865092421,0.9953297105629918,0.8984377063791326,0.7482344948787951,0.17437586441802658
1729144104.821527,-1.4483938490263648,-1.6550471683010557,8.896917555555845,-0.09153086836278156,0.07893462696555502,0.007278509090947108,0.9926421551133,1.0030647908210941,0.7652284125935666,0.12293019129368331
1729144104.829484,-2.312500490324022,-2.4436750868693053,9.553621396370616,-0.12401919462296314,0.11401787230391058,0.014346957439054,0.9856030280861574,1.1156467786773288,0.7413695583054669,0.004370634757898825
1729144104.837472,-3.0052623559619915,-2.588127950070802,10.600781913750103,-0.11832218283029819,0.13300909483344264,0.015995507963626327,0.9838966335275506,1.1942639129890822,0.7164119941960563,-0.12210480715363596
1729144104.845496,-2.7345018593779757,-2.5732855176010747,11.56043573394342,-0.10856095855392578,0.11253510010334257,0.012370033758683653,0.9876220693096082,1.2444140240063684,0.6226847943599341,-0.26950600262617813
1729144104.853437,-2.618014233302566,-2.443472874281348,11.899680902035973,-0.1004967771667026,0.1053905330347175,0.010706158954270366,0.9892818665507875,1.256625108035335,0.502594965238956,-0.36858897144625424
1729144104.861451,-2.823215428409274,-2.3452345741781837,11.59350246944424,-0.09892070602203368,0.11630041743915588,0.011641809494546252,0.9882071519146545,1.182644956713467,0.40627673426303335,-0.48848674146590837
1729144104.869441,-2.8101060710104084,-2.0064094200440197,10.946517388648966,-0.08979570780491716,0.1228468107480194,0.011161800210459968,0.9882918628446336,1.0441793623372368,0.3433775149399354,-0.6425835853398729
1729144104.877526,-2.635843441190229,-1.9086986207764118,10.326328199302662,-0.09054264947471759,0.12214006596976272,0.011189681415691861,0.9883109955579851,0.9159768591965236,0.27073139830619003,-0.7563261947373532
1729144104.885538,-2.497288199723903,-1.4799285645556908,10.072727667872613,-0.07232731550929564,0.11966292570882482,0.008741103484883089,0.9901379382449143,0.7926551406127342,0.1556277980003215,-0.8079698479788222
1729144104.894302,-2.1847905358011386,-1.2667198413701333,9.759437577286068,-0.06409138946982522,0.10878573921465325,0.007028654846462144,0.991972053411989,0.7318585013677835,0.0516590527769138,-0.8278880983256909
1729144104.901617,-2.111255936470917,-1.1378369267947361,9.360055516342342,-0.060066502769975244,0.10971579082323699,0.006642559630287609,0.9921241539699426,0.7273072724304656,-0.07159587314620135,-0.840690428656736
1729144104.909522,-2.0455873619313785,-1.0320161782936386,8.97701360033275,-0.056829962533517964,0.110901538566488,0.006352173220331207,0.9921848890188781,0.7092516928554415,-0.19407749570674204,-0.8432635461178188
1729144104.917544,-1.9357966883990616,-0.9223156371519644,8.992833541059024,-0.050784134034614264,0.10514256860256707,0.005376429409031432,0.993145057886721,0.6626603799476165,-0.2790601009025413,-0.8247999837057529
1729144104.92553,-1.667612243996468,-0.847397346158366,9.197452940797524,-0.04573062003627733,0.08909895771860955,0.0040951739710627325,0.9949639770738947,0.5291344569603377,-0.3385634652492615,-0.7234755532285627
1729144104.933501,-1.28188604146624,-0.7327751032516603,9.096845565748046,-0.040077012477361784,0.06966088361673539,0.00280087091679971,0.9967614305774137,0.4064498970217672,-0.3891646360084647,-0.5988273857229438
1729144104.941557,-0.9738358668231034,-0.6960840597537306,8.799934016694921,-0.03939616948844666,0.0548671616083697,0.0021665090537711052,0.997713807985636,0.28516187417487737,-0.43612725086100584,-0.38356076493710206
1729144104.949449,-0.7913999636973776,-0.45691534307880083,8.991691243757186,-0.025357713621521553,0.04380975086429983,0.0011123418004262795,0.9987174048672707,0.18386782634878737,-0.483886562599784,-0.11562583242897473
1729144104.957412,-0.680741320991864,-0.4067879778199368,8.763656482094156,-0.023171999266386543,0.038699445656610536,0.0008976575352687013,0.9989817844019074,0.10350965482587991,-0.5393606235151589,0.11452260709421283
1729144104.965423,-0.5667015223314465,-0.19690701398688396,8.228679889012353,-0.011954761718077694,0.03436121505751233,0.000411052299532325,0.9993378916102613,0.01527988613470447,-0.6262820078085998,0.36073694641948134
1729144104.973545,-0.4065797195512117,-0.3458327862729898,7.914397697811707,-0.021825244712384048,0.025630178080715514,0.000559702226780439,0.9994330589880509,-0.05936816821456441,-0.6967395110275317,0.5472033456076874
1729144104.981547,-0.11466094208228951,-0.9923189759630126,7.0130745488628055,-0.07022099288033994,0.008073397853858699,0.00056834365310488,0.9974986262604498,-0.12331305358991715,-0.7458250539422834,0.6969696005907318
1729144104.992292,0.06432104705531379,-0.7639431824528076,7.552065608223932,-0.05038514555158395,-0.004231389212129403,-0.0002134722189134053,0.998720875361426,-0.11272562774699517,-0.730153233176159,0.820458868436059
1729144104.997521,-0.015037488954311727,0.27880878169042494,10.443241524358188,0.013345196461581055,0.0007196416183680487,-9.604616568419753e-06,0.9999106898893991,-0.07785193812328586,-0.6930802867214523,0.8873156980984007
1729144105.005561,0.6043719719594441,0.3403860490435518,11.748187876040694,0.014477219403383026,-0.025682988469733974,0.0003719799834779039,0.9995652334152593,-0.09736828018795327,-0.6699851387257042,0.9001856319622358
1729144105.013547,0.7964525239959789,1.153053747346053,11.756152609657619,0.04883582480590081,-0.033614590222766236,0.0016444911038355702,0.9982396591944703,-0.15292416175734297,-0.6327150965478436,0.9360031363370308
1729144105.021542,1.02279181224915,2.0857364549506006,12.661869534544572,0.08147213439564958,-0.039624672626017786,0.0032416546311652018,0.9958823566624475,-0.2467056794265853,-0.42645496468952965,1.1175531020716316
1729144105.029545,0.10825911689050553,2.5040881815641103,12.557668140404477,0.09825300731607038,-0.004206686390902571,0.00041533291932831294,0.9951524897429151,-0.39364657311954343,-0.191168089471489,1.3409937080456786
1729144105.037509,-0.6087728770336654,3.065387752688466,12.735764570766122,0.11779187380208592,0.02305601794718625,-0.0027355985614204666,0.9927668462449395,-0.5013928521625717,-0.02019766003832238,1.4171642232712705
1729144105.045468,-0.6777070428705899,3.1656203713396422,12.320925887235065,0.1253680079329612,0.026398742790042725,-0.003337077292590546,0.9917534133448543,-0.6418134505286304,0.15858311862328126,1.2666234140726291
1729144105.0535,-0.6704652486715726,2.854658685206129,11.189519945182836,0.12451638611134408,0.028767255973982293,-0.0036116322943359684,0.9917938650171559,-0.787365178398798,0.3028866211674402,1.0788159044786392
1729144105.06148,-0.30148325931036546,2.350849953555318,10.116830206855795,0.11389889749305881,0.014414382416506584,-0.0016527126493501697,0.9933863977679155,-0.9070486597920131,0.45417361203616435,0.8179912573334582
1729144105.069474,-0.7255708332717661,1.7787381874652217,9.426050591154493,0.0930515136008991,0.03757522812461167,-0.0035141932447913,0.9949458118379128,-0.9895010001644928,0.5232356134228353,0.6495771473254127
1729144105.077848,-1.135407065392747,1.4749754552037426,9.434877675249336,0.07731977062967892,0.058958706044668414,-0.00458042609280333,0.9952509953514845,-1.030884293220202,0.5229551882315586,0.49872294412952767
1729144105.085514,-1.1397338571555702,1.3078012863058393,9.030526021653507,0.07170387515682987,0.06193080958588109,-0.004460790729254821,0.9954914517250265,-1.0037800815552598,0.44956824254532324,0.15833035613378413
1729144105.093499,-1.2062551165394357,1.1818788272034253,8.723032164505776,0.06712157140675934,0.06788508297953928,-0.004577508361695586,0.9954222001633011,-0.9624018409300347,0.38850847267510075,-0.1570103027052522
1729144105.101504,-1.455181677101396,1.2562023756677583,9.151690895383153,0.06793680883121077,0.07786201053334169,-0.005318242180187518,0.9946325017923204,-0.8775525978887531,0.3744341840104549,-0.4454004823293274
1729144105.10951,-1.5990309496202124,1.267038261338155,9.795310281858798,0.06405899460393909,0.0799997450104686,-0.005151899916544786,0.9947210382493388,-0.8066356191752686,0.4285660498465861,-0.6495099645905009
1729144105.117553,-1.80696595746744,1.6496688735509397,10.132400779710983,0.08029179937847716,0.08672331247442466,-0.007012490869935137,0.9929668267358325,-0.7657881921930261,0.491269163712069,-0.758779262041882
1729144105.126738,-2.0126509782890576,1.4540370260348607,9.921176451713308,0.07232634774665392,0.09862046211169202,-0.007186995647788427,0.9924672543555607,-0.7698009701216367,0.6046638629716005,-0.751122149941241
1729144105.133516,-1.8743757493269502,1.2610011450642757,10.407118059748688,0.06000793238894596,0.08818813350916194,-0.005322429563130873,0.9942804297089023,-0.7819995082924298,0.7003705365223514,-0.7405682218203882
1729144105.141481,-1.5517510257680451,1.3106189511987218,10.676656369296477,0.06087139221574876,0.07144000754115713,-0.004367975880951286,0.9955761747445241,-0.7552634262779432,0.7275705462889976,-0.7776562512170037
1729144105.149463,-1.471900770490124,1.2656905430825143,10.37390423295484,0.060511857538895444,0.06977433699960979,-0.00424033709974742,0.9957167652172668,-0.7145317535044533,0.7209032888300357,-0.7437179807419847
1729144105.157439,-1.8585382186417305,1.4781536642284148,10.759678744606887,0.06795443226937492,0.08444297801822802,-0.005772379726022566,0.9940916749629576,-0.6900927498403594,0.7305250163214435,-0.636939935980181
1729144105.165439,-2.3917112563803506,1.3226369006854863,10.93679507391257,0.05978138176148166,0.10649623653285799,-0.006414642904625401,0.9924936223248146,-0.6992679910837768,0.6703160932896733,-0.40898243546021656
1729144105.173536,-2.6888701632520386,0.8172847368468386,10.443556775792855,0.038718713044517725,0.1252032239707541,-0.004889940875847047,0.9913632545367698,-0.7175438376736882,0.5439444464406605,-0.24198394078443367
1729144105.181551,-2.3232028901875514,0.9945897117370095,10.188794065475712,0.04831977548701787,0.11121551406808916,-0.005413938440146158,0.9926061645980349,-0.7097789829233057,0.35105669142919416,-0.09027634654205811
1729144105.189562,-1.8200896296203433,0.663552053360565,9.717986458816677,0.03392970175810367,0.09217792095956542,-0.003142782481196851,0.9951593486193324,-0.677024526016582,0.20084314344388976,0.15569939237554672
1729144105.197551,-1.4894912533581435,0.6904632547214171,8.734719068893522,0.039286468812811344,0.08402787733979122,-0.003315471037504719,0.9956831307448111,-0.6403442494140665,0.08049102028890287,0.387997157957054
1729144105.205542,-1.3991107224738704,0.5291996325203502,8.354490700369317,0.03151128533109844,0.08266531744911197,-0.002615153254473791,0.9960756222101188,-0.5642734456468793,-0.05983066343801432,0.6299671221183079
1729144105.213543,-1.3930058573124473,0.7886986662309602,8.044232562311432,0.04866200895660426,0.08512746525275439,-0.004162568922603947,0.9951723451563116,-0.4943666298832311,-0.19638355123399454,0.8049474049174024
1729144105.222725,-1.2416206957839526,0.6441651982737324,8.005560501742327,0.04001232786219531,0.07655358026785908,-0.003074593458959102,0.9962575519624847,-0.4170902653236936,-0.4004883315511857,0.9448421596367457
1729144105.229563,-1.4012230925191997,0.45736748810486444,8.059929399189928,0.0282299151551959,0.0857893782245878,-0.0024317720680288014,0.9959103076877848,-0.32474991995007163,-0.5902102294525013,0.9994063982274716
1729144105.237573,-1.2369742302673792,0.4913351632730749,7.869411142931924,0.03107437945889949,0.0776906415964676,-0.002422691690486879,0.9964901794370812,-0.24252723885379052,-0.7568289358145828,0.9993668066493306
1729144105.245494,-1.0462481490002713,0.4094833574853293,7.201081925016967,0.028321058465512347,0.07193439752667351,-0.002043377975073255,0.9970051076631045,-0.1438135830664262,-1.0057916811435426,0.9814640691210407
1729144105.253518,-0.9830484157673504,0.32398040877830697,7.206140995830493,0.022408876204274404,0.06765421356177734,-0.0015199216016764257,0.9974559837370889,-0.06798347719698834,-1.2241311182977677,0.9766820874645352
1729144105.261517,-0.6944556620092383,0.28776211001307794,7.733267181726811,0.018576451375323298,0.044726945165662474,-0.0008318443634120928,0.998826172997786,-0.01907989318362939,-1.464537126386045,0.947845804721448
1729144105.269469,-0.18826655882663673,0.9332951334394873,7.801503601272414,0.05949256280672873,0.011956820511931324,-0.0007126554031146886,0.9981568822265412,0.021330198822398803,-1.619422982775562,0.8317839408164043
1729144105.277566,1.0381722229071428,1.0948417309425986,7.266161113400168,0.07451485832700655,-0.06992347444549159,0.005237827841643688,0.9947516316998319,0.05366436519379432,-1.605931981243764,0.6757317399965856
1729144105.285515,0.11222011963295764,1.306930789297981,8.606531572825256,0.07527810731163699,-0.0064268918036654915,0.00048519104901529193,0.9971417483041053,0.07519331532394177,-1.187472161075287,0.4177840557803503
1729144105.293515,0.6057880251489152,0.07403826117644466,9.740674837249841,0.0037984805749449214,-0.031049685166419972,0.00011799937278038536,0.9995106175886957,0.09236758601665057,-0.8065608002282811,0.2447107726077417
1729144105.301569,1.1300961866713803,0.9506282850750074,8.554162341314747,0.055187371415183636,-0.06513157322824288,0.0036076337223951665,0.9963429214803614,0.11459147015321272,-0.5546010303396659,0.2613370900979315
1729144105.310476,0.33879933675868756,0.6484279451660983,9.478452258304474,0.03413988022211908,-0.017811518078817302,0.0006085345358165193,0.9992581488723853,0.12579735032783987,-0.37745807465731285,0.3377205301801223
1729144105.317644,1.1798744592329469,0.3634388093359871,9.821378781740496,0.018458620595095846,-0.059693920895040706,0.001104025323607782,0.9980454379746384,0.14869710076817336,-0.3022476757346293,0.31671725457989786
1729144105.325541,1.4630558791530495,-0.21480837455465776,10.936452486329454,-0.00979676350368412,-0.06642932873538097,-0.0006522646997458582,0.9977428237072823,0.1913838752117916,-0.3154409748013175,0.09680422928775377
1729144105.333753,1.8170788387711267,1.0768349313218928,12.59765387705158,0.04251004394380797,-0.07124365168855162,0.003039061472979614,0.9965480431787217,0.2676530571919443,-0.2893017493243679,-0.1309238497164898
1729144105.341458,1.5099508542880664,0.11889775322672944,12.733898634824696,0.004659946594233265,-0.05897564226842828,0.00027530553891843017,0.998248507498822,0.3627946135096316,-0.14761395584543682,-0.3109810833881631
1729144105.349454,1.4190479283443242,-0.0996073465991186,12.584365609117475,-0.003951003680108297,-0.056112548600457994,-0.00022205248225340673,0.9984166075101997,0.4245621379763263,0.050206586529360234,-0.3611215752323308
1729144105.357417,0.9639562350339382,0.2759026647944351,11.966963747794702,0.011515708383741639,-0.040164842589349874,0.0004629309391735951,0.999126598372368,0.46247403277926724,0.1842237541668716,-0.3920572504617555
1729144105.365427,0.4146103474656754,0.5352063352047861,11.08152985390143,0.02412310788979419,-0.018670276130276633,0.00045059482001673145,0.9995345383823736,0.4924579007058863,0.3148654820018981,-0.45063352137684126
1729144105.373724,0.25211809080362396,0.4717190855466997,10.662078735094763,0.022103526589318596,-0.011806210000127628,0.00026104085905225217,0.9996859403709838,0.4938463090648385,0.4273057236198766,-0.48918480441758894
1729144105.381622,0.3581298779196744,0.48629917227528546,10.010815806730685,0.024263203218118246,-0.017852274089907676,0.0004333500518541512,0.9995460997308466,0.4921252137114376,0.5186085120325374,-0.4727263985260687
1729144105.389613,0.620695108148289,0.2807661757284525,9.220465792632162,0.015210940530480145,-0.033582119527115095,0.0005111631769289483,0.999320072473505,0.49236962668378315,0.5461460211465639,-0.38878128429676306
1729144105.397615,0.7736852631311609,0.3128300655444934,8.876021514153514,0.017596709594854664,-0.043425763329070784,0.0007649909780541034,0.9989013833605024,0.49123920428280443,0.5588373160618214,-0.2966965897359006
1729144105.406401,0.32175615909939964,-0.1747840920209602,8.246060093550703,-0.010594157281374115,-0.019493094400259457,-0.00020656375572777766,0.9997538399194148,0.5233390855747937,0.6017843681123247,-0.19845107679171786
1729144105.413597,-0.09065920126887582,-0.45274795643327925,7.871913963845265,-0.028721081539436238,0.005746239255729427,0.00016510904881777104,0.999570934425678,0.5804854298201081,0.6582022837678929,-0.14801757025444887
1729144105.421482,-0.625412616708591,-1.0938176239576238,8.051328106090363,-0.0674113918883189,0.038312903573042165,0.00259053398682152,0.9969860153468278,0.7118305703806398,0.7686772442243995,-0.14713008057296764
1729144105.429443,-0.805964448687264,-2.0633628900484022,9.081941331427656,-0.11136071145338937,0.04287933935410949,0.004809495782121554,0.9928428994314619,0.8779041173166754,0.8511384428338606,-0.18022710161957942
1729144105.437449,-1.246131897972124,-2.415486110493885,10.184177422147608,-0.11596344511962065,0.05881388353394914,0.006878821289186032,0.9914868069305387,1.0188401814401138,0.8669856471440369,-0.22051843719772402
1729144105.445416,-1.7374421050918682,-2.471855195349065,11.049505058024891,-0.10948875857949361,0.07559714162122262,0.00835158401073568,0.9910739301222355,1.1932224228826653,0.8334992735224773,-0.2821539639532695
1729144105.453481,-2.12608093444184,-2.842780240012173,11.939084636377434,-0.11616497137890518,0.08507663307543357,0.00998750240168886,0.989529138391014,1.3276500720505386,0.8040422679973769,-0.32211511043683105
1729144105.461452,-2.200768082149479,-2.8206478571420694,12.0229618914456,-0.11449898834227926,0.08748062951120955,0.010122606116996464,0.9895123313907297,1.3814881876791545,0.7157035144796194,-0.3703561318303038
1729144105.469445,-2.4526788143775775,-2.672096033621179,11.733311608744314,-0.11113725312730749,0.0997341742622841,0.011210588342679163,0.9887243944399006,1.3759046415862033,0.6388616189270911,-0.4325045694604259
1729144105.477758,-2.435512877005453,-2.324870000543801,11.060090972814946,-0.10280245242757846,0.10535926473662235,0.010951154378605346,0.9890455769714608,1.2767742501014754,0.602973043070663,-0.5217278195368671
1729144105.485522,-2.4685483646310065,-1.9683332979337025,10.642751061960453,-0.09071521849299932,0.1114193984883072,0.010213949243443593,0.9895716962479897,1.111724879968055,0.5090725871082608,-0.5607883074930227
1729144105.494629,-2.3598010280559474,-1.4608821528324871,10.32435178829932,-0.06977258294474428,0.1107779410561477,0.007796607691618115,0.9913623189092283,0.9679978014344893,0.4003724359709895,-0.5684740679926208
1729144105.501588,-2.1444361820191156,-1.2737273471194142,9.72557968137803,-0.06467481072665175,0.10718522672241407,0.006987323312863499,0.992108700366476,0.8149282146648109,0.2768328068683284,-0.563294652878753
1729144105.509565,-1.9692486025220162,-0.8324711555861016,9.781231564930332,-0.04222319659162097,0.09873758624614573,0.004193302096951664,0.99420848263802,0.7175524918039975,0.18525573688678848,-0.5512475125197296
1729144105.517557,-1.6436300819233658,-0.7302837333907235,9.091094953362497,-0.03990238485155249,0.08896111961274898,0.003566777506821075,0.9952291178309755,0.6906281226356998,0.05155683352738864,-0.4290829117095671
1729144105.525529,-1.319690340413785,-0.6701683809035747,8.801032632417888,-0.03788200974661288,0.07408589052585832,0.002816300271329524,0.9965281243473912,0.6361613956031383,-0.10954362016603725,-0.16294655338116923
1729144105.533511,-1.2136725367678023,-0.9700056623312073,8.655725659773,-0.055631839346316776,0.06906328170431061,0.003857344453931175,0.9960524496556095,0.5553783824383919,-0.22919115570104248,0.0857044844614341
1729144105.541452,-1.039449737880994,-0.5465692128284119,8.668140265248566,-0.031422526877401914,0.059491261747813357,0.0018736144148368478,0.9977323810267544,0.42006780200128957,-0.30949347825128626,0.39197473984648573
1729144105.549478,-0.8647659499063306,-0.290352561632594,8.731134507049529,-0.016599498844757764,0.049307068990041523,0.0008195828568887185,0.9986453814391046,0.296312447592825,-0.36065470221166673,0.6672602562918535
1729144105.557465,-0.5645888216527827,-0.17899994029986888,8.693513699835187,-0.01028776640372412,0.032412058152135104,0.00033364066495239513,0.9994215872356729,0.17055073751084046,-0.43008923218093986,1.0112213919731274
1729144105.565472,-0.35982226760104463,-0.21896976154320258,8.042942120047597,-0.013605225802093147,0.02234171818519282,0.0003040681825969166,0.9996577679395823,0.07636334875732034,-0.541563120242277,1.3333857700995644
1729144105.573545,-0.32004113277742363,0.032860376960797216,7.836952700007073,0.002096034357874698,0.02040574315174683,-4.2780140408960954e-05,0.9997895830904896,0.007505903722809355,-0.6373943772584975,1.5573340814006928
1729144105.581545,-0.0924258906039542,-0.13470978090359978,7.704979342172212,-0.008740570089588427,0.005996333613048673,5.241431884836186e-05,0.9999438202571428,-0.05722151667830897,-0.7306510966310402,1.7129875712544713
1729144105.590014,0.03696064971965873,-0.17659393494840986,7.870003896807233,-0.011217281388861024,-0.002347439629302487,-2.633362023202077e-05,0.9999343285596161,-0.09988917947213825,-0.7568068239522239,1.795311723568726
1729144105.59756,-0.30343503594945476,1.0590621668629854,9.986372948435902,0.05279707680368123,0.015081497392024737,-0.0007974623051729968,0.9984910521237896,-0.07696111014176421,-0.6575639437501855,1.7914949572745247
1729144105.605566,1.1029070094361866,0.45132319245177555,11.985228784930682,0.01879773516154669,-0.04582538392604347,0.0008624723621993872,0.9987722140119095,-0.061927198359153696,-0.6256880696239944,1.5963672996557035
1729144105.613519,0.20684589023202446,1.978338539494503,13.385894646446689,0.07329727564686024,-0.0076220112616247745,0.0005601959152593126,0.997280853374621,-0.08866481645239804,-0.6001771942263493,1.4367216989382077
1729144105.621548,-0.22305170658344156,3.9726567552884986,15.382454145045747,0.1260289987554679,0.006963382861064191,-0.0008846639565463358,0.9920017238601496,-0.20857576230508035,-0.2707114036287829,1.3903143856373057
1729144105.629548,-1.165013678979362,3.7403881339836462,15.530053575894636,0.11781736072600586,0.03613932962155009,-0.0042905854000139625,0.9923681823007973,-0.34182169866722223,0.09085874439263908,1.3343744536002706
1729144105.638601,-1.2566177740380078,3.784183388202688,13.070224987333656,0.14028973199862413,0.0455723268483239,-0.006464176743820561,0.9890400237302879,-0.5145696938832303,0.37165434242479695,1.1250004989942304
1729144105.645438,-1.2079112991884295,3.4829337536247373,10.99386205782988,0.15258449487331951,0.051544074173259055,-0.007969116721055953,0.9869132046540676,-0.6769637194945954,0.5443886018587121,0.8090926687570781
1729144105.653499,-1.1597732211634486,3.2856639814228896,9.673824048662771,0.1627087465253489,0.05573218574175962,-0.009205685152759935,0.9850558576230406,-0.7952589478730541,0.6510089879492953,0.5186594260482853
1729144105.661475,-1.3162015828445535,3.144078361998265,9.449227036619538,0.15955658013695476,0.06481099784166214,-0.01049846611026971,0.9850030530425269,-0.9181702723984971,0.6953994767763918,0.15454171301094355
1729144105.669472,-1.4313669946286067,2.6209880865348967,9.096117637987348,0.1394028678676221,0.07422914521212119,-0.010479864169825865,0.9873940686870375,-1.0387429738745864,0.7075603079829407,-0.097558429666962
1729144105.677512,-1.420739326415836,2.273615098014688,9.180654164335376,0.1207361605633062,0.07393347318834476,-0.009017643535312163,0.9898865102524683,-1.136627998447962,0.6969778241254647,-0.27180577859265503
1729144105.686996,-1.5338333883299704,2.2754022106642813,9.374070499089507,0.11839875759585675,0.0782047126907915,-0.009354405076614856,0.9898374877818938,-1.1400193052019232,0.6655126201847192,-0.4631949604863253
1729144105.693522,-1.7403141016014978,1.8591651288888034,9.654123113662688,0.09460160108736623,0.08709214697758402,-0.008308318974653619,0.9916634846773159,-1.115661305443654,0.6164095034564676,-0.613360744723876
1729144105.701521,-1.6693145144276955,1.535681468690704,9.26981235940855,0.08166507933129005,0.08750365025515608,-0.007197925355043491,0.9927850300444808,-1.051666458459097,0.5064922118031927,-0.7481576717199199
1729144105.709521,-1.6640643080218516,1.4646532379038755,8.903714092891224,0.08107706779177509,0.09075541618163718,-0.007413490086008996,0.9925396736033932,-0.9860253863347924,0.4205344039225123,-0.829035827917546
1729144105.717513,-1.8349726448717045,1.2819755023126378,9.432243151779655,0.06717361177492762,0.09485662019459344,-0.006415478867242253,0.9932012732156931,-0.9108827778973991,0.3868387017755094,-0.8413790664118491
1729144105.725541,-2.0612978728116946,1.7632578306844577,8.86206945185881,0.09740175410950008,0.11137017855746716,-0.010969040777279056,0.9889333960226526,-0.8909129264612231,0.39301406429795355,-0.7849315002891262
1729144105.733496,-2.1575886821831105,1.3148525365454402,8.835999851046926,0.07325510024721275,0.11789268440721586,-0.00872098873717298,0.9902822575440183,-0.8934044776892265,0.4180037848845216,-0.6982773929942006
1729144105.741469,-2.172506958089163,1.3563373153842955,10.551365890852765,0.06354192994803622,0.10034842103259718,-0.006421924880991324,0.9929004866629719,-0.8727635252300029,0.46279592153880467,-0.5781745187833202
1729144105.749487,-2.1539246045409977,1.5583991055391706,10.830482134609316,0.07104310967576924,0.09678145664442983,-0.006925918445993455,0.9927427954264177,-0.8612303338773928,0.46796101039681093,-0.49887606321193734
1729144105.757502,-2.265358317412099,1.1828393351496742,10.76236243750387,0.05440300867203147,0.10279007646747104,-0.005630385762385848,0.9931982740537808,-0.884960103491093,0.4472214202697409,-0.42277575575115156
1729144105.765546,-2.126796042693353,0.8243858606112889,10.942475432473024,0.03741008758268301,0.0955057797841081,-0.003591847517372124,0.994719171427945,-0.9183540180251045,0.5152330878098228,-0.2587737341882353
1729144105.774142,-2.25410900378984,0.9409107058198983,11.14295941353655,0.04189099772231079,0.09920173144482099,-0.004180002221489006,0.9941763869503275,-0.9503096884664484,0.5849870125132901,-0.0952419418467947
1729144105.781637,-1.9866894220492946,0.8923126307673295,10.606041446461774,0.0417693443611227,0.09205493067095834,-0.003864901125144581,0.9948699785148308,-0.9788482720834193,0.5629858581160658,0.11738776009135615
1729144105.790629,-1.985212663239342,0.8444790127865696,10.402643068560659,0.040303763419775145,0.09376786291059881,-0.0037990641787463437,0.9947707080783731,-0.996822802376526,0.4765664749062618,0.3117989209037856
1729144105.797527,-1.8576733401311052,0.6108351798887386,10.027058086009442,0.03028482877135286,0.09125920826978569,-0.00277664567466392,0.9953626858040535,-0.9867487075407504,0.3336171718275046,0.5497672849079223
1729144105.805528,-1.7490674440200693,0.9897118000719151,9.17897524467207,0.05343392851816957,0.09334575098151689,-0.005016997969059857,0.9941862078042474,-0.9121681507438979,0.189953741621414,0.7589559528984813
1729144105.813528,-1.6676233350643854,1.0434581518204928,8.037098620924334,0.0641637628332765,0.10108083622389298,-0.006532858276822701,0.9927854742340304,-0.8333646117488239,0.07608582950272759,0.9112876275649247
1729144105.821527,-1.5852380464487874,0.9626996445102644,7.811659365425694,0.06095716120218266,0.09902499362286481,-0.006077625351173228,0.9931975320178023,-0.7286143300544053,-0.0641765381555676,1.0154573342086515
1729144105.829537,-1.4307014203985693,0.6939779873897524,7.5688961575854945,0.04549463797324516,0.09279742649164949,-0.004244552919683543,0.9946360436474853,-0.6466081082719627,-0.21048470772400132,1.0302818713111401
1729144105.837516,-1.5862581569266416,0.514309640334242,7.671277524873562,0.03328532251920188,0.10149822500716467,-0.003397860954267731,0.9942729263970347,-0.5624977901626106,-0.3868131422491641,0.8974218031057768
1729144105.845455,-1.2340312698884068,0.0732357610071858,7.809081378205387,0.0046740134954044036,0.07828013724725617,-0.0003670126784295941,0.9969203774685766,-0.454137750938163,-0.5326250687416927,0.7295879194599183
1729144105.85351,-0.872099853241638,0.1531170523074365,7.922170051288466,0.009647384410439386,0.05478084003229619,-0.0005293113787459687,0.9984516549983066,-0.3652830839616207,-0.64735638857078,0.6122856768753839
1729144105.86149,-0.7768058677555296,0.16441454168719624,8.061131044444956,0.010184163349039514,0.04800299308039781,-0.0004894600476737197,0.9987951521213272,-0.28259766953481513,-0.805164403313797,0.417177143316288
1729144105.869492,-0.6829981910634739,0.23847010196544277,8.266133084674784,0.01440729673409042,0.04118640483274359,-0.0005939505383645028,0.9990474248405464,-0.22617537989533928,-0.9598715108257536,0.17751328547976536
1729144105.877581,-0.669809214931053,0.23142810243903128,7.55858575290448,0.015288049541222745,0.04415227828311582,-0.0006757403959157024,0.9989076009514357,-0.17486871359171047,-1.1169749746136943,-0.16167676743322068
1729144105.885561,-0.0018144315465224506,0.39982484242044997,6.858245322592297,0.0291121382457,0.0001320008363942948,-3.844456096684586e-06,0.9995761431565695,-0.09470466667993752,-1.2589143397702063,-0.4507545015348807
1729144105.893565,0.48637079907989905,0.5408460541339105,6.935316749219441,0.03887894521591206,-0.03486834756112788,0.0013574982938680032,0.998634459227017,-0.020213454722227783,-1.363659701691367,-0.6471884053148265
1729144105.901544,1.2178996815963767,0.3328873382908932,7.676356926973071,0.021597756764810565,-0.07850025068801404,0.0017010791804642938,0.9966786612917269,0.024906962513860084,-1.3686130704852268,-0.7475954550628505
1729144105.909546,1.6462825238015761,0.5581443914999266,8.589765718683841,0.03228702203225032,-0.0942953308456675,0.0030597657021600934,0.9950158675231481,0.04005989113457592,-1.2830415589774402,-0.7614394682123036
1729144105.919099,1.1182535047594613,0.389713852917534,10.037791397763039,0.019370368068222222,-0.05539320059801568,0.001074839570355898,0.9982761275760869,0.0287185253568279,-1.0320500132470756,-0.696952875591968
1729144105.925634,1.3786781135978643,-0.4140426574877608,10.723450378208605,-0.019253744662950295,-0.0638301934598855,-0.0012317117113258228,0.9977742643532092,0.01510266490678658,-0.87166421439523,-0.7340337509600082
1729144105.933529,1.6218423991645778,-0.8113024047953908,13.073191430538445,-0.030923404497564914,-0.06152821177733675,-0.0019071925635170276,0.9976243706056347,0.09036840068331999,-0.7967172381572243,-0.7630933171642249
1729144105.941501,2.4599046704557774,-1.8093384399475467,13.910582444992988,-0.06437323285703579,-0.08650725948087756,-0.005601501070806285,0.9941535113524449,0.28111384316925486,-0.698963484793129,-0.647713757710601
1729144105.949478,2.3737684248320603,-0.9524854516638406,13.71391016890009,-0.034532594308445415,-0.0853395200771286,-0.0029595764281960435,0.9957489177250957,0.39215558816911944,-0.47258934855863133,-0.5116526823888877
1729144105.957459,1.9196213783855642,-1.1346075014670545,14.08623930324435,-0.04008082952373706,-0.06739933723404344,-0.002709775571992477,0.996917004349635,0.4379218221573987,0.011449603458009106,-0.36531114785363095
1729144105.96546,1.477623672978604,-1.5228052247571857,12.382783287757157,-0.06103297264167889,-0.05879941308243763,-0.0036016840822665616,0.9963958215204701,0.5100790190038796,0.34231353050688634,-0.1591643900460321
1729144105.973532,0.9648645980742718,-1.0968395618562645,10.920176572996091,-0.04998199623528932,-0.0437752377879132,-0.0021928244879775376,0.997787913401296,0.5972194134423574,0.5531768985186116,0.02199182293590146
1729144105.981559,0.77117315215511,-0.940140692680165,10.07493426655156,-0.046470924486662735,-0.03798249197438053,-0.0017682720084819358,0.9981957005992738,0.7142085394476729,0.708641843505065,0.1792142177317332
1729144105.990488,0.7006875363125973,-0.6481208938795834,9.416235917596952,-0.034329593685897775,-0.03702022361134344,-0.0012725131305870098,0.9987238671181639,0.7963213367717991,0.789575798714538,0.2743990347321563
1729144105.997558,0.4843377061137302,-0.811688549511344,9.136417428243718,-0.04427367130006502,-0.026348465266507217,-0.0011680954145726567,0.9986712351724244,0.8281357226463314,0.7717285222521448,0.3089483516749225
1729144106.005546,0.15652733069948813,-0.884929445624775,8.39703039835248,-0.05247275965496358,-0.009255104824085656,-0.00048633179883027873,0.9985793488803326,0.7982699971029172,0.7384585831172213,0.30924481889040467
1729144106.014619,-0.2156538762385103,-0.9573649830486932,7.717569316892347,-0.06166446132831957,0.013834962950380949,0.0008548346258023194,0.9980006799932615,0.7731138307320142,0.7406325028322929,0.29665199737583303
1729144106.021545,-1.104311241758731,-1.3637872771827315,7.770776487596346,-0.08653898669730488,0.06921606758940903,0.006027118902018858,0.9938228280768172,0.7873927451503526,0.852616270641464,0.2541897194272035
1729144106.029554,-1.8177890460806292,-1.6124290569834672,8.613616892313667,-0.09189217893322463,0.10165175977593918,0.009430382950745423,0.9905219912060313,0.8274611583495459,0.9755719293784929,0.20998198995369635
1729144106.037507,-1.9760492015741586,-2.3745297498639086,9.693690113415544,-0.11922885185124352,0.09687535388024462,0.01168991222977177,0.9880602171167868,0.9102474347508223,1.0263580613017604,0.16047008895064235
1729144106.04542,-2.619277475046058,-2.623255200992564,10.488259187678233,-0.12133788408896654,0.11767758561246887,0.01448877078069321,0.9855045303044006,1.0024882067377912,0.9955303716051884,0.07031495962120148
1729144106.053471,-3.143359874920213,-2.775842353993976,11.367944771640143,-0.11839131234175504,0.1298995095437158,0.015624121224107326,0.98430965728183,1.0740088922655298,0.973202547234087,-0.039969206089451224
1729144106.061456,-3.040499965479472,-2.222636138714745,11.311092076607132,-0.09602428003480958,0.12798347902842017,0.012450906751799594,0.9870382675766104,1.1262864849343377,0.8802018111180262,-0.2419348351222309
1729144106.069433,-2.828428155557214,-2.0053946690686906,10.047318486931074,-0.09741581886219122,0.13362110629442317,0.013199695516765282,0.9861446781412593,1.1393483678927552,0.7848121937324208,-0.4171768503475767
1729144106.077512,-2.806290522484719,-1.851347190845511,8.481968953486769,-0.10587887633416142,0.15478837343599658,0.01668725458043462,0.9821159598183005,1.085886128817273,0.7301325636698297,-0.5661681358133734
1729144106.085536,-2.9833469746236445,-1.5829448818901193,10.11341355592995,-0.07674080454263184,0.1408930822349056,0.010954822222460511,0.9869852988604095,1.0248618611925655,0.6513502589943756,-0.6602454977689338
1729144106.093511,-2.6895097484948898,-0.6610262089192278,11.991063620618517,-0.027358189832876145,0.10989443187685762,0.003025993865994508,0.9935620698540449,1.0223025055347037,0.5168144135893866,-0.7086038037744915
1729144106.102303,-2.808173057348887,-0.9705058632909898,12.112328382332047,-0.039698640731191275,0.11322371707585713,0.004527581150612588,0.9927657874970041,1.06972124920812,0.2764591332981315,-0.6899415004940785
1729144106.10954,-2.890384370298004,-1.4782137792050627,11.238419902934385,-0.06481446110596177,0.12424557280132,0.008133439271984295,0.9900989700208888,1.0794421327078405,0.14671942721308745,-0.6902377501853056
1729144106.117515,-3.0017209810655205,-1.3913865573179596,10.543607657092661,-0.06491123739224994,0.13681837812779818,0.008985040470698652,0.9884262904812001,0.9967311300235703,0.162527417083708,-0.7593772899568911
1729144106.125504,-2.5061249775553276,-0.9320365217931196,9.499200054460674,-0.048463626296443185,0.1278787665808525,0.006256370864664331,0.990585259231916,0.8632435863049878,0.0532446838581735,-0.7748939200706584
1729144106.133584,-2.185304199179681,-0.5371952578024342,9.243896170371716,-0.028817370317145628,0.1155751243273407,0.003354471884750462,0.992874965603977,0.7601637967548887,-0.10640245966025616,-0.7416348919927156
1729144106.141544,-1.718196801734371,-0.6227894630310699,8.814901808668342,-0.03509097100115358,0.09581233326930672,0.003379807477649969,0.9947749481410866,0.6370165541742966,-0.31755275242752456,-0.6075945386741255
1729144106.149445,-1.5226871020367163,-0.5987286338733294,8.522549847408035,-0.034919540585070886,0.08801884373612176,0.003087465713400586,0.9955017711627401,0.5277959335245928,-0.449776898886892,-0.482047180167996
1729144106.157423,-1.3498358037024984,-0.286214029689232,8.375390250241695,-0.017022502446195218,0.07975413787687155,0.0013621533232506524,0.9966682780345275,0.3839365898257566,-0.5074011936279488,-0.3279661036938425
1729144106.165416,-1.0785309084910302,-0.1518565440342423,8.641915177977049,-0.008767429223625894,0.06202843955131249,0.0005449002877457177,0.9980357247891051,0.2350445445715363,-0.5504895717018236,-0.14527116477939966
1729144106.173545,-0.9873346010028213,-0.11912608584437352,8.671346144139745,-0.006856988991228271,0.05664975696422669,0.00038908077085640446,0.9983704900256327,0.1346413758209913,-0.6006069320494842,0.01585429600617186
1729144106.181559,-0.8232018006407553,-0.1327672140066241,8.113199224569785,-0.00817048017305176,0.05052928445888957,0.0004133904416777382,0.9986890726217831,0.06418291309557556,-0.6941051674159233,0.20022172513869327
1729144106.189576,-0.6840206922008595,-0.28436457034733387,7.79076092146062,-0.018222842760512503,0.04373696468005341,0.0007979082373502708,0.9988765535664286,0.019353695091553907,-0.7740427520776605,0.3338294459371558
1729144106.197615,-0.02327000687325002,-0.725594687032619,6.808647912739652,-0.053059421499905265,0.0016968337790297223,9.016015253318898e-05,0.9985899110327365,0.003524105887153744,-0.8615944785906717,0.44166393241126534
1729144106.205541,0.2735816152608156,-0.7085352216433995,7.694447750329338,-0.04588889885837768,-0.017676000185826383,-0.0008121149884741343,0.998789821958675,0.032764147957558526,-0.907314473515086,0.5672383030848016
1729144106.213538,-0.2184444561364794,0.09537830793192904,10.348866264943696,0.004607738926831989,0.01055170548292621,-4.862272721376243e-05,0.9999337117475409,0.0652073253509725,-0.9113335170893229,0.6166158317397394
1729144106.221533,0.9855889806149873,0.22649704213220428,11.593639872491607,0.009757633082482836,-0.04238086464948602,0.000413928589456604,0.9990537921309905,0.0016636698019247137,-0.8401005626009335,0.5657869273163781
1729144106.229541,1.5971575058006329,0.7191257496933852,12.243538869784025,0.02926571189069192,-0.06467485928315543,0.0018975464331100636,0.9974753530798489,-0.09009947127171992,-0.7117970875540315,0.5680677193949378
1729144106.237541,0.06094772125381728,2.1256125445425935,14.695364737886042,0.07176251231865163,-0.002047042533879382,0.00014728095356372832,0.9974196357355818,-0.18091532107871738,-0.34832559116194306,0.7303470378747217
1729144106.245486,-1.0171195178824752,2.415246937125947,15.280126804157405,0.07825966643115634,0.03272037724138932,-0.002569956691446027,0.9963925917257059,-0.2686086557569543,-0.02467155808410612,0.8613441438180924
1729144106.253533,-1.205470243444329,3.318301398359553,13.468301684301084,0.12037245671510467,0.04301458380534928,-0.005220670846228764,0.9917827190672048,-0.41402508996261933,0.24997628337892006,0.7900995057494797
1729144106.261501,-0.9744339002169881,2.7312679923360443,11.271494142904869,0.11847893685196347,0.041603488009986686,-0.004968526626737745,0.9920721773394267,-0.5949267640076653,0.49479471981159767,0.5660087567254867
1729144106.269489,-0.8456283210872241,2.4374664692297516,9.555253881983155,0.12443964838749028,0.04242571121276183,-0.005325745616840209,0.991305436972336,-0.7281577919994908,0.6425371617941282,0.3608897571083936
1729144106.277534,-0.6594087980722563,2.318646395209726,8.356479088223095,0.1348153311852634,0.037589633994034116,-0.005118101647267853,0.9901442576357904,-0.8242726311301433,0.695850351882298,0.13863257301748438
1729144106.286959,-0.7619581328472599,2.014637949430523,8.382768608939717,0.11753682565093594,0.043754833271515206,-0.005183805052853021,0.9920905892842938,-0.8810901544856107,0.7108106634767186,-0.009620889588232276
1729144106.293546,-1.264739099679059,1.6775674547169075,9.022950114338439,0.09155849183303842,0.06813027621042161,-0.006279055338453185,0.9934464663487448,-0.8811254635819286,0.6831775051476363,-0.11304642924137133
1729144106.301569,-1.7296922330007947,1.9038872550567072,9.55597836083939,0.09777757127542479,0.08730699678377479,-0.00861129251317016,0.9913338895192324,-0.8083536485297119,0.6546782884292499,-0.28237564852168673
1729144106.309574,-1.97179340742743,1.553656198248868,9.797983754784884,0.07815561410983428,0.0976424144871481,-0.007691929230234326,0.9921181850469992,-0.7408519160565081,0.6320447875992117,-0.451657899862339
1729144106.317601,-2.250889984886145,1.7471799640665082,9.530666045107258,0.08991684921010644,0.1134119507610996,-0.010306718878377504,0.9894172331219276,-0.6760865430692501,0.6231472777772711,-0.6336826722830544
1729144106.325579,-2.363041873011765,1.5166138231664674,9.628370358265526,0.07746223502199762,0.11828171207330902,-0.009255748985463328,0.9899107888315601,-0.6325447286008129,0.6224913625601891,-0.7599251381939649
1729144106.33359,-2.2845261247836217,2.0869578300326928,8.822686146844083,0.11495820333071563,0.12228064487587481,-0.014260919385968619,0.9857122711795674,-0.6426032951440233,0.6497676674249719,-0.8084264538069411
1729144106.342965,-2.397828187077204,1.5562383088594596,9.517941097286137,0.08032206374615669,0.12114255296169436,-0.009835351807018167,0.9893311446590134,-0.7027010728756274,0.7201960881495197,-0.7119486750434275
1729144106.349473,-2.5077079535060878,1.7085066425422382,10.427820769211525,0.08053729655848241,0.11585773247083793,-0.009425591538422195,0.9899504472012312,-0.7306716283468113,0.7633045207071725,-0.6153242121922744
1729144106.357432,-2.4503344278653714,1.8336258861601087,10.243277645853086,0.08783490829448899,0.11491969130725767,-0.010201779476807647,0.9894313604946277,-0.7521365523056041,0.6891324157981866,-0.5577752245430446
1729144106.365428,-2.3292402123832847,2.1450051361882525,9.575421045519663,0.10918701326357781,0.11555975743138541,-0.012781244516532047,0.9871984493431841,-0.7871513898769054,0.562896661052085,-0.5211173816461966
1729144106.373551,-2.436148807605752,1.5501258441641232,10.37707515905008,0.07357242733913519,0.1135121687594829,-0.008429141916575435,0.9907729482810361,-0.8345530762303321,0.378604242531606,-0.3841863593133393
1729144106.381562,-2.8644520372489977,1.2674185204144894,10.810901854463252,0.05781603729712278,0.12808869053079097,-0.007480023210580399,0.9900477980593332,-0.8804473805623315,0.3067665870123635,-0.13260310145173626
1729144106.389758,-3.0292572111189298,1.2184618898365842,10.592118119513886,0.056664070259225194,0.13774408868268348,-0.00789343542528339,0.9888141599167265,-0.9088353432844551,0.29090815763438804,0.05027360787487789
1729144106.397522,-2.6672564958608107,1.1747227015289037,10.163248612186846,0.057019286295815576,0.1269588530504618,-0.007310447433987229,0.9902407828304902,-0.8811706644642161,0.2183909709112221,0.20639985017020782
1729144106.405542,-2.091644078180549,0.6617379910345297,9.694279481032812,0.03387174535921943,0.10575233750786402,-0.0036043309716220877,0.9938089136127679,-0.8326451025624202,0.11400698008825198,0.35584099359893195
1729144106.413533,-1.837495710824345,0.47006594525548345,9.100694105856014,0.025667244967395794,0.0992881548553832,-0.0025619695006531486,0.9947243292256779,-0.7362707357103416,-0.013753993809220919,0.6068422129502764
1729144106.421539,-1.5566774814262476,0.40174965016110253,8.195073599744077,0.024377672364500332,0.0935829273524387,-0.0022920829877785976,0.9953103592115449,-0.6375798696987395,-0.1338309644168319,0.8421552667920273
1729144106.431048,-1.7255295577034049,0.4548519983486147,7.3701431808425415,0.03060266151799299,0.11447397587577952,-0.0035280866126094104,0.9929485075068397,-0.561337747633297,-0.21949922874818345,0.9731265376219892
1729144106.437884,-1.5950820827665741,0.5659614822122938,7.40478233672818,0.03791061737152822,0.10551183334900746,-0.004025431330667132,0.993686989960341,-0.48281433966145504,-0.30793522269419116,0.9627400772744017
1729144106.445514,-1.404286119777132,0.365913107589095,7.771288549986127,0.023425556933668427,0.08914623887226265,-0.002097232772971601,0.9957408262153224,-0.4178213122969445,-0.40909979600700536,0.8820124403099936
1729144106.453528,-1.536650733145576,0.31435825029564446,7.933013177599098,0.01970754026998499,0.0954294412214543,-0.0018896757355955803,0.9952392997316184,-0.3260399282569463,-0.579626575851898,0.6684081142840805
1729144106.461521,-1.1506366984322676,0.4095997634098085,8.243131901920787,0.024760023279151073,0.06918454280043251,-0.0017176570035844613,0.9972950866915614,-0.21563138984288324,-0.7457961529781384,0.4938453019691712
1729144106.46947,-1.0164722851726418,0.2723354964736195,8.466552682412237,0.016046977193064894,0.05966897516112468,-0.0009593402058284013,0.9980887673912355,-0.13406142458181228,-0.8953036364449403,0.37080294193735824
1729144106.477532,-0.46503417066413194,0.3697814809896405,7.817940628002031,0.02361891355178502,0.029660737389603824,-0.0007010586712595974,0.9992806893445293,-0.07788271438031517,-1.1450675896347453,0.14458048391486317
1729144106.485557,-0.3015259980039479,0.32625608097659675,7.185283086518015,0.022680371522744956,0.020941408684680814,-0.0004751854488679968,0.9995233025541128,-0.04119565782918269,-1.355373950276237,-0.08778463485051508
1729144106.493521,0.20407202815075626,0.4662984361836143,6.578957664410808,0.035367680902532894,-0.015455411043090209,0.0005470297465195983,0.9992547013527242,0.0029524592975224383,-1.5424314454502022,-0.3561877947327376
1729144106.501516,0.85650544589436,0.6604571256750122,6.625528575697267,0.04955163339510418,-0.06384425291598209,0.0031739854040188902,0.9967238698928267,0.05370566307688132,-1.6968092586393224,-0.5576702465009641
1729144106.509548,1.429924822712397,1.054679731947976,7.36885857852383,0.07068811232380937,-0.09450871169282359,0.006727814944073748,0.992988434321537,0.0807520648528004,-1.7353733087471168,-0.6704716063941214
1729144106.51755,0.8320975156977508,1.1557014817469105,8.946835125141641,0.06411672592899105,-0.04587802606743949,0.002950746552744317,0.9968829145266175,0.0748440227223262,-1.4656369765259156,-0.700691696921357
1729144106.526068,0.5725210802194317,1.1210253055520525,10.39807934290725,0.05365132358942599,-0.027301415427060584,0.0014674199109580652,0.9981853609784039,0.06321108627626308,-1.184601959983826,-0.7073301195782234
1729144106.533544,1.4929688651726747,1.577623410870294,9.217234470978724,0.08438138192994493,-0.07879253256474437,0.006693530674286502,0.9932908515851432,0.0562313244086252,-0.9972505873542428,-0.7692070215311797
1729144106.541497,1.8783616804317298,0.713857645154989,12.107212643036453,0.0293519592203972,-0.0767183190405101,0.0022594742658018007,0.996618109804134,0.16910823419010118,-0.8784544128545624,-0.7982450515351749
1729144106.549474,2.875502480671147,1.9503085824543216,11.86287071448398,0.08079994939640829,-0.11672909821971189,0.009528652724827431,0.9898256869689736,0.2989851290324434,-0.7824866845899564,-0.7654364422850521
1729144106.55745,2.406691280883157,1.919091428769468,12.891579152323201,0.07350209119858676,-0.09092231510316529,0.00672928469518429,0.9931189716913108,0.407135260301653,-0.46438373001642946,-0.7070134811419336
1729144106.565467,1.8079334208736442,0.6790788697128527,13.66107544061267,0.024775770599412883,-0.06564095537138054,0.0016303250723916079,0.9975343443758196,0.4435041049452225,-0.08111004949147496,-0.6579119324278155
1729144106.573509,1.6382994763523115,0.9279467627456802,12.633100940637133,0.03657391843792183,-0.06422282947233378,0.0023553285516019857,0.9972623672294456,0.4278646863227056,0.24889132326707508,-0.5565093828122614
1729144106.581538,1.501324345235215,0.6070462925106893,10.974599098317826,0.027559023985420247,-0.06779753682995486,0.0018734611105735636,0.9973166419649424,0.46573263197148085,0.445189386676357,-0.40542156001297813
1729144106.590372,1.4260824513794101,0.6881632601255542,10.496884971686008,0.03264946859642822,-0.06728559194573158,0.0022030139231139067,0.997196975550236,0.5165489434172401,0.6008546401920469,-0.2790109011705975
1729144106.597531,1.0536499481225678,0.5031593586632231,10.116403790628794,0.024810754659911807,-0.0517864317012731,0.001286985128863861,0.9983491050800481,0.5849251457548165,0.7100043245755561,-0.14697341775218098
1729144106.605533,0.8517382611098688,0.2331820275514495,9.606078126428057,0.012122201682337456,-0.044187061913377686,0.0005362077182642664,0.9989495824450396,0.6191398261739698,0.7571894625627942,-0.0371012432758648
1729144106.615082,0.6475124512948275,0.21484772849376033,8.803564723757225,0.01219104628150748,-0.03668762663106567,0.00044759521286164,0.9992523185368484,0.6268979325816009,0.758256381421567,0.05436346509764681
1729144106.621659,0.28052897590384956,-0.08633009215179067,7.924140366236756,-0.005446155318955599,-0.017691285292297174,-9.636599888390108e-05,0.9998286595865027,0.6549657498065913,0.7844379364245526,0.11945885159684252
1729144106.629572,-0.14077404878386207,-0.40254859850396496,7.395767491226429,-0.02718334203788496,0.009498338402876205,0.00025830369900569603,0.999585304394995,0.7075644053043961,0.8295194836672242,0.15511056300466372
1729144106.637529,-1.046215236155083,-1.183168672041832,8.285421402938981,-0.07071921533075243,0.061983076043020405,0.004402948476843699,0.9955588907302059,0.8280928214486436,0.9604367870095629,0.13606103401046343
1729144106.645477,-1.802803316497737,-1.7662229756860368,9.344022753872764,-0.09284720746835881,0.09313343795857273,0.008723275529687777,0.9912766835063646,0.9374449064823889,1.0836846254684795,0.09738715268037323
1729144106.653529,-1.959635738677939,-2.1766288598745125,10.9332729260053,-0.09771251423953785,0.08647551428684724,0.008522918167353895,0.9914139447555325,1.0524362046322318,1.10953035159862,0.02437708669126141
1729144106.661507,-2.5828537588805913,-2.4961349611883796,11.350282437243806,-0.10735299214838978,0.10849051066976254,0.01178569107936447,0.9882136619462331,1.1384585859806187,1.0922596525441275,-0.07264021058495965
1729144106.669478,-3.1140836200744486,-2.4194486158731836,11.928972611760344,-0.09907151249210007,0.12428376210657882,0.012472508510795602,0.9872096122002718,1.1960316756501193,1.0976477653855272,-0.16873700442081307
1729144106.677834,-3.5558835021227946,-2.1450299703051603,12.044906836099175,-0.08708950837578112,0.14040915599150622,0.012399551662125734,0.9861779441678848,1.2195075878538066,0.9991407084009416,-0.32302672467420634
1729144106.685524,-3.339968317826411,-2.106074370122549,11.366997612401693,-0.09053197599415393,0.13957711229507508,0.012815861156094557,0.9859807020164185,1.204220520935139,0.8646893333314106,-0.46710905426314814
1729144106.69354,-3.2899067023657684,-1.870335322757123,10.09522701836875,-0.0903240301928862,0.15378127173555733,0.014117913546708454,0.9838666446984555,1.095011116340361,0.7465577828810332,-0.6003843587773366
1729144106.701514,-3.0151823234214143,-1.2086318735859145,8.98811788338453,-0.06588954928577942,0.15944260225823775,0.010666146441412443,0.9849481494983016,0.9379621103691576,0.637792437140686,-0.697377143944331
1729144106.709546,-3.0121957282813643,-1.0048218780577987,8.635098618214313,-0.057051995309406384,0.16572378357435308,0.00960398693062841,0.9844736973754316,0.8322390751269605,0.5269843931200403,-0.7717490373800848
1729144106.717551,-3.050626359087959,-0.5358554803503042,9.668750762725463,-0.027343631910808932,0.15194463412529494,0.004205172834765663,0.9880017563121465,0.817759611049776,0.3344953085148915,-0.8223318343020055
1729144106.725508,-3.0827827038805102,-0.7838336287863544,10.479281081414575,-0.03692589581178192,0.1420941276263303,0.005304507185456737,0.9891499377324597,0.8363160965370353,0.14748592742618094,-0.8445934012873794
1729144106.733663,-2.8772609748673688,-0.8612733083753283,10.03042410417101,-0.04238348791339766,0.13861411050331973,0.005937763286435138,0.9894213012103704,0.8282939350635994,-0.021762169462957615,-0.8392199787742742
1729144106.7415,-2.607422795857921,-0.5976880011384782,10.272032552102216,-0.028823431284618662,0.12372157010413673,0.003595231183105684,0.9918917568024689,0.7119498420764856,-0.14757536109977656,-0.792575538997284
1729144106.74949,-2.088783841088971,-0.3906951029291807,9.520129678966407,-0.020382310555495536,0.10767240519550453,0.0022079150457182148,0.99397501964938,0.5659448652825136,-0.26776073253538124,-0.7279795298453551
1729144106.758189,-1.7045773175928358,-0.24926111205047716,8.38616164160836,-0.01477893326991141,0.10004263661586112,0.0014861439870211973,0.994872275906008,0.38426437562302146,-0.4147934062140616,-0.5776911282511455
1729144106.765479,-1.4084522780068733,-0.17278042333380192,7.485753686625173,-0.011486456324425454,0.09282418126142294,0.0010709161410448452,0.9956156817933677,0.26716797065954756,-0.4996074899295736,-0.42664440850554924
1729144106.773522,-1.0775483480052959,0.023703274320031345,7.560100479797368,0.0015635653481578954,0.07072915306739255,-0.00011086745055816163,0.9974943257373347,0.166260443256197,-0.5347454078847855,-0.21469470914151245
1729144106.781538,-0.9264111828754431,-0.12176868970485619,7.7033496640991235,-0.007888165659757954,0.05979805047974076,0.00047255735331614535,0.998179215717746,0.05846432999190112,-0.5958430244353436,0.023154526457037833
1729144106.790135,-0.7794651447838595,-0.2030663639693981,7.806058586301271,-0.012986939015981433,0.04972054662450701,0.000646572138260586,0.9986785211482349,-0.02068680005638547,-0.6559145477460904,0.20332479322482677
1729144106.797529,-0.4638483642140657,-0.469717319602342,7.502568186448731,-0.03124243877724207,0.030793236050215247,0.0009629832259022528,0.9990369158825477,-0.08307663023652852,-0.7434659591694441,0.3625097606609439
1729144106.805525,0.014023004176638692,-0.6871687328258583,7.2110589306680675,-0.04748553546877862,-0.0009668480533544021,-4.596316895677261e-05,0.998871456701748,-0.11327379729975984,-0.8266464904487227,0.4865419752405703
1729144106.813534,-0.00666966795300116,-0.45419976874824936,7.997185923586388,-0.02836319316866804,0.00041616239634597614,1.1808446191183603e-05,0.9995975970072644,-0.08158636034664091,-0.890602581244537,0.6188551523471825
1729144106.82153,0.4161805905856211,-0.435086153973559,10.81877104878074,-0.020091890146725525,-0.01920413825778613,-0.00038599658170169554,0.9996136093665126,-0.05193164663821876,-0.895772410927987,0.6386464500064652
1729144106.829564,1.3807292186091853,-0.3917751030286667,12.052274825313365,-0.01621927283194964,-0.05696398765312824,-0.0009255396590235321,0.9982440496570949,-0.07415368419059645,-0.8784411857878794,0.6160403336236104
1729144106.837508,-0.23219380428370762,1.8014428703117062,14.332088178879424,0.06247581025747361,0.008020768162991888,-0.0005021011012516472,0.9980141222974913,-0.18326717055098019,-0.5828301095242537,0.5641645582623147
1729144106.845439,-1.1096862154315525,2.668700263202649,16.44433348716164,0.08030919890918849,0.033142188934024965,-0.002671734402489557,0.9962152828171772,-0.29343271882072375,-0.18538170199020804,0.5113288999109736
1729144106.853567,-1.165960456065572,2.7619291227653395,14.508238850841906,0.09384492882601946,0.03920782862056886,-0.003698660748442354,0.9948076172894774,-0.43189935823111525,0.1927136826897658,0.44301815961443425
1729144106.861464,-1.103238673541687,2.7345482207295158,11.27272459102272,0.11857251854257739,0.04705930876589014,-0.005625997111113302,0.9918136556135192,-0.5630823188225598,0.4893840835775233,0.35478011861422515
1729144106.869429,-1.1944136533437621,2.3118236577795064,9.336443858617537,0.12082724334277188,0.06128045917540714,-0.007473463146235496,0.990752052704429,-0.6749959199714648,0.7014415290271403,0.2490517263928078
1729144106.877705,-1.2354716917621165,2.894244139736063,8.685837473617788,0.15975437227273648,0.06615262848523178,-0.010730423187320568,0.9848792963112079,-0.8170655314781254,0.8167566745759736,-0.028081719793982496
1729144106.88555,-1.18564684318227,2.2376528913123406,8.502332666055437,0.12801796736926446,0.06642059328203101,-0.008593190049395183,0.9895078887525253,-0.944876304528325,0.8697695395697164,-0.26800616813898814
1729144106.893512,-1.6594919633312368,1.6974124208225607,9.23714354738717,0.09038007391819024,0.0869736771264369,-0.007923515435017079,0.9920706827786011,-1.0305022596491475,0.8773129250626263,-0.457935363783891
1729144106.901509,-1.7455591379596798,1.342382937112677,9.748898445326832,0.06809037208148955,0.08745846508128674,-0.005992108791238031,0.993820312102577,-1.0239839843628047,0.7839302422221048,-0.5480542377289589
1729144106.909516,-1.9224161895629173,1.0659189028926062,9.756436756405083,0.054119249238938225,0.09641963121329833,-0.0052504244641928535,0.9938545138104726,-1.0021940366095936,0.661067292868253,-0.593611760866759
1729144106.917512,-2.148958764030719,1.0312427333371261,9.448995266733675,0.0539778110376002,0.11078071800709521,-0.00602573928691827,0.9923596721448669,-0.9418684711353815,0.4856095985665165,-0.646061988375699
1729144106.925596,-2.3861590389360097,0.9599193765745413,9.275064860235517,0.051120286127452376,0.12476828847819033,-0.006437108234467295,0.9908471901226991,-0.8882198393309109,0.3599018590352969,-0.6809376453727591
1729144106.933641,-2.575644976584262,1.2053872423998029,9.245884548465527,0.06416228764995079,0.13406734773711296,-0.00869902156655566,0.9888546274038695,-0.8449627186502157,0.3164039699262176,-0.6537600626257857
1729144106.942912,-2.589258909778682,1.1517944426078504,8.672442735915254,0.0652607994130506,0.14306652955431945,-0.00945468874456703,0.987513850557042,-0.8407186393763622,0.3805515294907207,-0.5506127404393472
1729144106.949456,-2.555289320476584,0.9017664116584602,9.581502797310872,0.04649149601888657,0.12925795544914687,-0.006067020585870074,0.9905019500295004,-0.8305097707057335,0.46586597199024604,-0.4648857036856102
1729144106.95745,-2.561243785157044,1.251658899729451,10.325418151775192,0.05982278271958343,0.12021101621204038,-0.0072572702451377995,0.9909176950067766,-0.7937347650780899,0.5213115381045815,-0.4538900374722611
1729144106.965448,-2.5741538504399295,1.2068513359314206,10.42245334223699,0.05717450940171869,0.11980596575223197,-0.0069111802888136495,0.9911255428208191,-0.7780551126234343,0.529888854208385,-0.4562321290349543
1729144106.973559,-2.4619503864358325,1.3298438215783837,10.323614827607818,0.06356233674405855,0.11562918039856504,-0.00741469589593402,0.9912289060922114,-0.7852492335476602,0.5086424600600212,-0.3716479915572399
1729144106.981605,-2.320647476734546,0.8721265444118739,10.982811637043207,0.039388700302392485,0.10353260063388427,-0.004103301758367034,0.9938373578252896,-0.8142557296669937,0.4605623484696542,-0.25406416942107224
1729144106.989619,-2.3177474276911183,0.6324515223502494,11.050324095263035,0.028423466918021077,0.10298450861389327,-0.002944039014880204,0.9942724124444939,-0.904026937787139,0.37041491266490145,-0.020048892537951474
1729144106.997548,-2.4057899605209205,0.8894358670234309,10.791077522343366,0.04085161943915277,0.10900889327830417,-0.004483720060121564,0.9931908691836934,-0.9693832943187011,0.3129209306903536,0.2501957423378406
1729144107.00555,-2.4997957487734896,0.7058046195792929,10.558915125466568,0.03313294411594083,0.11565975207561778,-0.0038602171777920814,0.9927286278169664,-0.9817786343655304,0.2677822899690741,0.41957925430817034
1729144107.013549,-2.088851057662531,0.8230750288276538,9.657782719078769,0.04224755583518061,0.10583491759375761,-0.004500630297049214,0.9934756456857939,-0.9100374869616901,0.1627978242887546,0.531425922965457
1729144107.021558,-1.8635926377713468,0.5941620668571391,9.012955503029293,0.032730870754912045,0.10150232256876356,-0.0033413347260420694,0.9942911063139509,-0.827829312864879,0.06660332008652445,0.6530222520269691
1729144107.029567,-1.6934822415983548,0.575806112184596,8.480970552794139,0.03371806568299275,0.09810878656938589,-0.003326003046382415,0.9945987611837326,-0.7240160805396523,-0.07284587423552369,0.8226116934157575
1729144107.03787,-1.7168721708867472,0.6488290176525544,8.109346566295624,0.03968490842076851,0.10372440427507013,-0.00414195115867738,0.9938054136711151,-0.6229903455514714,-0.2454846136743172,0.903932235298853
1729144107.045537,-1.7538904643972826,0.7651870712360639,7.924439980792999,0.04781827135619701,0.10808168046671741,-0.005204829100555283,0.9929776800240927,-0.5406647114239992,-0.372906500779467,0.908027103975197
1729144107.053563,-1.8625321204352445,0.5462611831713259,8.08787153974533,0.03348922961621558,0.11261807083233144,-0.003797824371572026,0.993066572869996,-0.4516801552315469,-0.4995910602950766,0.8104468607374258
1729144107.061514,-1.7479125693802873,0.40652594452193613,8.15408759303665,0.02476051353476962,0.10522721407209595,-0.002620847327170045,0.9941364501653721,-0.376579228381512,-0.6066771704911708,0.6812341645920659
1729144107.069486,-0.840691417360594,0.3159810366838648,7.9014852023063655,0.01995391992612067,0.05292160080931808,-0.001057687026101958,0.9983987312419402,-0.2876725959409018,-0.7505328781022271,0.4670600371755378
1729144107.077654,-0.5520594634534658,0.162055302918522,8.15957167192093,0.009923023671606756,0.03376274912139874,-0.00033523621843204756,0.9993805571400997,-0.20878721278881376,-0.9117677534861784,0.24362667701958796
1729144107.085556,-0.39013303891192325,-0.010745313121933676,8.635964836648652,-0.0006219606127508719,0.022570407093535534,1.4041483928859543e-05,0.9997450623491295,-0.15251649160685826,-1.0664025270753856,0.03294244986285237
1729144107.093546,0.10661507289308045,0.2664918013846523,7.553275066539972,0.017632127230583168,-0.007051528234713314,0.0001243558683435527,0.9998196680274387,-0.10981456760698231,-1.3039180121260006,-0.23947977751266583
1729144107.101528,0.4077764021342858,0.10961684596751012,7.163671504767732,0.007646997987400576,-0.0284227495623848,0.00021744292283550586,0.9995667178571274,-0.08121358277682253,-1.4932532099171931,-0.43188003811739495
1729144107.109562,0.8235838027063527,0.2733473915160529,7.36709059084892,0.018512517041347546,-0.055588809218918664,0.0010308602312064825,0.9982815776771603,-0.0457483192358593,-1.5928065565636615,-0.5354008727592954
1729144107.117548,0.8152127242507646,0.3086182151830692,7.933027030290602,0.01941398787135681,-0.05113080041199407,0.0009941412128752912,0.9985027541311083,-0.00701586859133806,-1.5886850553322378,-0.62773736790824
1729144107.126434,1.1374774441207711,0.7643283107016383,8.786863410557174,0.0432771095496588,-0.06402433184194982,0.0027791096679270137,0.9970056435500615,0.03623103468409017,-1.56450196145882,-0.7069779084394805
1729144107.134235,1.8443925321462908,0.6357679092725453,9.51943179145149,0.033179413396753676,-0.09528397943925038,0.003177698386389556,0.9948919499231226,0.07367280830882196,-1.4657054729652872,-0.768995694847934
1729144107.141506,2.1294384685065246,0.42407753511430846,9.8780488038748,0.021325336580008476,-0.10584387745091232,0.0022704350149349867,0.9941514717339348,0.0889011414388065,-1.3085188657329003,-0.7985439455866894
1729144107.149482,2.77356027836954,-1.1250924755134462,12.789329500830739,-0.04360044766969857,-0.10607797783655633,-0.004655819724339001,0.9933905510542183,0.16359441078195008,-1.1013990351060297,-0.7881773519734485
1729144107.157465,3.7540347961721143,-1.7229975519584584,12.843397345273834,-0.06594073510192275,-0.14021063159135877,-0.00935903157308434,0.9878791458326187,0.3565505137766232,-0.8962460250521214,-0.6555274475512807
1729144107.165447,3.490462556170065,-0.9741829098371844,12.939763236265863,-0.03722606011610427,-0.13091310608631898,-0.004919214021615606,0.9906824821487831,0.47402693581927524,-0.5594578081658363,-0.47462327027001644
1729144107.173531,2.9102214594832887,-0.5241758640663731,12.825200251329829,-0.0202906157251948,-0.11122392753083683,-0.0022713714290627167,0.9935856126826409,0.5330191573853916,0.05000051078509882,-0.2613610087815981
1729144107.182787,2.192651485309114,-0.5728398775706832,11.85193307316118,-0.024040567545642925,-0.09120973796159959,-0.0022025593918908945,0.9955390416981068,0.5373391158383332,0.44845363688823636,-0.1393633127490156
1729144107.19037,1.8224433826405464,-0.3135369856244412,10.585146452783427,-0.014749459604568433,-0.08510009904084381,-0.0012598893917235149,0.99626243493536,0.5360998803569397,0.7011475945169039,-0.06318486469923183
1729144107.197547,1.8660749053167498,-0.27934127462661784,9.931377034267712,-0.01399639884085097,-0.09268736786680158,-0.0013030278639093995,0.9955960299116293,0.5864391464435474,0.8399932672502435,0.03105087113731001
1729144107.20553,1.297055286207628,0.011242099237701156,10.045249614115313,0.0005583731339676206,-0.06416123220551115,3.589988401800322e-05,0.9979393885464749,0.6251565073247528,0.8973335771410633,0.09993732442163404
1729144107.213533,0.9728817666952799,0.01943452834144882,9.457083066809032,0.0010261064054545015,-0.051233790742614096,5.2640482110872204e-05,0.9986861584205352,0.6407245027471593,0.9002366985273649,0.1595738690350958
1729144107.221563,0.5442247326245898,-0.10182444168653697,8.522152714841278,-0.0059706255304370435,-0.03187846428136314,-0.000190434560131522,0.9994739010502052,0.6500653000006033,0.9036813316049939,0.20301821690948946
1729144107.229535,-0.14224984548383993,-0.49276922433809406,7.907564386473127,-0.031111527397119303,0.008971698326527187,0.00027926968332396204,0.9994756142600979,0.6952589540686386,0.9125591524349639,0.21588843372880265
1729144107.237577,-0.9810207483547572,-1.0304420241048096,8.178063232713955,-0.06251482450954465,0.05907884361876774,0.0037070677753654516,0.996287029224871,0.7828231352370683,0.9485355293582122,0.15081756331038318
1729144107.24551,-1.8012755898819948,-1.724386381455073,8.972192358573684,-0.094328815891404,0.0967376574550972,0.009209999491104919,0.990787099245847,0.8728223693467848,1.038231765346086,0.0904905379862299
1729144107.253551,-2.264219234544431,-2.471631665298825,10.54449593394304,-0.11423297031281195,0.1021846465339326,0.011813266407585475,0.9881141499052783,1.0051488811216287,1.2257161862378885,0.06365950414390263
1729144107.261518,-2.658583042191502,-2.877840886386326,10.823726538637308,-0.128654181916147,0.11528913373911076,0.01506059588944529,0.9848500878654717,1.1228568937181178,1.3386325288344318,0.0679940067886838
1729144107.269468,-3.1451559801000575,-2.968098092622811,11.123185412928478,-0.1288094278800925,0.13182256654041627,0.01727861847051217,0.982716842016891,1.2518012396963094,1.344231585418901,0.025471561860577134
1729144107.277544,-3.6125947245346435,-2.6801209991283743,11.400783585403572,-0.11384716937034367,0.14805318406008225,0.01715994145771147,0.9822548615940772,1.3457697596802438,1.2377629835123787,-0.12264064279735194
1729144107.28554,-3.5801358142129738,-2.3366281646625713,10.868953864621048,-0.10434738838398408,0.1542760496067822,0.016387284396871534,0.982365502226775,1.3800149884745787,1.0989603715511476,-0.26897612388948366
1729144107.293545,-3.45459733447505,-2.2303706732116053,9.21269440495427,-0.11660170173656029,0.17263538584898014,0.020585693148987578,0.9778431857626702,1.2996735811846782,0.9599134063228829,-0.4517062962507957
1729144107.301541,-3.369697439991671,-1.9312661551476662,7.9895742101112335,-0.11597886092432881,0.19194948315191052,0.02285025238589157,0.9742598040062572,1.184209707099737,0.8815935079234685,-0.5919940840928493
1729144107.309577,-3.2081453866024243,-1.7209182428932874,8.448972200627287,-0.09864315994032062,0.17626704224979567,0.01775640406783841,0.9792263103736933,1.0102116275291124,0.7579773578206541,-0.7089448915306578
1729144107.318137,-2.900524408475126,-0.6667169320640973,10.47022342535684,-0.03148971474440977,0.13438798985119593,0.004272776475573536,0.9904191079690761,0.9496588561173269,0.4960783506542095,-0.7616620834733996
1729144107.325563,-3.034141222233513,-0.8530131133400208,11.265904230995353,-0.03743899016327374,0.1307116510337271,0.004939646199707058,0.9907009569971219,0.9546191292320727,0.2516724837546263,-0.782650147102494
1729144107.333618,-3.4231633246487014,-0.8642343523790125,10.845247671653851,-0.03926915006741423,0.1517072154135039,0.006032049861120119,0.9876266850480178,0.9920761880793447,0.08800136115639512,-0.81397334798428
1729144107.34157,-3.1521182963028926,-0.946623868263345,9.86621353219153,-0.04721898354097276,0.15317285200634959,0.007327606961779614,0.9870434393570588,0.9915631600687582,0.007251980117399692,-0.8659710933073901
1729144107.349496,-2.841529616697751,-0.828463461583007,9.42364224895359,-0.04334462484919056,0.1452430408226555,0.006369225176743658,0.9884255842297484,0.8729135061759615,-0.10419977760237825,-0.9133459628368132
1729144107.357471,-1.8310921975088852,-0.7027399995572261,8.831290952399497,-0.03947846481902819,0.10165257444268157,0.004037197236023742,0.9940281213140729,0.686361707184073,-0.3123999326396395,-0.8234290474680224
1729144107.365469,-1.7438926659174403,-0.4532474616483981,8.167028160306884,-0.02755763559949746,0.10479445624741367,0.0029050043903279185,0.994107770621207,0.5450580135480596,-0.47265230076334486,-0.6834895058314174
1729144107.373523,-1.3843968739645267,-0.20969923382497635,8.145557246525927,-0.012821418772185896,0.08404074358548591,0.001081437189114634,0.9963792426239483,0.43899129429335004,-0.5726349321907264,-0.4743729027796172
1729144107.381546,-1.152418827503716,-0.048486826671938925,8.16020801734915,-0.0029632897006809118,0.07008915700401665,0.00020820743608907012,0.9975363079278267,0.3515126192986506,-0.6360300315388515,-0.30207703418771364
1729144107.390926,-0.8367793372737138,0.10498319696558664,8.52262206504816,0.006151072057047178,0.04891067999792308,-0.000301219348438392,0.9987841703599402,0.2343205249596021,-0.7247242084617084,-0.0697154244095759
1729144107.397565,-0.5971174082724314,-0.04403089602963239,8.19443193531796,-0.002684758033355059,0.036361384156419534,9.768647043191493e-05,0.9993350950876714,0.11334815104219123,-0.8396657735274171,0.19613148971153016
1729144107.405548,-0.4001689740161932,0.038943167704486185,8.043007689022806,0.002420134093996747,0.02485340449913267,-6.016733324747264e-05,0.9996881751904749,0.028845404970807828,-0.916293133673159,0.3871407027323841
1729144107.414027,-0.08663305799370029,-0.46026283472887075,7.586797967905871,-0.03029086505419667,0.005696090928273079,0.00017262153737326234,0.9995248812531933,-0.0082341607052372,-0.9299171050894895,0.5332472950930868
1729144107.421557,0.32702228800651423,-0.0573276690990412,7.781617400128288,-0.003682612099823834,-0.020997876275745484,-7.73446109694433e-05,0.9997727349642227,-0.0032377361772941934,-0.9236180258495787,0.6421957535826099
1729144107.429555,0.8790396862804709,-0.14812118031684657,9.522256625379708,-0.007768359501249952,-0.046003489897773746,-0.00035776124668505043,0.9989110088064778,0.0644650078817004,-0.9304808298421832,0.6841518752959121
1729144107.437529,1.1803226044928918,1.3289735149544235,12.833230872200481,0.051515996901449465,-0.045538875713813605,0.0023515523849165242,0.9976305844666916,0.011434840795450214,-0.9018203775051694,0.6263159863387973
1729144107.446033,0.5156997492191726,2.5216881446171855,14.753017193974586,0.08453137922367082,-0.017158601675760003,0.001455867732230685,0.9962720054102809,-0.08679090904437682,-0.6892323678918886,0.5558564878017178
1729144107.453523,-1.1436211380173245,3.2136143259792957,15.99227734763475,0.09892794918123576,0.034818405751490075,-0.0034636354025237618,0.994479231920666,-0.1921265756476345,-0.05808821941433667,0.48548524462297593
1729144107.461493,-1.972337814646332,3.58016774109539,14.828133557018349,0.11792408360605844,0.06379781047353228,-0.007592067037909886,0.990942031807384,-0.29534284138702005,0.3916885099363537,0.44666801920742705
1729144107.469459,-1.6521873738463928,3.6688975391884835,11.762260681086008,0.15025529232987056,0.065840227202402,-0.010029225480630939,0.9864014528806514,-0.47731719816294427,0.6270736525683434,0.35867279461586893
1729144107.477557,-1.688982788077367,3.1381896331322308,9.809491217001213,0.1536644939780042,0.0802120287803147,-0.012516206013192015,0.9847825132060709,-0.6758967251355255,0.7985287325113414,0.14666757687413426
1729144107.485575,-1.6241505163522796,2.8324541582973075,8.490107296118696,0.15963645215043515,0.08847733303292514,-0.014367040165633805,0.98309793654604,-0.8346336170350431,0.9158752425668493,-0.06950477661647114
1729144107.493552,-1.2392890134246488,2.5089520762772124,8.017145184555982,0.15064435881345972,0.0723290698253049,-0.011052059199992928,0.9858765819327121,-0.9924521912096723,0.9088075574140642,-0.31712433573581716
1729144107.502363,-0.8606498692364298,2.17670539127414,7.978534167618355,0.1325902909784414,0.05136498586936965,-0.006880575778520173,0.9898151901450329,-1.0909745462676081,0.8419905072874745,-0.481872293542982
1729144107.509639,-1.8466083639246704,2.054211253563312,8.785197852865936,0.11398988182261197,0.10010821406136762,-0.01154574009434941,0.9883579049135915,-1.0819775494684447,0.6648280774207466,-0.5402805123883878
1729144107.517563,-2.367793931929021,2.0029808463762686,9.075983990039873,0.10751362106212871,0.12366915777060009,-0.01347957717527169,0.9863899136252334,-0.9952725496496986,0.3933628756534415,-0.5638318120361565
1729144107.525555,-2.6565632561300694,1.8350548469370893,9.295706083721191,0.09635164999002081,0.13560619259656426,-0.013251701843832632,0.985977541565682,-0.9253705671770455,0.1823807776478489,-0.581368112316514
1729144107.533561,-2.6880881123694476,1.6014210551349097,9.203202644373338,0.08515607596512303,0.13911887418442534,-0.012008518998991866,0.986534427703023,-0.8923688689841562,0.04812909773817679,-0.5935926527305766
1729144107.541543,-2.6399653796286993,1.3350663525633677,9.276508630081034,0.07070791003537359,0.13650480541600685,-0.009768562431817287,0.9880644739817253,-0.8832101016049735,0.008444335692728556,-0.5834740844590709
1729144107.549476,-2.4609752958924536,1.8137871137841144,8.147333408029088,0.10813790103763705,0.14201269967826247,-0.01560957259911209,0.983816511719812,-0.9015534846193377,0.09105599383096752,-0.5220632355061032
1729144107.55746,-2.383269346236644,1.5723798439540622,9.151515520891671,0.08427733206920039,0.12483672334877464,-0.010642935830919206,0.9885341935005274,-0.9168164150425766,0.2619446562305899,-0.4417963398651955
1729144107.565451,-2.7841220667263613,1.5364716575931403,10.436611681919768,0.07238743700377362,0.12831741424784063,-0.009391468954711034,0.98904322477617,-0.9140548515755829,0.4057697896321804,-0.38341964100556203
