Time,Accel_x,Accel_y,Accel_z,Orientation_x,Orientation_y,Orientation_z,Orientation_w,Gyro_x,Gyro_y,Gyro_z
1729576646.365821,-1.2317405923900087,-1.1326880224820632,9.845042516880238,-0.05712886742476354,0.06168864590591824,0.0035367478262372186,0.9964528563298274,1.0159321114581612,0.8391975124735214,0.20387344398629859
1729576646.3736756,-1.7110902294574426,-1.2281244138310345,10.170859246700408,-0.05983379829851643,0.08250338566740817,0.0049623915424481975,0.9947806203403676,0.9756527197322439,0.8427934864693519,0.18873171597985605
1729576646.381689,-2.034373616434231,-1.2808372654861206,9.418245427170636,-0.06714121942825056,0.1049906834647102,0.00710477119754404,0.9921786811182405,0.9059362481202561,0.8645328136941037,0.14261164382879382
1729576646.389675,-2.061228372741398,-1.2760731112447974,8.655670339798474,-0.07261163150181425,0.11511870136150333,0.00843777919122063,0.9906583868568448,0.8951817396397916,0.8579946672017014,0.09067526703482066
1729576646.397766,-1.9751088156370264,-1.4494278608875035,8.45358660451385,-0.08423611422381617,0.11251976000835298,0.009573713427432969,0.9900262242381987,0.9049052568870702,0.8340643464175446,0.049296879483348016
1729576646.4057028,-2.1195221973412,-1.8254220192668773,8.93352040020831,-0.0999265907607887,0.11337200679014262,0.011461274977309201,0.9884483313310799,0.9286183498168428,0.7835224987227778,-0.013842258579118416
1729576646.4136941,-2.4376895269008134,-2.160433530163642,9.083814082166002,-0.11549444240368005,0.12647355323519371,0.014827748332120791,0.9851119794141816,0.9556169074185672,0.7327642671557402,-0.07641576498139611
1729576646.4216864,-2.6657000503690043,-2.176129228205607,10.056253603108196,-0.10546432087501915,0.12569846252064132,0.013440090626730492,0.9863551781717695,0.9973574456673238,0.6644229127453968,-0.185050109086922
1729576646.4296813,-2.4910207284635897,-2.0778075723237546,10.09743063964812,-0.10055689262359369,0.11766003259478386,0.011976720935832021,0.9878770096683628,1.0279357394155841,0.5318947368848539,-0.3323888974124096
1729576646.4377024,-2.388367916814482,-1.799266286558315,9.29446134765606,-0.09470591890577013,0.12268643928041494,0.01176208381012786,0.9878463847812322,1.0390459846196858,0.41023451528378707,-0.45314461507881665
1729576646.445673,-2.150802407803533,-1.478673188683036,7.974709191406135,-0.09074078396287416,0.12870345683684498,0.011827057296905178,0.98745210063058,1.0167652075627287,0.3291502711553684,-0.543477028260066
1729576646.4536707,-2.139704773539542,-1.310738186891462,7.580534793408135,-0.08468488943478011,0.13472928851386967,0.011557594629909851,0.9871893994185392,0.9940315599763898,0.2830538650470894,-0.587034224632265
1729576646.4616926,-1.9443831021608344,-0.7502904670665177,9.05492666095699,-0.04108497330298351,0.10512451971398222,0.004346855764095417,0.993600505821411,1.0199805471405554,0.20601597425252632,-0.5791133375386218
1729576646.469691,-1.6986214701832194,-0.44131573409733255,10.574743481925756,-0.02078423420155585,0.07946545806841385,0.0016572308919584372,0.9966195413338045,1.0883355070603467,0.04613399336542602,-0.5092302258787451
1729576646.4776874,-1.9825996301568067,-0.17644339919863394,11.312575113813656,-0.007767333367179867,0.08662546276220218,0.0006754083475492527,0.9962104403975907,1.1174291612912843,-0.08001918953063838,-0.43452222415024266
1729576646.4857273,-2.1826746267268966,-0.13746950143324288,11.343710827565538,-0.006030490641292954,0.09489324437533085,0.0005748574884337999,0.9954690225684659,1.0335711192018837,-0.17316439178822032,-0.38671759268290695
1729576646.4936748,-1.9862061651962941,-0.3460833036431489,10.6534691442444,-0.016164688479429937,0.09197084474308376,0.0014932063108909351,0.9956293672338716,0.9117403636226219,-0.23926807461785826,-0.3750624162609868
1729576646.5016665,-1.5405588810025421,0.03847394847817319,10.263266150853282,0.0018689331826925528,0.07442637387265157,-0.0001394850255808947,0.9972247502468311,0.7181716228813098,-0.2976606470199704,-0.30676994155730214
1729576646.50967,-1.2463554518925408,0.18708718280760703,9.83258039851978,0.009492692576833784,0.0629867810955706,-0.0005991309632358173,0.9979690352094844,0.5190208164514264,-0.34844672273533284,-0.10275516319513325
1729576646.5176961,-1.1136472848073995,0.2051473340986267,9.442009015479055,0.010842166289430443,0.05865093459847582,-0.0006370374504951142,0.9982194695978256,0.36888064816823013,-0.3904119998240252,0.07541910187369422
1729576646.5256906,-1.1063272746930335,0.14439679523456664,9.173907942246416,0.007854509279121407,0.059962499539721076,-0.0004718396566989551,0.998169616197704,0.2153687280404696,-0.4649712132068362,0.20403385404955432
1729576646.533691,-1.0655434033900388,0.3174391171798025,9.28574686739863,0.017056370897833305,0.05705295138047162,-0.0009748466817190639,0.9982249699464145,0.091760511415623,-0.5416334958461753,0.29312202707600726
1729576646.541691,-0.7829781416433982,0.07290816879420961,9.242716946122773,0.003940333768704186,0.042241396324832266,-0.00016659519437402855,0.9990996499110391,-0.03221015575034269,-0.6314769417603678,0.400211878636095
1729576646.549695,-0.47505412863838264,-0.11786371078402111,8.793364719675616,-0.006698866283236465,0.026979546636777558,0.000180802251105204,0.9996135236001658,-0.12787705912302366,-0.6615443658670097,0.48915581313694545
1729576646.5576894,-0.5677876932474827,-0.3383899720758814,8.548174240740916,-0.019770199275739184,0.03312391458137012,0.0006553543159027173,0.9992554808526818,-0.20869015452704398,-0.5408098602943725,0.5940306712743616
1729576646.5656784,-0.2506506335266146,0.134787871002518,8.413270381846893,0.00800873832026656,0.014888805267268941,-0.00011925759024136541,0.9998570744690753,-0.23333936832758242,-0.36577785213844055,0.6978218320571663
1729576646.5736804,-0.24735554735229687,0.28581638471088583,8.43743351939134,0.016928229344551585,0.014643006535764707,-0.00024794229572154027,0.9997494465792266,-0.201302989847082,-0.26331278761365356,0.7779755111082545
1729576646.5816896,-0.0018881868098156146,1.2625275273597345,11.086989749085975,0.05666276695948376,8.44705378546591e-05,-4.794036638669983e-06,0.9983933712130909,-0.11397075292485669,-0.20992186006656,0.8196823676169769
1729576646.5896738,0.10421196096098562,0.49559085479474696,12.094453643152756,0.020475268336142445,-0.004303619696696989,8.81370619018964e-05,0.9997810932778872,-0.1045661069791867,-0.21534802894696264,0.8246990486334949
1729576646.5976968,0.6493460034808882,0.8391623485702076,11.193936816018606,0.03738795276280227,-0.028866774786173603,0.001080476268746401,0.9988832178351399,-0.20704859502314077,-0.2275432215659069,0.7830116007898924
1729576646.6056712,0.021379386756501667,0.5092434931264995,11.852642911144367,0.02146741393403723,-0.0009008426704580451,1.93432280258935e-05,0.9997691424760555,-0.3413310883595206,-0.13652593293954413,0.7703441438661298
1729576646.6136935,-0.13704939187188023,0.8770420321551966,11.793207672956152,0.037106708500479195,0.00579023823256285,-0.00021500836834928698,0.9992945106908534,-0.4653209706304756,-0.07084761816571365,0.7972245646902967
1729576646.6216958,-0.15788640758406564,0.8053891328673367,11.377107886244394,0.035327980025564955,0.006916637315162662,-0.00024450931413797275,0.9993518070083023,-0.597183058290423,-0.04080581065358006,0.8610301040685444
1729576646.6297069,-0.05642461798793937,0.8351811237633707,10.803273109432183,0.03856764318889702,0.002601726798542908,-0.0001004175229367237,0.9992525996127509,-0.7005646443897272,-0.034700047867236794,0.8814344451140878
1729576646.6376872,0.11147326997872074,0.7412471007716943,10.75872629119642,0.03438703461530931,-0.0051650821556957684,0.00017771933851920153,0.9993952282218118,-0.8089938127486712,-0.01145484736817738,0.8004509262812287
1729576646.645838,-0.11052638103034568,0.3425158495743447,10.618273621397538,0.016122087513577063,0.005200943491613592,-8.386210030046259e-05,0.9998565004280113,-0.906829448496614,0.04931817969208175,0.6603374517671766
1729576646.6536982,-0.4117991281787543,0.08220812424655996,10.758099294908837,0.00381994438165873,0.019127824520459576,-7.308112975769988e-05,0.9998097464083774,-0.9540371982859048,0.11174908967742116,0.5290177702364598
1729576646.6616993,-0.0780488397002213,-0.19153181246378279,10.64471248221874,-0.008995415625610018,0.0036652694312991163,3.297217745953089e-05,0.9999528224924183,-0.91127160789532,0.20327027347430282,0.38339262166849075
1729576646.6696784,-0.05808205162286715,-0.2844285650173321,10.380116438305855,-0.01369673283058176,0.00279641041977409,3.830542944648102e-05,0.9999022842914331,-0.8426175574533039,0.2956437091610906,0.30240288344963984
1729576646.6776779,-0.12247701173543904,-0.27600201205727426,9.556728431098746,-0.014435371223708275,0.006404162137572104,9.245798814520788e-05,0.999875291332109,-0.7358688577229414,0.4051304083788413,0.26147146162464585
1729576646.6856778,-0.3059631882424353,0.23231510868360422,8.458877968083076,0.013725815239420035,0.018067954296002733,-0.0002480612753234813,0.9997425115944478,-0.6364873627833754,0.4942353812899034,0.16709943844987626
1729576646.6936753,-0.4519679190489768,0.5147998855226625,7.969916587978752,0.03223264915356059,0.02824704497498857,-0.0009113148231758519,0.999080742624948,-0.5734529453279393,0.5536580258970092,0.07599532956658996
1729576646.7016754,-0.5046154132946205,0.9615393038721912,8.715383860257955,0.05488991079711948,0.02869607427383792,-0.0015781570298673505,0.9980787255694531,-0.5458488563297665,0.5880345424768865,0.004730951839598936
1729576646.7096775,-0.7555127819123191,1.2870437947256586,9.707823941643055,0.06580619083561434,0.03840570860172015,-0.0025347098349015195,0.9970898264652786,-0.5463140053893442,0.5992952710726482,-0.029939563628817077
1729576646.717678,-1.0791519831122351,1.591522084940864,10.588197988032707,0.07443007433276079,0.05006370573944359,-0.0037413538915697913,0.9959617420732144,-0.6223659257653325,0.6205251703198142,-0.062235504569341536
1729576646.7256773,-1.5520205770743725,1.6212195729860026,10.863834140720014,0.07381153900588287,0.06993383270991188,-0.005188887384966968,0.9948035942837115,-0.7190798853663691,0.7064818004395834,-0.06458546667517495
1729576646.733693,-1.9118773462446235,1.59666069642832,11.012935261043339,0.07165573924740566,0.08475017231748637,-0.006110700818855489,0.9938035634171205,-0.7707229102050606,0.7716778604782298,-0.04428525080411138
1729576646.7416933,-1.8361776455397427,1.831401183481992,10.888833145151395,0.0829253962091763,0.0820143244991521,-0.006847967859813316,0.9931516171142701,-0.7706333506215473,0.735022665561176,0.0006730134511031931
1729576646.7496927,-1.5087208695504082,1.7459934188294297,10.84046867371193,0.0795673553324922,0.06800416864607989,-0.005440878767240393,0.994492265354733,-0.7582346030890403,0.6312970568102337,0.034884703049086474
1729576646.7576947,-1.3179928879411824,1.5898827273230485,10.776734066775985,0.07303292992016755,0.0600048927678486,-0.004402085079688148,0.9955130464429615,-0.7295108514964346,0.4260298309084258,0.0924467521550732
1729576646.7656898,-1.6531871707529908,1.4184047584641413,10.93170537658903,0.06428478982130384,0.07420767017397731,-0.0047936394647810285,0.9951571275460286,-0.682478296238529,0.2986125947527206,0.20275681255890687
1729576646.7736797,-1.7779287074810912,1.0804073741214535,10.983747314088184,0.04884221725689373,0.07967903788004221,-0.003908838817877192,0.9956155933466676,-0.6329742600106839,0.23791278533339272,0.28852459162846056
1729576646.7816746,-1.874800284791389,0.8761724225197471,10.284980390406036,0.04230109117773325,0.08963266779487553,-0.003810348925667231,0.9950688839423184,-0.5602771420663117,0.18105977673161847,0.3399852590701927
1729576646.7896705,-1.785919249243974,0.905184416646614,9.506829407339325,0.04723531472702454,0.0922020943552779,-0.004378798047323289,0.994609684734067,-0.496651438410973,0.11331845671505342,0.36319923842891544
1729576646.7976806,-1.578643461167478,0.8696797564332809,7.984335305536407,0.05395561181560244,0.09674574828975602,-0.0052523742150574464,0.9938317084429155,-0.4256978814851933,-0.011612967464367865,0.3434981111886486
1729576646.8056755,-1.6316883313391588,0.5184559715357497,8.612704713595281,0.029921014561985284,0.09327282073290237,-0.002804314756832528,0.9951869420459927,-0.3409824312449843,-0.13467479891723022,0.2661211653793356
1729576646.8136954,-1.569662548364042,0.572041563878481,8.756770536897404,0.03247786696610061,0.08833664816375597,-0.002881790019070054,0.9955568894015103,-0.2663145176589851,-0.24810107350491656,0.17372047125584839
1729576646.8216784,-1.1390797458153004,0.4902289202606824,8.141708944452896,0.029989930785134986,0.06929120844222311,-0.0020839916451167776,0.9971434146916592,-0.16532268139439749,-0.48217596222772074,0.045487054271748664
1729576646.8296957,-0.6990101582801959,0.5393036021564094,7.413302319796737,0.036260608368386016,0.046835454176059124,-0.001701271513409708,0.998242813241405,-0.07535496539476472,-0.7205296095976705,-0.05146042880742665
1729576646.8376858,-0.6798952355931174,0.5266104620750957,7.071786991243277,0.037111913105045136,0.04774097296362078,-0.0017750097702554633,0.998168500177443,0.01949191010536997,-0.9869919158436296,-0.16496862664499592
1729576646.8458474,-0.6260489125961047,0.48715169594622926,7.413713453290888,0.03277158470794107,0.04199722089705945,-0.0013782737760449648,0.9985791691368553,0.08533952669615347,-1.1834786448769394,-0.33609054022134915
1729576646.8536797,-0.3138589447256316,0.4632370161028938,7.632995120314377,0.03029594029270251,0.02049923252324479,-0.0006214595597111377,0.9993305515472619,0.12399671652769949,-1.320526735062717,-0.4864409752509086
1729576646.8616812,0.4186147540142304,0.27889989032579876,8.241010250899564,0.01690854242949395,-0.025355614078933986,0.00042892575663113993,0.9995353970972141,0.13442032858276615,-1.3538012321060497,-0.6511469970244999
1729576646.8696873,0.6313680760413507,0.8712352222814167,8.64939379946552,0.05013928041579543,-0.03619683161737904,0.0018183662930123417,0.9980844330437549,0.13599190513972378,-1.2098752566691675,-0.7644440721783636
1729576646.8779476,0.23492932584941975,0.5368669231637719,10.09032765785314,0.026572990405814092,-0.01161840995152716,0.0003088658335037104,0.9995793081756883,0.12161000886126525,-0.7842446924217988,-0.8102864340746563
1729576646.8856997,0.4275435342303549,0.9719064844646694,9.304325348373993,0.05200242571339382,-0.02280241013522708,0.00118769771280723,0.9983858909189827,0.12277174250781683,-0.5454682662703969,-0.8169330382007923
1729576646.8936896,0.9043970897764942,0.9918341140674736,8.39841578153416,0.05865610865873869,-0.05315213282759643,0.003127526070506049,0.9968573269398034,0.13538810441668467,-0.4090134515629482,-0.8162384100003917
1729576646.9019096,1.519951371541678,0.7610186434893123,9.85953509147909,0.038390694128377624,-0.07612455511283288,0.0029331669093975153,0.9963546573610705,0.17062777555703745,-0.30245053917368114,-0.7779352176100305
1729576646.9096878,2.0415551661867255,0.33881646441389984,11.511209754838626,0.014653148136917437,-0.08760505700939936,0.0012887848636521713,0.9960466747445286,0.21859005211335708,-0.26703402585807706,-0.7013163544315977
1729576646.917701,1.8129490274464104,0.7156490339217774,12.02983856530552,0.02961925793939641,-0.0745570813277346,0.002215471839754583,0.9967743139083873,0.3112209272664537,-0.2283308253487713,-0.5859575565062268
1729576646.9256752,1.5735529333135494,0.0008273231850976395,12.33143904494503,3.347503341778814e-05,-0.06341694644330238,2.1271661336432627e-06,0.9979871190444818,0.3352983878101212,-0.029724599720830802,-0.6282730738540566
1729576646.9337428,1.6355771994412547,-0.13286063855964453,12.509526290736547,-0.0052984869872405495,-0.06495422684002412,-0.00034489232604419367,0.9978741180632675,0.3488934840133977,0.1622321361659409,-0.6877175891797169
1729576646.9416897,1.3026481824577214,-0.6059619080381304,11.36109870779154,-0.02659487313630979,-0.05694866420359045,-0.0015175446996970314,0.9980216728239797,0.4008966180659528,0.3450908974704669,-0.5756698470477882
1729576646.9498405,1.0303464619648672,-0.861092249803347,10.541797587712031,-0.040690114678603735,-0.04849479140228349,-0.0019772282754762635,0.9979923147713302,0.45210593138620137,0.4790704877565183,-0.41904628886160444
1729576646.9576886,0.937115538311733,-0.3411603681925551,10.264737384414326,-0.016593317135164806,-0.04547418157863935,-0.0007554533553526933,0.9988274074766034,0.5249748354630916,0.5998987977670422,-0.2212037789531584
1729576646.9656727,0.9252302946667272,-0.44100392477295486,9.778635920638829,-0.022506165900828805,-0.04709133281750535,-0.0010612924778217103,0.9986364466251929,0.5878522306750174,0.7038968483215469,0.008181142972037425
1729576646.97415,0.7263235955012082,-0.4551808070122105,9.73118361170947,-0.023351753858847708,-0.03719103695456898,-0.000869314901199361,0.9990349176347952,0.6255786678021726,0.7931141525263576,0.15304882717200946
1729576646.9816754,-0.03730009074615017,-0.45458897004717,9.766637410678026,-0.02325361798935501,0.0019069753472211145,4.435615094569624e-05,0.9997277783116573,0.6465117698326177,0.8692061083067317,0.1876095601321628
1729576646.9896712,-0.2541387751508151,-0.7140047479950988,9.047143696406815,-0.039364421905098784,0.01398674565847004,0.0005510613033469666,0.999126873607853,0.6675854322801253,0.8854886675340761,0.18195321609760884
1729576646.99768,-0.4515190524440047,-0.8677388534357312,8.281216916086276,-0.05215787960916317,0.02704646352173825,0.0014131287389479246,0.9982715299320173,0.7304610570011496,0.8552433372930517,0.11811142094926796
1729576647.0056741,-1.1069666511929654,-1.5817534878426887,8.240167298089265,-0.09447088310801285,0.06524447201992466,0.006204853705899297,0.9933679634989855,0.8269316603155246,0.8213456068743419,0.03766302777552232
1729576647.0136962,-1.7032635112235917,-1.914633622246629,8.728375522896528,-0.10726177610277572,0.09348832400844685,0.01013132853850342,0.9897738129711325,0.9129095663606437,0.7707829742593117,-0.028484990710130397
1729576647.0216928,-1.9039819983357178,-2.2189883154378207,9.999092415788697,-0.10849433841545188,0.09122195674754377,0.00999852797548338,0.9898522933131317,0.9998285850890637,0.6876598270690018,-0.1460750830490738
1729576647.0296912,-1.9135615537377588,-2.4434996604052706,10.642530729014235,-0.11216296713263026,0.08608145299978713,0.009753601919627302,0.9899062175292381,1.0613451776782803,0.6250152369109548,-0.25834676447571897
1729576647.037685,-2.043328932975077,-2.1192380091337872,10.255984841217135,-0.1012159151843641,0.09569746722642725,0.009781942063874465,0.9902028311862664,1.0952753028015763,0.5818945120171202,-0.3865834521207766
1729576647.0456853,-2.293811300214734,-1.9641853457634755,8.652419177435359,-0.11045447773950345,0.1253731346098657,0.014046902856502765,0.9858418077894293,1.0283669152758375,0.5172842814877745,-0.48566134790383686
1729576647.0536828,-2.2822526883319654,-2.0016377382198036,7.506405091666293,-0.12854827695067136,0.14117683603656983,0.018491447209198493,0.981428809359001,0.9337335548932539,0.43254361653226775,-0.5787376002291734
1729576647.0616922,-2.1390874467394134,-1.311594759631101,7.895708546943136,-0.08148381895353903,0.12976482070245537,0.01070071777581001,0.9881330746391849,0.8314047020872665,0.3008181058811777,-0.7205727440397058
1729576647.0696902,-2.514550961695992,-0.9023573757981919,10.235948660880725,-0.04362091544664838,0.119593361915753,0.005259636487989363,0.9918502809120429,0.8159819170415734,0.2354048814573087,-0.7950315787894744
1729576647.0776887,-2.6646511385410325,-0.09824769818399319,12.549171099604605,-0.003892142877096508,0.10442001866530178,0.0004086547767469296,0.994525587366678,0.9770042705989702,0.1880688356352087,-0.7354128145811378
1729576647.08568,-2.57777974196251,-0.09965004713305216,11.595335919040107,-0.004270139299126429,0.10915429171078139,0.0004689102067594334,0.9940155364151517,1.0800030336553388,0.10092197966018833,-0.714115018145845
1729576647.0936704,-2.5091369125603182,-0.38659855489115935,11.663483754793205,-0.01646960654880837,0.10568032890290276,0.0017505577579311415,0.9942622167671051,1.0685836009176906,0.06651284865658144,-0.7549732880288852
1729576647.1016715,-2.3147223086690034,-0.12661425988782063,12.341708938178657,-0.005106406050399366,0.09256081686048502,0.00047469724433806535,0.9956938256622336,0.8288794776553703,0.04884720048465153,-0.7394733841812784
1729576647.1096747,-2.130557059517808,0.40670249875480763,11.896068837028286,0.017016816115691853,0.08843006694842181,-0.001510938831743617,0.9959358755927156,0.5875739796231728,-0.0017670541959373953,-0.6416299090886117
1729576647.1176872,-1.5721027794118567,0.24066961692866579,10.785446951631036,0.011124696625423022,0.07228570406920516,-0.0008063161677175245,0.9973215970620757,0.34147644617589085,-0.08662393487143079,-0.4152019398169713
1729576647.1257007,-1.4232991005084419,0.13578264418063696,9.29451076863487,0.007281949477109638,0.07589338439549813,-0.0005542651492995393,0.997089193706839,0.18530412487828105,-0.14136927382988512,-0.22357976020246087
1729576647.1336813,-1.4826968162620966,0.04962670442830405,8.754051484374282,0.0028240923372048264,0.08379016093498429,-0.00023746718048020375,0.9964793911779102,0.06861346878076546,-0.18017613806542615,-0.12393129464638775
1729576647.1416879,-1.4314259254506172,0.09226468598706056,9.385541216552303,0.004900443463768204,0.07559712416720725,-0.0003715270783933624,0.9971263322363603,-0.07163978501897908,-0.22219061931108014,-0.05903393457519951
1729576647.1496942,-1.214155081637558,-0.21303119451127928,9.757252450878648,-0.010892868982018654,0.06184212302931011,0.0006749703509199903,0.9980262730207025,-0.17877900061777552,-0.27719761236081475,0.027156078289798942
1729576647.1576989,-1.274849867830191,-0.5475222677321582,9.306072003974455,-0.02930881950440457,0.06787421265465418,0.0019947761363566237,0.9972613023796395,-0.2766920448325539,-0.3808663583933528,0.16315671817828026
1729576647.1656792,-0.9698535828074897,-0.7771867517525761,8.882853090079985,-0.04355492902006797,0.054092606288673864,0.0023617084229005086,0.9975827687145967,-0.3771574973847,-0.489042132650775,0.22517535928411558
1729576647.1736689,-0.4126420923114469,-1.601881898463655,7.703562800092913,-0.102293411831725,0.026057145477861424,0.0026804599037350066,0.9944093212556261,-0.4489304005754625,-0.5594815680042348,0.2304597893379644
1729576647.1816766,-0.29044146510366503,-1.3626367574863962,8.178005985719809,-0.08244578924259116,0.017448313492424296,0.0014436769382386758,0.9964417514282179,-0.477946370461673,-0.5378917199970059,0.22767078650980527
1729576647.1896708,-0.27721555044891777,-1.134095513964494,8.66498193737915,-0.06501701303036722,0.01582150269389938,0.0010309781041215554,0.9977581897199665,-0.46768609839836717,-0.47640914418599695,0.2221661742597515
1729576647.1976705,-0.27215304364825693,-1.2660790344529151,10.918976348706785,-0.05768169728106822,0.012355991290772365,0.0007139580471034421,0.9982583040185062,-0.4679152860823142,-0.37481470935716277,0.15543558775187652
1729576647.205675,0.3859380346508896,-0.35837922242956144,10.920085578511179,-0.01639989517551735,-0.017650876465984382,-0.00028955659339041645,0.9997096609292089,-0.5204126762525123,-0.2644780013302666,0.11837706627738578
1729576647.2137666,0.38910129002881505,0.3490463776750756,10.782845100768817,0.016176174324654576,-0.018022014045875633,0.00029161277567930373,0.9997066836607313,-0.5425459290024666,-0.15187575981476747,0.14254217009205278
1729576647.221742,0.27296510140986713,0.43137032050152974,11.769511855383165,0.018315250168702498,-0.011584221366129226,0.000212217756209069,0.9997651286128268,-0.5754076234796924,-0.013224174641308692,0.22557733227624005
1729576647.229718,0.45132268023068595,0.3993618297520897,11.358820252878338,0.017567630474310102,-0.01983955902748139,0.00034865650294931547,0.999648762664045,-0.6172605233620536,0.06826401621691844,0.29157465192230964
1729576647.2376955,0.39289789280638027,0.5602007001461757,11.280238827752394,0.0248042366389059,-0.017380643368032408,0.00043131150554749864,0.999541133246281,-0.6525888247665592,0.14142126423519052,0.3639511784425278
1729576647.2458444,-0.20407610928687497,0.434043267988096,11.017372403096747,0.019685800144785052,0.009251399120182078,-0.0001821642949657453,0.9997633958608148,-0.6495214721059266,0.2342699701142874,0.36353101802406945
1729576647.2536876,-0.304404991744,0.2209216334002795,10.953026413049455,0.010082408783566223,0.013888378408041795,-0.00014004893649178504,0.9998527083348885,-0.6255451773135214,0.30956093646899896,0.31304749452047476
1729576647.2616818,-0.4474416986596812,-0.14206195037975416,10.84211392888436,-0.006549525116285314,0.020619056549553667,0.00013507664443366047,0.9997659425995955,-0.5873207569962046,0.3938990019363328,0.2533847661774377
1729576647.2696726,-0.7073221835024494,-0.3373466050423056,10.794480631500539,-0.015611478986418133,0.032690634264612176,0.0005106844365990725,0.9993434561534088,-0.5550209234536498,0.4628065138596005,0.23418904156863474
1729576647.277664,-1.0157611201600634,-0.30894993690233646,10.37205447997454,-0.014870000324959361,0.04876433731146637,0.0007260700733898136,0.9986993518167305,-0.5135051401320913,0.5173474129188841,0.2494900806754609
1729576647.2856762,-1.1088871384046317,-0.16190678587187066,9.943343227535507,-0.008127606555429526,0.055493163457789985,0.0004517376864144989,0.9984258844572239,-0.4856158397089219,0.5449636716169098,0.2607991544468668
1729576647.2936754,-1.126216102622857,0.06183091871125261,9.160110371335758,0.0033683859846346097,0.0611271067906979,-0.0002062866247185339,0.9981242849650968,-0.48718693209788766,0.5508911752991745,0.26928735895555844
1729576647.3016708,-1.098545674757308,0.5319800343810485,8.748110337791688,0.030301985465854477,0.06227756611479344,-0.0018916796648880858,0.9975969707169775,-0.5213334123253056,0.5421026657261345,0.26373803012422264
1729576647.309692,-1.1482628040243066,0.9706502923571446,8.66323719022384,0.05563526975260483,0.06533450368798432,-0.003648385065622864,0.996304576258592,-0.5614030432890098,0.5308698991218419,0.24125238005962973
1729576647.3177037,-1.614077203898959,1.3444645638420212,9.403118110032741,0.07068805270417967,0.08384767063502047,-0.005963103518750457,0.9939503049601609,-0.6531295416396954,0.5518000931542985,0.17965801307566442
1729576647.3256874,-2.1044950100835162,1.4016378508540406,10.10705696221105,0.06847527482708068,0.10128130445721223,-0.006987856599644863,0.9924738807469666,-0.7426463356285313,0.6086299759658237,0.11715998919756335
1729576647.3336914,-2.4028158366165155,1.6995434258444555,10.564375617756317,0.07916409094588239,0.10987217793607183,-0.008779144753402841,0.9907492507378923,-0.8159381548490863,0.7427650700963162,0.045605969953740166
1729576647.3416963,-2.5451770471359247,1.9280861653699546,10.765504240282697,0.08789224968924549,0.11362740064119263,-0.010092162168855357,0.9895766339858914,-0.8186213104196023,0.8181378458370674,0.014592880128383152
1729576647.3497124,-2.6145526223245237,1.9979347424348635,10.915630094218447,0.08976227561091256,0.11496456801257245,-0.010431613167377665,0.9892507586176315,-0.7938384199512658,0.8063190430456058,0.00875572807702989
1729576647.3576796,-2.4222644652404175,1.9423998811054493,10.939865060925598,0.08722184147582579,0.10670519213055009,-0.009397112827944686,0.9904130686801579,-0.7270344981718961,0.62554621629422,0.015895688382768725
1729576647.3659773,-2.2403327648376097,1.8434778388195192,10.850018848567078,0.08360908227090857,0.09988715027154635,-0.008423545168543147,0.9914439583048754,-0.6648162619082487,0.46344557249917256,0.022308114873522182
1729576647.373674,-2.4496025653967064,1.5698435648639772,10.978309867489857,0.07052035418342821,0.10820957760130549,-0.007695668760938462,0.991593840059282,-0.5930044251716357,0.3751246775128467,0.038500582550373176
1729576647.3816762,-2.3984723632126332,1.1992828173851833,10.099040335777119,0.058652946844271955,0.1153427123278985,-0.0068227113621482744,0.9915691307967365,-0.512030907659547,0.28722555548116463,0.026505870021920157
1729576647.3896794,-2.3740191662185954,1.1634546782240787,9.112031318165489,0.06292767489916976,0.12586176694503184,-0.008000047728883852,0.9900176375144003,-0.43705401334164784,0.1970253568534966,-0.005380981059949486
1729576647.397675,-2.093351443578814,0.9789126616707753,8.398439883428589,0.05754099329489423,0.12084808142287848,-0.007017032898666177,0.9909770615692097,-0.33204557808476187,0.09480226073168621,-0.09177212142007228
1729576647.4056754,-1.8933473480808818,0.7829538726372308,7.999733703006372,0.048422253601508265,0.1152719896100041,-0.005625965986995954,0.992137088448071,-0.24860739398045278,-0.0005868018583625526,-0.16999958944679192
1729576647.4137235,-1.8142857391707947,0.7118261114241353,7.699218432253042,0.04576155428651068,0.11486067155978848,-0.005296920931558807,0.9923128785351735,-0.1683204891540631,-0.1442353218891842,-0.2607821465934129
1729576647.4216876,-1.7354847320766955,0.5429750272060437,8.206523986597919,0.032842047788269484,0.10373811355355327,-0.0034273429579792713,0.9940563651089769,-0.07289674943594378,-0.30321743441768456,-0.3969841726820956
1729576647.4296925,-1.4856546673710174,0.5834011149564386,8.238926010611094,0.0351932940133671,0.08881112621646237,-0.0031399319489191064,0.9954215974872197,0.009473208021187687,-0.43819587765075374,-0.5229771547273565
1729576647.4376917,-0.801610238166751,0.4434145337199569,8.213116813642047,0.026931753358624702,0.04853947901926401,-0.0013092731547456674,0.9984572526860501,0.10061280851874567,-0.6481670322135908,-0.6585952426206596
1729576647.4456937,-0.46803745393520685,0.42526313063236476,8.200743757618822,0.025891310238193337,0.028453796052576058,-0.0007372520221209658,0.9992594648057149,0.1667902004767553,-0.8418344447237561,-0.7391147152337172
1729576647.4536724,-0.725904560984171,0.13903909786184074,8.403770249932622,0.00826359347647259,0.04306162320858327,-0.00035618633619123515,0.9990381788304147,0.20096266485255468,-1.0704170684558316,-0.7818924280025454
1729576647.461674,-0.4427253415709714,0.5617849504163231,7.896868789363869,0.035488416814791174,0.027910705851855126,-0.0009915183392273765,0.9989797703968853,0.23466253538335724,-1.2914275848030972,-0.8352289096588744
1729576647.4696712,0.04321680921757343,0.723255698032997,7.374376721616368,0.04886241481802593,-0.0029126882230001614,0.00014249179055543992,0.9988012616940151,0.2672274694842377,-1.4529808187908744,-0.8736161495746023
1729576647.477672,0.3094035620930441,1.0044916744350325,7.47723314966904,0.06670607693394792,-0.02044692088407065,0.0013672669938792471,0.9975622052320398,0.31443628393979806,-1.5052153027300277,-0.8996283239542733
1729576647.4856765,0.27781890117184205,0.6879285837625821,8.464066527985018,0.0405323058475668,-0.016337727321231715,0.0006628391503830242,0.9990444291886709,0.3457414030433685,-1.4394986590801764,-0.9348173714093293
1729576647.493673,0.06637429114255834,0.9423545574841118,9.606114676312496,0.048873505015280275,-0.0034341194548874816,0.00016803925973617485,0.9987990584166057,0.3385573807563268,-1.122518752817021,-0.9465656185301982
1729576647.501671,0.6271222419218632,0.8448160682307014,9.14499981042617,0.04601521671926906,-0.034046669867922603,0.0015692398038809408,0.9983591345741377,0.31125970406515213,-0.853578147688652,-0.8399553203923571
1729576647.5096786,1.0064272221062427,1.0750336948934989,8.99666009987875,0.05933471966403984,-0.05518565157614252,0.003285246286404863,0.9967061462935523,0.2961581682348334,-0.7083900069471878,-0.7355485856707594
1729576647.5176942,1.6005624843867925,0.7613784176196932,9.812664501089357,0.03857766267580853,-0.08045833872005773,0.0031163404444243133,0.9960062791444211,0.27900913556886353,-0.5902017480155809,-0.6358695094906041
1729576647.5257125,1.7195388370676223,0.8765306015972065,11.041596614471974,0.039476662984024226,-0.0768710690165851,0.0030460219692770353,0.9962545626385135,0.2789362774443704,-0.49502445915328097,-0.5543518706479473
1729576647.5336897,1.8139089846136203,1.0009279703333238,12.845572722101153,0.03877281924427892,-0.06982170101450602,0.002715869549845188,0.996801997694567,0.34785435252652364,-0.39109217907507754,-0.42370879554164315
1729576647.541692,1.92464003066075,0.6652002270242131,12.252974905233348,0.02702917281069804,-0.07768145341349574,0.0021068084765152534,0.9966095408788638,0.3713262149944102,-0.160585236750653,-0.3202072368516008
1729576647.5496972,1.516787309412075,0.26049586009148096,12.755019249780634,0.0101913202238865,-0.05913070823179526,0.0006037078385767518,0.9981980424108966,0.34454308657478716,0.08754696450120586,-0.2372474886259358
1729576647.5576785,1.2553162650417762,0.29947077533223226,12.103832436098847,0.012350907260194862,-0.051628799521230555,0.0006385630401899356,0.9985897628090779,0.3288988995844754,0.32113860748326545,-0.10957035844298504
1729576647.5656786,1.0493525043863936,0.27976009459387063,10.67595218871009,0.013082640595004304,-0.04894778473366434,0.0006411899168408869,0.9987154488442739,0.3382427500946177,0.45831376284226694,-0.01806492818204348
1729576647.5736763,0.8513145763623049,0.34550581993991614,9.839574754388165,0.01753186541897068,-0.04310581243854127,0.0007565451037806427,0.998916388026771,0.3613023529206464,0.5870190727570294,0.043649370957913956
1729576647.581673,0.8921850702802737,0.4041068684287934,9.031529901461024,0.022327109038046765,-0.04915205925834841,0.0010990267351341976,0.9985411195403534,0.4040850387956817,0.6757358903653616,0.11515884542031299
1729576647.5896697,0.7033839987111329,0.33224668331313545,8.584291955769192,0.01932437266231812,-0.04082848541387573,0.0007897912690907281,0.9989789685622856,0.4378427614884815,0.7336485716064434,0.17083523194161335
1729576647.5976756,-0.0017432946209764916,-0.06473243312735315,9.154159189574797,-0.003535617946143356,9.521574187534778e-05,3.366485914161967e-07,0.9999937451502324,0.47044240688656036,0.7981944846534346,0.18380794090421604
1729576647.6056762,-0.4966457204249296,-0.4006033307260212,9.106542919750737,-0.021970949760676525,0.02720543154230728,0.0005980950812585726,0.9993882049251355,0.5244830891038322,0.8190430499002239,0.15370515081165687
1729576647.6136801,-0.8862427801553484,-1.0462502772442066,8.639594833881691,-0.060139221661718555,0.05062886695424186,0.003054247204868912,0.9969005283491748,0.6416198206651396,0.7864290425333222,0.046248563849094704
1729576647.6216843,-1.3486472745385216,-1.619907334315274,9.209846412047765,-0.08671201230479836,0.07128481284995909,0.006220686814497816,0.9936603068627401,0.8298180066269067,0.7319540530732946,-0.13486446516903924
1729576647.6296864,-1.5226604594496755,-2.0854875927278362,9.904184423156394,-0.10328077252288465,0.07418972167631296,0.007725321988150121,0.991851443828584,1.0095702578535062,0.659254193619847,-0.2971692303241356
1729576647.6376917,-1.7870010412948052,-2.39021428537303,10.46204512777079,-0.11167236256842517,0.08188920394934153,0.009234126376162916,0.9903222569572989,1.2144789426028089,0.5896671841985947,-0.4311614347029281
1729576647.645842,-2.328917076192899,-2.456931520442568,11.120936455324582,-0.1079296520116482,0.10008776858831289,0.010922065378602424,0.989047186580864,1.3518976155420996,0.5674967213730966,-0.5315641902189192
1729576647.6536891,-2.3861555313602705,-2.154830444247963,10.393390673243577,-0.10138853923803477,0.10976284583789628,0.011255781913955265,0.9887091529657491,1.3466566666444955,0.5392952915266267,-0.6709841949604516
1729576647.661686,-1.9490802975759276,-2.2084409813925276,9.29055688197349,-0.1158098832874114,0.09981634457428835,0.011698060062825774,0.9881740351170687,1.1864324646264435,0.46448058525990843,-0.8172126368402897
1729576647.6696775,-1.7050310899225098,-1.513727679655829,9.054306242221204,-0.0823681138677911,0.09137743720163703,0.0075844183662540305,0.992374996856717,1.0404922062245545,0.4110779602706369,-0.9189974739964396
1729576647.6776776,-1.5320259269027245,-1.0411147999321693,9.662180398164754,-0.05347242804656687,0.07798779616423877,0.004189003561360094,0.9955104496374776,0.9286637176800854,0.31007459532022486,-0.9541012825409456
1729576647.6856773,-1.7255826752822596,-0.148701589920239,11.049468420783619,-0.006707456530828805,0.07737269218125242,0.000520546258006908,0.996979541195859,0.8705061158441064,0.20179528946623007,-0.9462166434882311
1729576647.693673,-2.1572725031185747,0.20047744692676284,11.964680611796343,0.008342357680157066,0.0890598517925851,-0.0007459596461299423,0.9959910599052711,0.8424225957259115,0.09596146005347816,-0.922329807290811
1729576647.7016878,-2.0037654537754417,0.22419482020683892,11.321734919812181,0.009860149520801675,0.08745203569148287,-0.0008656492513859069,0.996119555854726,0.7727869160337026,0.052894285356004545,-0.9033151148962766
1729576647.7096744,-1.9066334006832335,-0.07713053463370916,10.756402380109964,-0.0035709179888121956,0.08760153241689596,0.00031402716064383605,0.9961491461873925,0.6931190927482567,0.02790536066044444,-0.8425262523299601
1729576647.7176719,-1.5368685328415808,0.1383146272178214,10.119364169765198,0.006813499162115654,0.07528112987627719,-0.0005143996442409879,0.9971389387175315,0.5418757138417154,-0.034339590979177124,-0.6689807349993963
1729576647.7256873,-1.425382308669792,0.3410837152955366,9.83219104946654,0.01729077177052822,0.07186847507265158,-0.0012460713301640934,0.9972634550651855,0.38599910709409974,-0.1044646966955265,-0.513770617225614
1729576647.7336886,-1.2268094828581253,0.31167104338630636,9.258140138713125,0.016787200902481453,0.06577823109312796,-0.0011067863649724913,0.9976924321774026,0.206909440691662,-0.16995271350574787,-0.31549910138022297
1729576647.741684,-1.2369526770195625,0.13073888701811193,8.882106130347015,0.007340766257490548,0.06912229884666629,-0.0005086410134097378,0.9975810554722983,0.05986646513423041,-0.20030603230117802,-0.07393745417192324
1729576647.74969,-1.2911620468855658,0.05641667693742965,9.451121256333208,0.002977462865668478,0.06783346382184359,-0.0002024388089807411,0.9976921944765043,-0.055177794072336514,-0.21766664345551207,0.10590611919294321
1729576647.757681,-1.156811813092277,-0.12967396722621408,9.79444569325305,-0.006607443974184427,0.05874193065817763,0.0003888139506571358,0.9982512589976482,-0.16847611598832796,-0.25490148402022045,0.26361800040292077
1729576647.7656872,-1.0431616899061475,-0.42256941939822845,9.656154156674488,-0.021832283871615173,0.05371692682327571,0.0011747405006905254,0.9983168150133345,-0.2628478929485688,-0.3057636224770016,0.39144895392294576
1729576647.773689,-0.9941252292757198,-0.563830186795187,9.306225749619927,-0.030207192137322685,0.05306412752881829,0.0016059168166750318,0.998132829308786,-0.37906756772939765,-0.36650489991487456,0.5349808656844998
1729576647.7816925,-0.5689418184736349,-0.2595288774579716,8.45988990411766,-0.01532439567482775,0.03354929951011353,0.0005144728700772064,0.9993194397775158,-0.47008387567099663,-0.4284910700653202,0.6615405685803251
1729576647.7896905,-0.5266762995802747,-0.26345640118181424,8.446730459804579,-0.01558163323558149,0.03111213254654579,0.00048507163530453473,0.9993943228874309,-0.5191596896369495,-0.47802778393798656,0.76046365363677
1729576647.7976904,-0.9054582284786336,-0.13341356360947915,10.137042030765562,-0.006573282751092793,0.04452313697888353,0.00029296002917925275,0.9989866847970773,-0.5196582538371031,-0.5026415315240419,0.7959788612287633
1729576647.805675,-0.7226006414328833,-0.228488641095375,12.550400423537463,-0.009097799056025486,0.028746298574874884,0.000261647018262659,0.9995453025808375,-0.5540125972741579,-0.4995307974942698,0.7500289560729583
1729576647.8136938,0.03139357754261383,-0.4890408287001937,11.372215658175211,-0.02148664897882942,-0.00137867855589487,-2.963005089696257e-05,0.9997681842723143,-0.6380530224942333,-0.4108235845381521,0.6177392578598153
1729576647.8216722,-0.09010002901154106,-0.09686054092128808,11.600719387580908,-0.0041746225429627245,0.0038831240798358805,1.6210840800892288e-05,0.9999837466735212,-0.6761322658438798,-0.21967567685078326,0.597536357475152
1729576647.829673,-0.5329003494381747,0.007484800935508403,12.528387013407919,0.00029864345621071235,0.021253298340805252,-6.348592755843929e-06,0.9997740785204516,-0.7062165428985221,-0.05262705467853207,0.6343689743124876
1729576647.8376768,-0.3108816635203267,0.3686489530710706,11.601779660437328,0.015880111856909334,0.013385968690958212,-0.0002126165472398985,0.9997842730728567,-0.7532140333107257,0.07356921237400257,0.696909100253782
1729576647.8456976,-0.4594679873700085,0.5657149907391268,11.268715423215523,0.0250720454621412,0.020342194418448246,-0.0005102865235622608,0.9994785276684288,-0.7788583871892757,0.1569493937118399,0.737838696310255
1729576647.8536708,-0.6910747804591144,0.5912990090919136,11.499354339378531,0.025672648611277795,0.029958442855814373,-0.0007697121021794508,0.9992211038394938,-0.7814742976725447,0.2865815440079422,0.6896034534341313
1729576647.8616898,-0.9739303760879686,0.2927695824571012,10.640552697621256,0.013738466063764995,0.045600557953545354,-0.000627193531710332,0.9988650811259817,-0.7715502123030313,0.4192748521142057,0.49464318373826477
1729576647.869678,-1.1790779180355937,0.4802042006461357,10.047938998943847,0.02383296388388609,0.058289834996427606,-0.001391983730806756,0.9980142019780539,-0.7375002170248292,0.5231551704812996,0.29678591024295886
1729576647.877672,-1.1728795535557313,0.10448725305369708,9.692131359571388,0.0053799173176745894,0.060173288036816826,-0.00032431971835289344,0.9981733951139018,-0.6430001491635144,0.5825035310713216,0.09123077360752085
1729576647.8856888,-1.0185652504439857,-0.006260655980281754,9.543529640938145,-0.00032752315010137683,0.05313787699854343,1.7428509062215148e-05,0.9985871311272346,-0.5556504240214593,0.5976794244751573,-0.026994027636197564
1729576647.8936765,-1.2604466405007662,0.10039137862862782,9.317659694963279,0.005374262253657804,0.06717395664863006,-0.00036183300045509407,0.9977267391075959,-0.4836588461089727,0.569749925170262,-0.07962423573956126
1729576647.901689,-1.4788380453356158,0.30899237966741105,8.620218597739685,0.017846767167841768,0.08478131653938462,-0.0015187852007051991,0.9962385831511544,-0.4672823732335888,0.5240453014079067,-0.15419705680924467
1729576647.9096792,-1.535652636771682,0.5564966851246654,8.561602448927013,0.032315883058020994,0.08839371276523493,-0.002869268667499932,0.9955571317323135,-0.4749097820283017,0.48598027561394275,-0.2261849133846247
1729576647.9176776,-1.637976138947775,0.9824872408111274,8.919800092403083,0.05459242207176662,0.09001304494181786,-0.004941549914868011,0.9944309429402723,-0.5131157421606299,0.49421663462429266,-0.3153521539677522
1729576647.9256895,-2.0419804978217897,1.4008872871136295,9.378927247824661,0.0736334978367579,0.10555713933844171,-0.007837970096125085,0.9916523405689018,-0.5649862424194451,0.5408760760537817,-0.38502872065318583
1729576647.9336848,-2.3892491458610428,1.7491319022974745,10.08224737774753,0.08519577875941617,0.1140165282732195,-0.009814120708767374,0.9897704752096884,-0.6544280809950325,0.6761456363999072,-0.4234291401727498
1729576647.9416797,-2.277266152555688,1.7174614045620784,10.089803148328205,0.08367613082078433,0.10886028535154864,-0.00919649995384151,0.9904863289276846,-0.7259721667217902,0.8237150221956593,-0.4064545261070572
1729576647.9496908,-1.9641918460744285,1.940752313928653,10.23655218928989,0.09312393125813198,0.09262497412316545,-0.008701315701094134,0.9912985598197869,-0.7616618871129903,0.9122566536731106,-0.3792421552091604
1729576647.9576898,-2.137632292703251,1.9033020206814104,11.0263421204587,0.08496531511219488,0.0938992030559333,-0.008043189257240608,0.9919169027695406,-0.7579600057214505,0.919407105921682,-0.29523001289795925
1729576647.9656887,-2.36068838319031,1.541094629156893,11.267978518124828,0.06753996438156681,0.10191847589257387,-0.006935775052966891,0.9924731092112704,-0.7531847365177544,0.8606952481744441,-0.18607749902947823
1729576647.973691,-2.1540665614083263,1.5181793690468701,10.983919419224506,0.06829160634434607,0.09556429605705614,-0.00657187333912793,0.9930561576783272,-0.7388259433360619,0.6275222549462567,0.03862209227841022
1729576647.9817054,-2.5711830435344494,1.2961346685472626,10.553473659591344,0.06061699141150636,0.11813230819670971,-0.0072249855957592325,0.9911196384369931,-0.7029665034934764,0.4284475404661219,0.30498007605491106
1729576647.9896934,-3.042916586374576,0.9347404300346075,9.95355362690715,0.04626945003104462,0.14703373363125247,-0.006885627447265601,0.9880246997433495,-0.6550580557772792,0.31368530245412335,0.46862607687396984
1729576647.997673,-2.5562208783384173,0.941043481653577,9.011571183712649,0.051489773929592926,0.13687136608272818,-0.007124246012953701,0.9892240784807425,-0.5458575655312368,0.17288633925984087,0.511473969375341
1729576648.0057037,-2.1432962696788316,0.917770833865193,8.319728449973683,0.05445793817738027,0.12482197245382196,-0.006861636710413234,0.9906597428501172,-0.44798482671249695,0.03902691421367571,0.541439605490784
1729576648.0136888,-1.8378412444733148,0.5480288784929439,8.26327421842171,0.03290070198183841,0.10891545564650991,-0.003606839937010989,0.9934998530629403,-0.3645711598564553,-0.1264267531064297,0.6420028590836839
1729576648.0216749,-1.6878476324261762,0.5411830143516257,8.024218597215134,0.0334772029492522,0.10318977655653498,-0.0034750353095547096,0.9940920837761984,-0.2957925970385009,-0.32020214714306394,0.7415042968939308
1729576648.0296762,-1.4549176260865653,0.6548702175465223,7.9890031395302525,0.04071154229950125,0.08958029469866426,-0.0036647610548336228,0.9951404477015832,-0.24388320781117745,-0.48840157106341237,0.7901372179820662
1729576648.0376735,-1.3027097736499862,0.35605142496150716,7.9374675038353395,0.0223346780507149,0.08114564308596031,-0.0018188180369787667,0.9964503192159081,-0.19187876126314385,-0.6736078575851037,0.8435813041382831
1729576648.0456805,-1.1572761046685072,0.3864922148401855,7.613016998883234,0.025284311234362422,0.07523795635459246,-0.0019083642808816147,0.9968431730592129,-0.13981728032268415,-0.8247464952755494,0.9080002005031278
1729576648.0536883,-0.9479116186116513,0.42917754570098626,8.008277984974471,0.026718895940331784,0.05877051901911755,-0.001573567974229236,0.9979126467671324,-0.07793070733314204,-1.0346228950991856,0.9117449532821479
1729576648.0616953,-0.8996256406005845,0.359499518143248,8.197789963592106,0.021876852627711774,0.05455904307867521,-0.001195648442081042,0.9982701460838381,-0.043778593969651,-1.3014521453372998,0.8114005001372104
1729576648.069768,-0.8852586839208977,0.23461390400118318,7.905201129034169,0.014810349858650096,0.05570053725558327,-0.0008263183402692579,0.9983373282035007,-0.019030425336936066,-1.5058214618722197,0.7222469040708297
1729576648.0776763,0.09301316245019571,0.5046869947444599,6.945067944266205,0.03626165354698358,-0.006673896384933093,0.00024217119122820873,0.9993200152814892,0.017102978915794473,-1.69101949082809,0.6304426408994184
1729576648.085674,0.5832505232025392,0.826902940254879,7.401846629596832,0.055554395025515756,-0.03900529279385896,0.0021719301612282286,0.997691124069363,0.05410786368006594,-1.771488623776346,0.5268314159899001
1729576648.093672,-0.31108876444761707,1.040343801506443,8.214130373998334,0.06293789671512465,0.018738947736827338,-0.0011819419981624743,0.997840806946632,0.09120994668979993,-1.4541023407494147,0.341640253281662
1729576648.101678,-0.4993359954849764,0.8969058499956627,9.489671807162672,0.04708277869009597,0.026136771933008666,-0.0012323809856064811,0.998548227348508,0.11432257661856439,-1.0750898737055758,0.18284826877297156
1729576648.1096783,0.04659996276760788,1.0576852702513038,9.711512890205807,0.05421468533193105,-0.0023815804386003495,0.00012930717414640972,0.9985264539553416,0.1218048036538926,-0.7599902408180941,0.0688427153634279
1729576648.1176805,0.8285810128168148,0.7871218079027354,9.664573575187937,0.04058277798822043,-0.04257384485428768,0.0017307638680714233,0.9982672539563315,0.11096929766245636,-0.6003030753264851,0.03364320811174017
1729576648.1256952,1.2649690801021982,0.781364519067813,10.06473266317917,0.03865131879508834,-0.06224120314837661,0.0024121945331389573,0.9973095254250695,0.13426629836993684,-0.5164100977524566,-0.01088944961968421
1729576648.1337168,1.8121907583640533,1.448047190444594,11.504801988044221,0.06236670848590544,-0.07728521390195,0.004844028091657719,0.9950446848140093,0.28233686815496506,-0.4409585975817797,-0.08528633114228637
1729576648.1416767,1.9669441449598384,1.2337046472745687,12.162223979691767,0.05035711501339619,-0.07958004547314251,0.00402534404543323,0.9955475749231354,0.4001261342054001,-0.30927261500258113,-0.16057414448111393
1729576648.149685,1.187109671790356,0.44813018582567876,12.742706643674435,0.01755595091079617,-0.04639354753717531,0.0008154870150838373,0.998768623013089,0.4329132783655404,-0.029761006506445087,-0.30067571619044353
1729576648.157674,0.951446548923823,0.641894730147751,12.416310214232006,0.02580340600366783,-0.03816684040272623,0.0009858817928169441,0.9989376880313273,0.4436460735709219,0.1473111399434012,-0.4221973846247
1729576648.165815,1.1272803951746062,0.44858318208279124,11.149306533812641,0.020078393806701008,-0.05031073046942282,0.0010116445079620814,0.9985312539310753,0.45732248173900536,0.23695251541628976,-0.4980902161154882
1729576648.1736844,0.9792347471145293,0.4072953450406903,10.338347250365707,0.019664037845966507,-0.04715544648999848,0.0009284794868743411,0.9986935603115521,0.4842586893441848,0.35757068034956185,-0.5304295231046381
1729576648.181696,0.8152294261495769,0.559932985833008,10.00715536804169,0.02791992312681069,-0.04055240563387523,0.0011335955397309921,0.9987866114696626,0.52085353685747,0.4610169537962534,-0.5298256744094125
1729576648.189686,0.8537745685315429,0.2682038845173829,9.481392291869936,0.014124642560072146,-0.0448651758174329,0.0006344068657576493,0.9988929912655058,0.5628178782541566,0.5115910862047934,-0.4302775808716239
1729576648.1976826,0.7720356212458788,0.05916876015378912,9.415410259155164,0.003139342771077625,-0.040894583061793104,0.00012849023483788415,0.9991585265078947,0.579482681862928,0.5266107234372843,-0.30116124473063954
1729576648.2056854,0.589156380071746,-0.06313985230616403,9.146935360815364,-0.0034495032781115794,-0.03215419963239509,-0.00011097406077167576,0.9994769612441761,0.6022522658720516,0.550095967866488,-0.2087922908948778
1729576648.213676,-0.23188847786515548,-0.5229491677313547,8.674604205991171,-0.030098768782459186,0.013332113269238062,0.0004014978338332182,0.9994579319176199,0.6772133851280584,0.6518792671851886,-0.16443886019143356
1729576648.2216725,-0.7695263838382339,-1.0935609813517035,8.722563022862282,-0.06225820571297745,0.0435586384120188,0.0027197552948805964,0.9971053925098528,0.769015963442486,0.764883434274777,-0.164219585580013
1729576648.2296982,-1.2144528322560653,-1.6224363788500844,9.597688599850182,-0.08346531168724267,0.061805143033022175,0.005186704275737034,0.9945786867505131,0.9198777742600996,0.9195267070667844,-0.18239269345602804
1729576648.2376835,-1.8857893617071546,-2.2885967992338787,10.456994497800732,-0.10709687003321905,0.08657419845437024,0.009361433754219755,0.9904279540426636,1.0738226799085104,0.9782574658250263,-0.17073498492414937
1729576648.2458467,-2.000329399494996,-2.1601321652336867,10.190152934032001,-0.10376714365500055,0.0942035069441728,0.009873159644701956,0.9900811077359934,1.1806630853872662,0.9730553652410785,-0.1573550088830917
1729576648.2536697,-2.1981008916501223,-2.0236771836616962,9.447059891522716,-0.10463043914842077,0.11099961657367927,0.011752293404330824,0.9882274231794235,1.223057135539956,0.94694684157176,-0.14634719282822287
1729576648.2616694,-2.531523675859214,-2.1503391593181114,8.251579526222224,-0.12574144614233615,0.1426291687491002,0.01827082660707808,0.9815865656370144,1.1940052377644297,0.8955237622073584,-0.15549303546939675
1729576648.2696657,-2.606600019724513,-2.07478337962407,7.311630552647396,-0.13585071206418198,0.16287721770892835,0.02264819996239967,0.976986517318185,1.0390762092468777,0.7220637439989368,-0.2771939278332357
1729576648.2776546,-3.042379536981192,-1.2118300448642856,9.386550238326718,-0.06334522363721483,0.15456560142529266,0.009931022921794942,0.9858997070098539,0.9065296164203775,0.5077340071552177,-0.45833973886289503
1729576648.2856536,-3.212388743917231,-0.6854389180318526,11.609772848074154,-0.029203019762482796,0.13428241521834824,0.00395904397218025,0.9905047917959335,0.8508403041663513,0.32847904773500436,-0.5538308335753677
1729576648.29366,-3.7724050456667446,-0.9071025146374709,12.19216651279957,-0.03669089772681051,0.14898484309881943,0.005531980039156426,0.9881430522690868,0.8702122844352275,0.08981353315257065,-0.5191764371270525
1729576648.3016663,-3.9872682227125464,-0.9558247741633419,12.016314867396538,-0.03915147842284078,0.15892040400468946,0.006307149048287284,0.9864946461077094,0.8907749638872559,-0.1100025537713398,-0.47667360612349974
1729576648.3096697,-3.8628795932954967,-1.1567223889120677,10.918407292019953,-0.05196477642824128,0.16811086948983753,0.008874665935171486,0.9843574746374779,0.8856592790385296,-0.29289433502206674,-0.4315901646941146
1729576648.3176959,-3.1676693453327665,-1.1664094208960687,9.783695456754941,-0.05854896404153122,0.15463005722592885,0.009180177318466702,0.9861933322408801,0.8472575930279452,-0.4898958663722194,-0.41220252094280013
1729576648.325704,-2.5013068037328634,-0.942617700877485,9.291292026250229,-0.050081416495570574,0.13030680314838358,0.0065906289215593135,0.9901861200731223,0.8225138211757465,-0.648111650959742,-0.4167461570275687
1729576648.3336813,-2.054084085901827,-0.5382767216007097,9.659762088308732,-0.027671066358582862,0.10437261611842984,0.0029050993296946214,0.9941489976301632,0.8085189381873512,-0.7668797651541293,-0.34880778847573257
1729576648.3416843,-1.8700263536407056,-0.7390782814955821,10.183710635553599,-0.03606135637000714,0.0903868938014493,0.003275036169615901,0.9952482414673077,0.7754319848295163,-0.828349762257135,-0.20928467308543955
1729576648.349678,-1.5620700773211422,-0.6929227818856304,10.142061977035285,-0.033998164118480376,0.07611600706026998,0.002596852459916637,0.9965157974980001,0.6746987011370292,-0.8392646667697543,0.0072444953248901045
1729576648.3576639,-1.246572900884873,-0.258215199893097,9.83168394403367,-0.013101265499329046,0.06299054168022933,0.0008269694688101365,0.997927785274388,0.5240124378915865,-0.8773146740255164,0.17547410190267076
1729576648.365672,-0.47452591094108,-0.21430532110773318,9.43596447896903,-0.011349851583423814,0.025112646514241044,0.0002851331171538611,0.9996201551355347,0.3906059837366555,-0.9193007311447651,0.3219607024257765
1729576648.3736644,-0.19373588347871049,0.8815304877552821,10.830420651492744,0.04059461141144123,0.008906169766631729,-0.00036185516539220634,0.9991359400628531,0.24755998214731628,-0.9802503305791248,0.5801286873244527
1729576648.3816621,0.7463893280670706,0.5789571073504348,10.560254927516741,0.02736357230081896,-0.03520766138304326,0.0009643670607059553,0.9990048675992761,0.14129925824353523,-1.032996312575298,0.8142078296955961
1729576648.3896563,0.914702920570711,0.45415565845322964,10.199197335172155,0.022224657324856834,-0.04465230748117442,0.0009936194385903568,0.998754849181625,-0.02334572066523491,-1.0348455974706594,0.9265597710617881
1729576648.3976622,0.7844111957018016,0.7546856094274065,9.824066629863056,0.03829391576799205,-0.03968226147697054,0.0015219068456707723,0.998477129401961,-0.256650767432499,-0.8111908159559238,0.8883998006389195
1729576648.4056652,0.7991311851945185,0.6046037509103501,9.996425682263538,0.03017471708764438,-0.03978490732876428,0.0012019986307399495,0.9987518224247773,-0.4145127780742627,-0.5663185310669542,0.887214011519762
1729576648.4136894,0.6923232387046018,0.8293921541106631,10.53798001751242,0.03923963828491342,-0.032669942154481886,0.0012836321260283616,0.9986947871874855,-0.46368114788288356,-0.3189323056285329,0.9490789770831861
1729576648.4217043,0.9737217703711984,1.2443867902691321,10.495881504159794,0.05890539283512691,-0.04583757621041208,0.002707642962727148,0.9972069694760864,-0.4608297250969417,-0.12580311391196686,1.018124711030893
1729576648.429684,0.6551014313633441,1.654752763858745,11.770673897613063,0.0697494334469954,-0.027458303144145338,0.0019206081339347059,0.9971847217976533,-0.4714638832077755,0.14374851330576616,1.042524548941036
1729576648.4376936,0.2568307843551158,2.250525790395325,12.088073043401822,0.09189988541588746,-0.010397951471117581,0.0009596842359125532,0.9957134992917985,-0.5404208171091944,0.37656972990056525,0.8834829066106127
1729576648.445843,0.20126424331814757,2.638874807733289,11.69169370397078,0.11076091425282407,-0.008343401121456425,0.0009298771662613313,0.9938116234277302,-0.6235126034733249,0.5226478107793752,0.6773785052322305
1729576648.4536636,0.09705594955534168,2.4172253228723948,10.56489902389614,0.1122250378703942,-0.004449197703330396,0.0005024907758964708,0.9936727293318487,-0.7457349857403486,0.6260451915807563,0.3783315590828442
1729576648.461658,-0.42874704794257623,2.116641515744921,9.745888376740028,0.10670161252304339,0.02135763148042829,-0.002292513464603535,0.9940590333800821,-0.8322648070058857,0.6740358480333379,0.16144266598455365
1729576648.4696627,-0.5711280664120301,1.742121476829765,8.914026512372141,0.09630249943195222,0.03124798511694885,-0.003024816013836976,0.9948568954967203,-0.8752432084745053,0.6538758848367533,-0.009982605836237751
1729576648.4776611,-0.6579931984897961,1.360589244740437,9.316326318800238,0.07239977986752011,0.034787856818469416,-0.0025268058374791095,0.9967656154509805,-0.8665493543772524,0.5958053802809031,-0.17924541851678952
1729576648.485654,-0.7309418321798151,1.3531335590512934,9.53448244655358,0.07037834013975919,0.03777547719025108,-0.0026671067138446082,0.9968012786428386,-0.851967860566736,0.5175426912782658,-0.3348657439307986
1729576648.4936547,-0.8762251627844515,1.104930418633901,9.390282352453633,0.05846596354217993,0.04610869429421892,-0.0027033034973269203,0.9972203425360757,-0.8461987947106604,0.3803387848467326,-0.5546678874334274
1729576648.501663,-1.0934003112937176,0.9406856437584655,9.420838757175304,0.04965482446790157,0.057386338319653674,-0.0028577607671886342,0.9971123506329272,-0.841034594951167,0.27928607828348334,-0.7206043784519672
1729576648.5096967,-1.3134879626551368,1.2244927839601574,9.069986704012212,0.06686931659015627,0.07105032345111272,-0.004773918597646733,0.9952173409549699,-0.8255910633130721,0.22844532575916052,-0.8095240215265403
1729576648.5177,-1.6030790227102696,1.3892704042628132,9.545174827583109,0.07194847120057196,0.08203741823367645,-0.005938029228617253,0.9940110760501281,-0.8359066871574685,0.21922537731766842,-0.8232866316553152
1729576648.5256846,-1.524724223928896,1.461800758182688,9.678734736637756,0.0746470050272479,0.07696905660084871,-0.005778921063454899,0.9942183829711557,-0.8552924533694294,0.20815943745376675,-0.8085569344136305
1729576648.5338442,-1.4195322443182752,1.579778642165472,9.573798893740467,0.08145327788064707,0.07232566759388727,-0.005926533382946291,0.9940318091146065,-0.8971479074604101,0.2228043766085273,-0.7269261155586122
1729576648.5416858,-1.2472414608487776,1.6431433474086583,9.45840437164467,0.08571079303843185,0.06431472286496537,-0.0055444763722876395,0.9942266015156117,-0.9367346420047076,0.2916136387675301,-0.6302703373618537
1729576648.54967,-1.4017225095659072,1.6289685743631637,10.512287657166489,0.07662082648419222,0.06526685454075151,-0.00502638891553835,0.9949091526675716,-0.986028086419008,0.469545705792244,-0.5148087121464243
1729576648.557659,-1.261455317262982,1.4145623677624295,10.531462583313566,0.06658863329956329,0.058914425422378416,-0.003938660096239914,0.9960318927369212,-1.0441253871855443,0.6009949695718702,-0.3838066781051721
1729576648.5656593,-1.2649227826429454,1.3247047106965202,10.306420414978374,0.06375019084082653,0.06040647221038745,-0.003865890854802915,0.9961285189024319,-1.0806865278913143,0.6875269489459623,-0.2417776385225781
1729576648.573661,-1.4942129994197515,1.3150828471698652,10.262374777063195,0.06351225998760518,0.0715073592648177,-0.004562556742000476,0.9954054819410104,-1.0775074986885165,0.7752041017332283,-0.010974213753006917
1729576648.5816622,-1.685656666839351,1.1630240076183254,10.371938048610964,0.055617634188098425,0.07985287918245668,-0.004462452401396051,0.9952438309138902,-1.0581467886468943,0.8218507325451194,0.17646219817686945
1729576648.5896559,-1.6925443724180635,1.2130466018366202,10.310543903385328,0.05832416116979703,0.08057897136190172,-0.004723179118445058,0.9950291519232551,-1.0077925670288763,0.7685319092930061,0.3319187415424604
1729576648.5976708,-1.5930080638805257,1.064931554851972,10.237076130849557,0.05164503066616566,0.07660059685015981,-0.003973062766378486,0.9957154985948268,-0.9631065719683564,0.6024482459811982,0.4711671941997144
1729576648.6056616,-1.5134144049787062,0.6820545627939957,10.050779888714812,0.03377409108918393,0.07444628157136064,-0.002522807565008345,0.996649736554065,-0.930761004133038,0.4278765971767958,0.5866430204037192
1729576648.6136715,-1.396226361493083,0.6565537691705379,9.093609537232792,0.03592123767275661,0.0758576836813183,-0.0027345612832969817,0.9964676606318693,-0.8534598150730106,0.2409754260319823,0.708288393685952
1729576648.6216881,-1.4008520473645996,0.6386196711702914,8.759924593189284,0.03626049855729112,0.07894562804881806,-0.00287348370687225,0.9962150908050634,-0.7559962942615504,0.11350988113246105,0.7936206294376906
1729576648.629688,-1.5264500040535254,0.4791792892744405,8.583176803032712,0.027769364318319424,0.08771983622349239,-0.002446308561426882,0.9957550443320397,-0.6238738011417428,-0.0319312357641008,0.8311978889219487
1729576648.6378303,-1.5639803918364121,0.3174350943166173,8.537462010774705,0.01850189803335467,0.09039029898607402,-0.0016795585644639509,0.9957331232320235,-0.5220387320123706,-0.2081651287476025,0.8111752384663005
1729576648.645704,-1.5481913979436441,0.24002103095520477,8.332383372236308,0.014335301874335696,0.09167890385978301,-0.0013199408930762205,0.9956845562040616,-0.44518715826065214,-0.347534979393204,0.7570183321081703
1729576648.6536794,-1.314860146383374,0.24720271012585723,7.828179284816393,0.015726616967145984,0.08305895346452231,-0.0013109299042377881,0.9964196732456326,-0.3611897985395003,-0.4941590188769456,0.5904318189327523
1729576648.6616654,-1.2122109413456494,0.326689649757155,7.5440921851476475,0.021565541726482684,0.0794848692222869,-0.001719979982687456,0.996601286695747,-0.28908118957224554,-0.6085262263778366,0.42194381113211443
1729576648.6696627,-0.5092147935671552,0.15603062212968358,8.082802457084682,0.009645699654207423,0.031445821717525455,-0.00030348117506499844,0.9994588679249721,-0.2109094391520061,-0.7503652414498405,0.2131514209018377
1729576648.6776588,-0.03402640787857434,0.33686926194968514,7.925272926887528,0.021238415905381,0.0021442673833888684,-4.5551221852008584e-05,0.9997721389058133,-0.15889810816231806,-0.9559389378867977,0.04232715018723425
1729576648.6856513,0.4215537817376992,0.4855950337323111,7.185517861357126,0.03371715220879772,-0.029212661975102687,0.0009859498701103341,0.9990039048622937,-0.1310968300602015,-1.1495220158902075,-0.09081709666679408
1729576648.6936576,0.6321738120113695,0.6325307568116523,7.164720255388494,0.04396969124792681,-0.04377706648404571,0.0019285835673992684,0.9980713978804507,-0.11058485264577328,-1.3069637986540703,-0.2115698906795661
1729576648.7016647,0.8624541822263531,0.640965275376054,7.603788124912785,0.041966739719239116,-0.056193509502857765,0.002364086551261634,0.9975347078382125,-0.09998042644296445,-1.372907634194432,-0.27210224536629246
1729576648.709683,0.403029669980343,0.6843332130771947,8.299142826119546,0.041111980600573875,-0.02415759474502467,0.0009942981116123845,0.9988619659585094,-0.10511140238075402,-1.334572654271097,-0.31948959977634106
1729576648.717706,0.8932800737167215,0.5595192711080356,9.20788524767368,0.030303889191102065,-0.048225515228404875,0.0014637984693241682,0.9983755962937444,-0.10563584757465558,-1.3034835551493176,-0.42326915330114984
1729576648.7256856,1.808965066935111,1.0827024806335714,8.844052330244832,0.0605525080053456,-0.09979839526890373,0.006084755170341016,0.9931448282252349,-0.11191017555146494,-1.2575859317426799,-0.5046929381818266
1729576648.7336888,2.2927749373778634,1.2584669705578773,11.074542037795336,0.05624254311138981,-0.10110277791286798,0.0057248141681737206,0.9932684587488947,-0.038199181151460815,-1.1053201696903219,-0.5033157818577129
1729576648.741686,3.2694784756103115,0.20369554000074197,12.158571646017045,0.008300617985580674,-0.13094527288560445,0.0010964059477278794,0.9913542420063425,0.05753591292544748,-0.9633035951449254,-0.4722654936994404
1729576648.7496705,2.7697301456689214,-0.5644397121323673,13.715673579651243,-0.020457425123478805,-0.09936228173759136,-0.0020432417945257845,0.994838909516604,0.1749992680377389,-0.58947578874643,-0.3931873320768684
1729576648.7576613,2.722230002684556,-0.7286792777188734,13.845722402185276,-0.02615850118896932,-0.09675171154621898,-0.002543696197489813,0.9949614910829859,0.28676921706693087,-0.0969943661862529,-0.2597510426879948
1729576648.7656589,2.6381844383783113,-1.0295330573539803,13.013715644680307,-0.039259216617830286,-0.09946051353073102,-0.003927288532559936,0.9942589685607767,0.3580880870990663,0.2338267624512019,-0.1383973330928536
1729576648.7736647,2.231978733095346,-1.1652737540901226,11.622910891935138,-0.049709131745344824,-0.09414182999050355,-0.00470650808982193,0.9943058718768403,0.4387658245884684,0.5110721010041507,-0.004711428546698343
1729576648.781663,1.8201823533825983,-0.8497595368779017,10.456352270024365,-0.04037791742254274,-0.08571999143973136,-0.0034768591681253575,0.9954946601074843,0.5425121750721738,0.7131772692987306,0.0818854651029253
1729576648.789658,1.2609006290705747,-0.6257350824783036,9.357543100295867,-0.03330138448751181,-0.06673573460682206,-0.002228605015301148,0.9972123108131931,0.6686134945817017,0.8425284814432571,0.12532980006345884
1729576648.7977977,0.7656383437509384,-0.695306391283857,8.888117790109161,-0.03898773112696315,-0.04278888927046403,-0.0016710461777788344,0.998321729394509,0.735334794996716,0.8579884597565164,0.11819257624574049
1729576648.8057013,0.5355186190435318,-0.8713638897019549,8.57078899926081,-0.0506122522074717,-0.03099596437565145,-0.0015715477225297272,0.9982360343909984,0.7617454932789394,0.8387432126265157,0.09007159851323572
1729576648.813703,-0.13741786665981842,-1.233896226887579,8.079919416402188,-0.07569507471385101,0.00838120351112104,0.0006362637998884777,0.9970955853177501,0.7618413799741782,0.8127226022588064,0.05574571935378955
1729576648.8217025,-0.7722202182869067,-1.294116580126688,7.772229557556156,-0.08229997262844599,0.048662058217285496,0.004023350280162743,0.995410734947106,0.7657301225444798,0.814137838496662,0.051752104255141096
1729576648.8296804,-1.2050558052885503,-1.5991176385057004,8.606587868811037,-0.09150102019677372,0.06805847160267162,0.006268435524344662,0.9934567501719112,0.7961589121431549,0.9048075832078641,0.05105869544180014
1729576648.8376923,-1.9831018169133645,-2.249945277927639,9.865685941501464,-0.11133172590403233,0.09600551670884257,0.010806509784840254,0.9890760369733804,0.8535796715568669,1.0711659161990996,0.07065008304251105
1729576648.8456705,-2.208593896544503,-2.526956702889396,10.097293461873532,-0.1216095236436341,0.10356978867908631,0.012759965812454642,0.9870773049283439,0.9046340396021133,1.1697038458094549,0.08964164664779214
1729576648.8536615,-2.3774079675653734,-2.0764172102101996,9.324545981909274,-0.10848887379638238,0.12092488748779245,0.013296839033108713,0.9866258307586443,0.9395235610438815,1.162844644049053,0.033777555099959805
1729576648.861656,-2.3951387722384427,-1.7649132460479946,8.86257343509283,-0.09727045881681404,0.1285605621581626,0.01267192748787032,0.9868384173474833,0.9310846596680621,1.1276537485060838,-0.052526467450031526
1729576648.869673,-2.6085661356575187,-1.5291691536834842,8.40558536232523,-0.08882984286448252,0.14702967962113475,0.013258896116693942,0.9850460567917342,0.8566338388242594,1.008630497044035,-0.2077515659153
1729576648.8776577,-2.5881820507792765,-1.3846102361065746,8.585093733264278,-0.0789975555142382,0.14367575730437704,0.01150652643955603,0.9863996466113948,0.7911045333063382,0.8989044406352228,-0.35665202304598725
1729576648.8856523,-2.8953381013171753,-1.157574668275273,10.642157747526925,-0.05365555439224087,0.13149719268444454,0.007127991238705141,0.9898377450571747,0.7598750611633641,0.7756006484925612,-0.49409527426960914
1729576648.893656,-2.9642312116203833,-0.565497331482742,12.202247002031779,-0.022982616658311215,0.11871875711284419,0.002748647987020819,0.992658098730556,0.827978150415834,0.5526268516952532,-0.5395261896565855
1729576648.9016662,-2.85497179337848,-0.3665922978154264,12.313019242478832,-0.014781076443734319,0.11361277097621611,0.0016904528645573296,0.9934137106056987,0.8841648461799492,0.3583945848892599,-0.5599736979053789
1729576648.9096718,-2.663241714943104,-0.28795070583769333,11.65954614753808,-0.01226456618030773,0.11200513791592151,0.0013824995984266398,0.9936309768680245,0.8157112488875307,0.1839613764468276,-0.5952294661736046
1729576648.9177227,-2.4397463326768,-0.5261545885416785,10.774496168747458,-0.024237958723588558,0.11095065419833158,0.002706739124178074,0.9935266213107676,0.6933322887728315,0.06142246879996293,-0.61638292713454
1729576648.9256847,-2.365025304488892,0.03817025224608665,10.441466658768007,0.0018160214494965556,0.11114136193020666,-0.00020309368349492746,0.993802927389203,0.5202934383218967,-0.012100875788155878,-0.6146015416213921
1729576648.9336808,-2.032409648025366,0.36000574509765204,9.831761628561585,0.01820037759911252,0.10166430318954599,-0.0018602802400846696,0.9946505190616763,0.3849690635031454,-0.1158114911457116,-0.6114042600061933
1729576648.94169,-1.8445718422820168,0.46284563822070063,9.934723295496326,0.02317364372364259,0.09153889532818932,-0.002130815464475235,0.995529543762575,0.281638555415869,-0.24827672050148025,-0.5724508556898772
1729576648.949674,-1.438100615134835,0.01602114147734224,9.549742265872014,0.0008363887654183205,0.07466403324949127,-6.262297734512536e-05,0.9972083928001783,0.11023790476776105,-0.45120597593893064,-0.4124323033707754
1729576648.9576628,-1.1312503751844167,-0.11680116276984466,8.928259357325944,-0.006527169887112891,0.06296807464162274,0.0004118294042196566,0.9979941122199738,-0.056881684901870525,-0.5997820030735088,-0.25597318325170587
1729576648.9656565,-0.9399576262336968,-0.1265838568415943,9.440984806290098,-0.006694922011719369,0.04959129134407953,0.0003324263246889199,0.9987471007891949,-0.24527128142628998,-0.678285367817705,-0.08419642993271237
1729576648.9737043,-0.7176823223222494,0.039210785748559046,9.788363823227183,0.0020015217115285453,0.03658595962672688,-7.327679770948084e-05,0.9993285025953882,-0.3608591797097138,-0.7658279425031156,0.09847366355208363
1729576648.9816613,-0.621906106039834,-0.29681771067977086,9.713557176992952,-0.015265072176757322,0.031944602373716685,0.00048794262808324454,0.9993729443319022,-0.4199953572046794,-0.859645423276179,0.26086128726425317
1729576648.9896593,-0.3348364370614003,-0.8319470997965344,9.265729049848115,-0.04475122319469239,0.01796938596316065,0.0008050889537163659,0.9988362133115031,-0.44994309290265233,-0.9623361284393785,0.42087030052647356
1729576648.9976664,0.08065625299753482,-1.226766144399405,8.138710878395196,-0.0747323267496813,-0.0048858731753730475,-0.00036616099964826806,0.9971915931795732,-0.46578328401412594,-1.0026660484641967,0.5224096792828121
1729576649.0056722,0.3558092449625834,-1.4303781680849554,8.154184835142587,-0.08669500534426904,-0.021393705503539508,-0.0018621697184625235,0.996003422552917,-0.47230756825077586,-0.8450943442348001,0.5922727978273179
1729576649.0137033,0.1519545643115344,-1.4773674501673795,9.21907272115391,-0.07936379793997399,-0.008111014909231867,-0.0006457793629938661,0.9968125109481218,-0.47026247793229736,-0.6151818821522361,0.6299337683394011
1729576649.021717,0.5530142388310613,-2.1352360560379275,8.889790301393518,-0.11753365508271729,-0.029992807219071015,-0.0035514108902988725,0.99260951986101,-0.4600959324505076,-0.4887280365621725,0.6444422394788725
1729576649.0296783,0.9681873445681679,-2.1258159793258815,9.665224404224784,-0.10790390919249129,-0.04845713641984083,-0.005265755236666463,0.9929657215295778,-0.4403739231946488,-0.45542473535433753,0.6557014625313274
1729576649.0376863,1.2455427876002758,-0.8933750026345915,11.637874231157916,-0.038241458467099546,-0.05309034397626831,-0.0020346161651271268,0.9978551330568236,-0.4528050511444693,-0.42182067266285156,0.6692680373461929
1729576649.0456765,1.6046892870621186,-1.100338332879583,10.495018374143967,-0.05205278297241209,-0.07528086947194668,-0.003935125704879193,0.9957950658956196,-0.5505100209443122,-0.31737160287847765,0.6859217834643528
1729576649.0536647,1.3288870060751619,-0.8926799809289216,10.474174660960989,-0.04241048331872682,-0.06277554116390105,-0.002670023802819207,0.9971225869015021,-0.6593644300767378,-0.11720427115561714,0.7295435459907493
1729576649.0616558,0.2947892751783003,-0.5583529043288373,10.29168011518011,-0.02709365696502546,-0.014291062891913576,-0.0003873789663725002,0.9995306644676878,-0.7302110463551995,0.053553245192080906,0.7595478140597454
1729576649.069667,0.288682782636277,-0.42144242252894304,10.302611731217441,-0.020438281516722633,-0.013991431338300324,-0.0002860485807243736,0.9996931702647359,-0.7373867410209279,0.19431986053228256,0.7013518538994394
1729576649.0776615,0.23234645058762557,-0.38023698183767835,10.603896925205074,-0.01791936072968244,-0.010944947889749703,-0.00019616972310873668,0.9997795087638924,-0.7310499062838143,0.2626036074008464,0.6204597511653565
1729576649.085655,0.48967957323343475,-0.15200657630963826,10.35514826376562,-0.007336939099930254,-0.023621281238312985,-0.00017336094335860825,0.9996940403659951,-0.7119229632289129,0.29250591392397185,0.5165847815348426
1729576649.0936575,0.15039506449670148,-0.34618642259242355,10.335904217048434,-0.01673928926004224,-0.00726969770963045,-0.00012170984325623477,0.9998334525694733,-0.6919329961667314,0.3559961344142845,0.3865750799840712
1729576649.1016648,-0.004094506712135374,-0.42055638114334476,10.142637883012261,-0.020718748537936624,0.00020162964916067087,4.178411006027368e-06,0.9997853233504916,-0.6688710743314097,0.4017526878147887,0.2681287032147154
1729576649.1096718,-0.10540737541399997,-0.3390039287836631,9.821255580149156,-0.01725072267962718,0.005362064790348219,9.25145898835589e-05,0.9998368128196047,-0.6179988858830199,0.42196988881023667,0.1740736138341522
1729576649.1176972,-0.3900529518597281,-0.3204788184518385,9.838158263860977,-0.016277744540283863,0.019798685614175634,0.0003223838763315117,0.9996714175914347,-0.5764076312159732,0.45197919198891073,0.11849194032873836
1729576649.1256866,-1.1112672593970867,0.052639538762881306,9.884452319156432,0.002658377390395107,0.05594762034495942,-0.00014896373893699265,0.9984301551020938,-0.5872108435785558,0.5376694936685782,0.06470981327531254
1729576649.1336915,-1.4362567692124708,0.49941072765226,10.100652422988,0.02463517048959234,0.07045877322966171,-0.0017406220980101062,0.9972089248921872,-0.6656343913831887,0.6678363360468547,-0.018642270332186753
1729576649.141688,-1.686795953617326,0.9195052464058092,10.474341634456861,0.0436230244634565,0.0793742897816923,-0.0034768578137077235,0.9958838613603777,-0.7352500933234561,0.779991646390783,-0.09504630430733228
1729576649.149671,-1.6297816004907082,1.184730066788798,10.783549320273726,0.0545274681528862,0.07437790453884272,-0.004073030949402307,0.9957299297259936,-0.8115004094660412,0.8804886573911785,-0.13280061352464098
1729576649.1576624,-1.8416969192787997,1.3455409001807008,10.80411343737908,0.061685212573105136,0.08352629195631953,-0.0051804094769961305,0.9945810456968749,-0.8700213009954532,0.9650511974947515,-0.1269319649370701
1729576649.1656535,-2.096217638871967,1.4760250637900612,10.699136026294635,0.06816506936882319,0.0954798266954373,-0.006553786460005288,0.99307309594772,-0.9153503973881891,1.0800679208376622,-0.10936300375628052
1729576649.173666,-2.6564231931864613,1.6314088554127084,11.05752907183147,0.07265723681849555,0.11609107263097719,-0.008515404611374405,0.9905409010624422,-0.9174321415975708,1.1669569374248137,-0.10988956864581961
1729576649.181666,-3.0744282225525024,1.4256033430327812,11.59147256028638,0.06062135551120043,0.12810915070272133,-0.007845590828714622,0.989874508948867,-0.8948425446813261,1.182055312029908,-0.09275221505959975
1729576649.189655,-2.838250622496345,1.3265408925384188,11.552468984169876,0.05670650082322394,0.11921883461687138,-0.006820339248501168,0.9912238522198283,-0.8319087394019835,0.9752894756317145,-0.010102492459322474
1729576649.1978357,-2.532062408409916,1.2247260528570356,11.43066515026755,0.05301704936435806,0.10803030080248535,-0.005769471741807402,0.9927161526745912,-0.7741410233456625,0.7350165870136638,0.09014445841482566
1729576649.2056975,-2.377079899879934,1.15573628356969,10.9369216182367,0.052306788509323195,0.10608535724733717,-0.005588300355682047,0.9929645853466681,-0.6888232763978881,0.51678278314844,0.24777565301411977
1729576649.21369,-2.9743387333849913,0.9781123475343922,9.748835380609988,0.049412942339028376,0.14664951992683287,-0.007334943797777005,0.9879263525355079,-0.576758949440153,0.3794571499073751,0.3887545864730577
1729576649.2216911,-2.9716484231364637,0.8902127588624322,8.881557630953884,0.04925764646800718,0.15979852504763806,-0.007983972213740802,0.9858876060914461,-0.4724853179183152,0.23959361166536194,0.4720648763640343
1729576649.2296855,-2.6109039879639093,0.6569502004834749,8.554642475300845,0.037877984579552236,0.14705741339854705,-0.005635689252339769,0.9883863690153619,-0.3388308987410532,0.01647483862206975,0.5275850210976267
1729576649.2376902,-2.15240353901858,0.6448430341084443,8.000081393383633,0.039845632476446,0.130526435063679,-0.0052501023092770445,0.9906299065482838,-0.2518272062513035,-0.15698560091987457,0.5826073010723458
1729576649.2456737,-1.7923091107158353,0.6172280201720979,7.7274392059032255,0.03957483964266261,0.11327186558774374,-0.004515383390525292,0.9927652934336324,-0.2102672422940045,-0.31810433288095336,0.6415877628063611
1729576649.2536654,-1.5226223365466887,0.4507819878845087,7.607667783795842,0.029438315331682702,0.09839534847841432,-0.002912004713721582,0.9947076259971023,-0.1815000533664668,-0.4913997831207663,0.6476034256058901
1729576649.261654,-1.2087784666252788,0.3391827803771896,7.460148158070473,0.022639333150637823,0.08012946840297806,-0.001820402405344591,0.9965256720341094,-0.15530024871924153,-0.6430543401484017,0.6222658991061893
1729576649.2696664,-1.0482448839302454,0.1970453237438919,7.783199648016112,0.012625866201090763,0.06686097745088432,-0.0008461390598605046,0.9976820541864406,-0.1280867342714315,-0.8170566363500791,0.5772650789040268
1729576649.2776625,-0.8597479703972098,0.06938548037914762,8.292107480460057,0.004177911915503675,0.05163154966623502,-0.00021600206240278855,0.9986574395027549,-0.11856966658613799,-0.9661554705245987,0.5643123588109762
1729576649.2856588,-0.5977304790156697,0.09885270790522295,8.175593847406894,0.006041081314606707,0.03647943745510392,-0.00022052606137821395,0.9993161198278379,-0.1371237594782977,-1.1637400466406667,0.5795279900740956
1729576649.2936556,-0.3581594470773706,0.01406121336618064,7.755174544528119,0.0009063176241228809,0.02307315172718784,-2.0917181236667567e-05,0.9997333683638903,-0.14187086429166307,-1.3367791201774475,0.5516223334847705
1729576649.3016675,-0.08177805594173486,0.2880794819259584,7.633406953279372,0.018859303156688077,0.005351597023578329,-0.00010094679059580762,0.9998078199851643,-0.1251373843524288,-1.4448594649141362,0.528493588609245
1729576649.3096688,0.4017613390423809,0.49534665277862194,8.13950378012192,0.030376820251079257,-0.024600391029159993,0.000747853418100917,0.9992354628754482,-0.0780622610416915,-1.4939571394820543,0.5431375758018857
1729576649.3177352,0.9885265617262099,0.5466838046554543,8.523128211676667,0.03196598410823919,-0.057554138546961654,0.001843777904105608,0.9978287916667614,-0.03747217527285021,-1.4404061822377088,0.5395789563350712
1729576649.3257,1.3470500398189291,0.010778562822569475,8.96925986035561,0.0005991251602870243,-0.07446646976932245,4.473896065168062e-05,0.997223337035171,-0.03908521756072936,-1.1392394890470978,0.4135679767695314
1729576649.3336854,1.2549880536765134,-0.8561637204607552,12.488025283889147,-0.03417472770331813,-0.049912989120611415,-0.001708894787085243,0.9981672511067754,0.04210513892871526,-0.9185246073553002,0.2277076631115413
1729576649.3416882,1.19999028215708,-1.2997146373057498,14.431211581466302,-0.044855264796345246,-0.04126093803337186,-0.0018542204121160353,0.9981393199745812,0.19639048806496587,-0.7724735963734365,0.13449614755961461
1729576649.3496714,0.9321204363840918,-2.2292784674420436,14.884130105618063,-0.07422981672102538,-0.030837320871753067,-0.0022964855775059966,0.9967616164886205,0.40985767500193315,-0.35110198159808553,0.11645565369857942
1729576649.3576608,0.6926292943011583,-2.7192608585413978,14.22166373231615,-0.09429416395547481,-0.023790882822343564,-0.0022540311111516197,0.9952575163655994,0.5668849113435318,0.09711272547819758,0.09498910584540751
1729576649.3658705,0.6212394991881169,-2.9208341091189793,12.026856722055705,-0.1188029845864787,-0.024896277359634712,-0.0029797989849672294,0.9926012024096013,0.6985619785571497,0.4750182054582475,0.13361767457041018
1729576649.3736722,0.43188048051872946,-1.892561262590528,9.978543908721702,-0.09355925879463493,-0.021153787936705082,-0.001988304820908224,0.995386974494677,0.8452529386577835,0.6766457798200176,0.172971038140969
1729576649.3816772,0.44731253879951893,-1.6821329965679888,8.276222552508413,-0.10005443534588736,-0.026321840931154625,-0.0026478352442163,0.99463021250419,0.9422070060088663,0.789108523207839,0.1816839041321332
1729576649.3896697,0.06918994515471136,-1.3839723577552463,8.01977716920036,-0.08533868835543579,-0.004235253204998387,-0.00036275758230242477,0.9963429325824517,0.9905885750058894,0.8289163152454998,0.1826547231122114
1729576649.3976705,-0.4873651796356888,-1.5268566775926011,8.167100508063184,-0.09223664768425077,0.02916623040586672,0.0027028821137602506,0.995306197235887,1.0094009549290144,0.8387532184398492,0.18919687536072677
1729576649.4056711,-1.0822662354669603,-1.3896870949344668,8.43338369473049,-0.08139920453965896,0.06272533069799328,0.005133035130478809,0.9946925928845994,0.9606660842167429,0.8301818982667498,0.19141940646398786
1729576649.413688,-1.7229197656942388,-1.52717305774193,8.74207294999259,-0.08595284269915479,0.09537463296761367,0.008266421462556088,0.9916891924864517,0.8790652842295501,0.8126940943804912,0.17827946303623543
1729576649.4216712,-1.9636597842212309,-1.6946587943619549,8.610533623511179,-0.09640006895002788,0.10932731105636069,0.010653548636059744,0.9892628910785417,0.835213084974779,0.7890050201434131,0.1776322280244385
1729576649.429686,-2.4066607423589104,-1.8195710932675635,8.707583849643816,-0.10188421736978036,0.13102743829174054,0.013538674310731942,0.9860365718184896,0.8731809647026829,0.730945499270577,0.18788613855391112
1729576649.4376736,-2.471108957622377,-2.1389664621128817,8.647301003145664,-0.11979559849788009,0.13389890687042416,0.01630807494070116,0.9835924684599657,0.932996727886622,0.6548178507850582,0.18382192339650594
1729576649.4457095,-2.9268478159796762,-2.315041372629057,8.873056956867867,-0.12568211789011224,0.15261302493978013,0.019570844545528397,0.9800664528006051,1.040402116122607,0.5572070741953792,0.14136852852463186
1729576649.453681,-3.1248737786991336,-2.658669963958294,10.085183015673453,-0.12710512162547571,0.14383524391368466,0.018631953561559757,0.9812280881483896,1.1550767763167173,0.5126883802698188,0.06651644447191175
1729576649.4617083,-3.102670878547605,-2.7185613973202885,10.765292878251726,-0.12217259030809947,0.1347860362324089,0.016749021328769115,0.9831714259978742,1.2323953736624245,0.47320646207062156,-0.008618800323524557
1729576649.4696734,-3.218157187773094,-2.7135554089488134,11.142713014548692,-0.11799485760704871,0.1353910118229145,0.016241693537079813,0.9836069819226109,1.2494139178289685,0.44696317078233105,-0.11329655580547078
1729576649.477691,-3.243395662761513,-2.416783272224757,10.738053538709684,-0.10928330452498788,0.1419196201651406,0.015766424072199445,0.9837008694904446,1.2391919213787175,0.4341970264395909,-0.20036754259797432
1729576649.485684,-2.8994084987311264,-2.049099218705948,9.363758148616435,-0.106303652130483,0.14549206144601917,0.015725715492838993,0.9835061237593528,1.208794390005231,0.3826912635033576,-0.3343426264741865
1729576649.493673,-2.2723549686234414,-1.4674431762431,7.607597048593689,-0.0941246307503237,0.141516907018291,0.013518156793298514,0.9853581979924881,1.1688456780465755,0.23812855933125518,-0.4913518878630795
1729576649.5016708,-1.8175930361057056,-1.2989723559411726,6.805770403228479,-0.09335186540831919,0.1273556805722735,0.012040835243257423,0.9873808678202171,1.127848848412901,0.09051725803892322,-0.595774006171504
1729576649.5096703,-1.861967596565767,-0.7468222709865784,8.706186807366775,-0.04252741426068471,0.1046838284470506,0.004480672702512297,0.9935857480208246,1.0866488382356772,-0.061903031955780695,-0.6047903294123428
1729576649.5176706,-1.6790996875781319,-0.08537181107827517,10.582893080513815,-0.004020401681757757,0.07859075509250324,0.00031694932533454475,0.996898805861173,1.094281276800457,-0.19805266240611635,-0.5442181638302311
1729576649.5256882,-2.0273897197734416,-0.13741434641259007,10.715323155437195,-0.006382511544706261,0.09335157612092446,0.0005984431399625975,0.9956125695509922,1.151646307560617,-0.35934648216971765,-0.3988982087466841
1729576649.533726,-1.7175402393347678,-0.04126833929286655,10.663818369580676,-0.0019285444966279952,0.07975994052383675,0.00015431250814562135,0.9968122234359932,1.108589734830623,-0.4041885865295106,-0.27254275004204886
1729576649.5416875,-1.1351507561496887,-0.3293034547475949,10.32286638307653,-0.01591927261780699,0.05470041735370831,0.0008722077395704254,0.9983755207106738,1.0108141708055434,-0.45280404227994997,-0.1635256500252293
1729576649.5496752,-0.4660911446077819,0.2886802843291775,9.919097613049043,0.01454295576853743,0.02346280654078744,-0.00034134865639125965,0.9996188686833791,0.7780415972525248,-0.6058491236156649,0.013415406087914694
1729576649.5576856,-0.07854174731154416,0.1715322294353971,9.446753571491534,0.009077694459151471,0.004156112024771687,-3.772979558418203e-05,0.9999501591442478,0.5706933333482506,-0.741096558686221,0.19790701106481492
1729576649.5660024,0.04169983320487038,0.43906525074717573,8.93733450983828,0.02454127980274036,-0.002329370132723144,5.7183102021742655e-05,0.9996961019982629,0.4062695092282551,-0.8265019203431749,0.4635531564231346
1729576649.5736635,0.008978748799875353,0.8588771033291649,9.462710469086561,0.04524272905946497,-0.00047200176706878723,2.137653952638008e-05,0.9989759117339253,0.30293262408017546,-0.8973268801646007,0.7540533825684321
1729576649.5816665,0.024780282727190836,1.0109260056498426,9.607468886432406,0.05239452803692158,-0.001280790979195088,6.719879421630384e-05,0.9986256398123262,0.21879460979530202,-0.9857963826953555,0.987950126860295
1729576649.5896592,0.197785176472252,0.75954508947389,9.052199051586006,0.041840781470840846,-0.01087498032324118,0.0004554435143991728,0.9990650010785503,0.09849863114460478,-1.1116710847238158,1.1814994311181668
1729576649.597667,0.4562535399653824,0.4164621464577715,8.920389510297307,0.02331631687967635,-0.025513901232684124,0.0005952459610675042,0.9994023393475229,-0.009436921208624223,-1.1454782799176129,1.2899665925665733
1729576649.6056678,0.6527542467819638,0.7976706277184129,9.391970167360025,0.042324905810384526,-0.034532906118975054,0.0014637891152607173,0.998505852794337,-0.0954827556936632,-0.9903782917115341,1.3524927490668448
1729576649.6136925,0.36938647262972507,1.3062778905470633,10.741056560865232,0.060464467977664825,-0.017030624082645565,0.0010317858974828618,0.9980245194249465,-0.1271028234959711,-0.8722025851616271,1.3895827529055458
1729576649.621686,1.0864175232262725,1.795077515578238,12.56876236303281,0.07080398630783181,-0.0425605930335812,0.0030238093400561245,0.9965772664578624,-0.11797932012086176,-0.8476973779310443,1.3743760298001075
1729576649.6296973,2.708469740009982,0.7126490166711614,12.28943815024156,0.028781306221231876,-0.10802809566836277,0.0031288192616341333,0.993726208494319,-0.2125423825393736,-0.7529645220378327,1.300547106594616
1729576649.6376991,2.182451990490364,1.9122338594655872,12.177628521248451,0.07748891894950592,-0.08723915817678714,0.006806723092059843,0.9931457421956711,-0.32121440748884855,-0.5313827547160995,1.21410643658658
1729576649.6458435,1.3559187065012495,1.752833915532868,12.153159533403366,0.07144668044837953,-0.054821907056401,0.0039328541414761576,0.9959289447635852,-0.4191957571911099,-0.07320648736606747,1.0877462738259025
1729576649.6536624,1.0943910786370779,1.8561521071322205,11.146799813059598,0.08230897180180065,-0.048089757008360975,0.003976358631272607,0.9954379925459158,-0.43286142049749143,0.2774721039841934,0.9131700819103048
1729576649.661643,0.9602194176900593,1.6669912679414416,10.368925520159978,0.0795315695662273,-0.0454285154338818,0.003628276011853104,0.995790045662733,-0.4380809880510861,0.49894720039236273,0.7628755301845089
1729576649.6696675,1.0255233022253636,1.042811550315646,10.097328379722939,0.05136507786009072,-0.050254577795427656,0.002588029795302615,0.9974113535993104,-0.46419999190219263,0.6573736619249863,0.5645735235376752
1729576649.6776626,0.9528964154172493,0.6556144509413409,9.630545904786889,0.033936530616778114,-0.04915072176170854,0.00167099058808369,0.9982132669076554,-0.49391916624110355,0.7579635096435667,0.3808874302073463
1729576649.6856616,0.690250831428084,0.4821935521566013,10.035218094629945,0.02398961204334484,-0.03428128778725973,0.000823115906951223,0.999123923395822,-0.537292074532172,0.8400276114092786,0.1536110073070902
1729576649.6936617,0.2846241890423972,0.6300110275341951,10.281133870693981,0.03059310479275564,-0.013805725994754872,0.00042259816298122503,0.9994364838646276,-0.5782149716579842,0.8833064116082374,-0.01723574141148798
1729576649.701664,0.04292414477309457,0.4855062710615327,10.018077751615609,0.02421014122721915,-0.0021391810954891803,5.1805179604169044e-05,0.9997046015109774,-0.6376752949733582,0.7964658254401742,-0.17593487875562308
1729576649.709702,-0.1281926798841901,0.4632074418361384,9.30000089169202,0.024879880107006393,0.006880926019797143,-0.00017125368434202845,0.9996667520204654,-0.6844194305605953,0.6247425664685053,-0.3124462971239212
1729576649.7176871,-0.5038017639363734,0.7996210068497299,9.264916310161697,0.04301681792866101,0.027033162369494025,-0.0011643851629498877,0.9987078680549129,-0.7124659119129375,0.5280939620074345,-0.3960559083907482
1729576649.7256818,-1.1838261096313554,1.2085675894614003,9.420557643763035,0.06362601981620093,0.06183579007414772,-0.003949973827531475,0.99604842370992,-0.7378076019535835,0.575675934573376,-0.4423904645976861
1729576649.7338428,-1.9818561674877975,1.6227267560694183,10.013372910232428,0.0798548181731807,0.09601081691405848,-0.007727651512533206,0.9921418318225093,-0.7649319376989081,0.6536051652425365,-0.46593429770722855
1729576649.7416847,-2.295713707816897,1.8336332899697758,10.026930652877738,0.08973655358254119,0.11008404241062777,-0.009980233861905958,0.9898127345562515,-0.8003625919118942,0.7463372302819322,-0.47665507708125776
1729576649.7496688,-2.2225814107252946,2.4976754830150685,9.12574750793758,0.13225720515671646,0.1140832689922419,-0.015325743933154131,0.9845090964501412,-0.8292834055460024,0.8407142648986146,-0.48947289562760576
1729576649.7576609,-2.2153333178707237,2.2484692497699785,9.208008892946141,0.11864452197356846,0.1137276925992509,-0.013680488864519858,0.986307423456876,-0.8589809055088663,0.9488489831055298,-0.47587908368231296
1729576649.7660103,-2.3553548222654026,1.9959948384362058,10.703702946851669,0.091505974089517,0.10586695894144126,-0.009784198734973775,0.990112677004761,-0.8848875166543633,1.1022733468137815,-0.37832788360811065
1729576649.7736614,-2.365626313769398,2.053523996567583,10.026931787642251,0.10015547220275504,0.11274935108828738,-0.011423875410486692,0.9884968185520978,-0.8787212902070978,1.1760232923958651,-0.22699673016486638
1729576649.7816653,-2.2650078146288264,1.852452048087034,9.571787958083398,0.09479229672598512,0.11336949212703748,-0.010866510839686969,0.9889609181754562,-0.8660820630480358,1.23176689140459,-0.07532435930984929
1729576649.7896614,-2.7766114917558107,1.9477658687447985,10.383514432564882,0.09178573101513932,0.12760126607876282,-0.011860250348017258,0.9874981675622471,-0.8346598833107248,1.317998618431117,0.13827780090422606
1729576649.797892,-3.132894252231221,1.4260361997136761,10.651959705681508,0.06579728808268946,0.14103897357615214,-0.009394877098276477,0.9877704495974039,-0.8081441543620217,1.328445718685216,0.2890006702901589
1729576649.8056986,-3.3380447825399044,1.2626360020547682,10.478556897627655,0.05919240059983705,0.15228673200105222,-0.009137390151972824,0.9865199030272418,-0.7977686877918062,1.0937734040501657,0.40625286579382663
1729576649.8137233,-3.0948222467212076,0.9110499276488766,10.356798120510186,0.04337886318975884,0.14401673501831813,-0.006319298078793738,0.9886038239531643,-0.7834552966818984,0.8359052483670767,0.5195988793036924
1729576649.8216875,-2.632135845591318,0.8444686431127634,10.133147569815879,0.04121388741726984,0.12620151829803253,-0.00524778080802207,0.9911342255516248,-0.7169734136571173,0.5611397576249304,0.6765757102551766
1729576649.8296869,-2.523554642120416,0.775550032303205,9.321398169575074,0.041118367158524606,0.13126633020072392,-0.0054493400920421695,0.990479043256551,-0.6264271665282669,0.31241952107162246,0.8524943006267771
1729576649.8376863,-2.5058111129089684,0.750718857272548,8.428052507702075,0.043926447897763156,0.1433202678225834,-0.006367628355794179,0.9886805456341652,-0.5529433654851653,0.11423302207150403,0.9899722094593897
1729576649.845673,-2.4448867605188185,0.8210537313557164,7.878158740949369,0.05129383338818845,0.14893465573210635,-0.007736244853693338,0.9874854740672733,-0.46032441785263273,-0.04895064372061832,1.0835268963569702
1729576649.8536646,-2.2807212005984003,0.9444180920849141,7.652609673280558,0.060696744827045,0.1430292191105956,-0.008788483065589806,0.9878164354845589,-0.3728262946634608,-0.16473982577729704,1.120929345791189
1729576649.8616576,-1.9337037323219308,0.7548351057392297,7.774178070814038,0.04800651584126127,0.12090590000987085,-0.00585411774847229,0.9914851824838196,-0.26669047300574167,-0.3099861659515459,1.071429195064637
1729576649.8696666,-1.646245176404877,0.5991867848790847,7.830838538045064,0.0379625783159783,0.10305203321418784,-0.0039359591206264664,0.99394347390776,-0.16001428380344498,-0.46737283019733034,0.9540369519675274
1729576649.8776703,-1.1579748438800357,0.6137762872360445,8.133703664819226,0.0375528126638859,0.07040240569527689,-0.002652274326520653,0.9968080321577699,-0.0760011373933515,-0.5839407119408268,0.8410325999630583
1729576649.8856635,-0.9768218618944277,0.4465561666287361,8.45883542032708,0.026323117959474725,0.05735440092552834,-0.0015127636410208237,0.998005650135074,-0.014525307949282588,-0.713052359530147,0.6974571578201354
1729576649.8936567,-0.804204888376891,0.6313735119889604,8.625662894041952,0.036484448368487514,0.046311778230030715,-0.0016926063327810839,0.9982591042951834,0.021508809594234686,-0.8279800734923979,0.5478840733765389
1729576649.9016664,-0.737026569500744,0.5928657356113449,8.15522112265564,0.03623893962953136,0.04490230083598433,-0.0016299296071218955,0.9983325427750203,0.04823756085788943,-0.9437626086305718,0.31085146144451803
1729576649.9097037,-0.32250585869263393,0.5451007926851663,8.063295091806275,0.033736630099392956,0.019929590753609398,-0.000672874130395462,0.9992318041587422,0.06512619173900634,-1.0328138725407296,0.06561489941149384
1729576649.9176884,0.07416823038988841,0.6627275483650061,8.22505414370681,0.04018902874239715,-0.004490345650357057,0.00018061037176646277,0.999181988500882,0.07525937026767648,-1.1032722333453058,-0.11132534211066289
1729576649.925683,0.4369105903335424,0.9131081464506443,8.466001094622523,0.05367610198097716,-0.025592787501119974,0.0013761576577117503,0.9982294282849766,0.07708237677025825,-1.18300797523671,-0.27240350495255894
1729576649.9338443,0.6547954264657504,1.0432252113567146,8.524856845738357,0.060801117719110245,-0.03796743072077853,0.002314422197069454,0.9974248551838196,0.07434497011864905,-1.2389375315393312,-0.39799732683711475
1729576649.9416897,0.7445854797564032,1.2785944993726228,8.576690287862936,0.07385595197073831,-0.042697763521096894,0.003165038172865628,0.9963494276016606,0.07483097643499367,-1.258021803231195,-0.5010234739628803
1729576649.9496696,1.3172830114866543,1.6508565323872455,8.685601907092762,0.09350909291458344,-0.07356075051692988,0.006927974468842247,0.9928730375508426,0.08150793114673092,-1.2447823426815154,-0.583272285188517
1729576649.9576616,1.8809286630931645,1.1672060019518784,10.32298168868925,0.056030825317214136,-0.08929563733354615,0.005031407838811507,0.9944151651612254,0.0940279052030139,-1.2313046955527012,-0.6279389812478169
1729576649.9656966,2.074266853617617,1.519619409276596,12.641613504180347,0.05957846653484459,-0.08051356613945695,0.004821175160007356,0.9949596616260079,0.19987429383451297,-1.1717096098385067,-0.6091901623069593
1729576649.973661,2.867589417590492,1.7643468567475982,11.82222620065274,0.07347198127579302,-0.11713264413650916,0.008689765866695877,0.9903566527338429,0.28126110959481776,-1.0695449088219133,-0.6213538243228566
1729576649.9816663,2.3401730402027328,1.3849378003278559,12.150847307305707,0.05645042504073748,-0.09424182676878765,0.005352463577328598,0.993933186252303,0.32115370776029795,-0.6745050800257244,-0.7142157238862633
1729576649.9896586,2.4058377987310147,0.7016757905482759,12.425113264754515,0.028068785393196963,-0.09529875903241754,0.0026882290936902664,0.9950492767887286,0.3744618809004663,-0.21825080109506476,-0.6618075880129513
1729576649.9976616,2.0990350937893902,0.704718371057481,12.16901160753435,0.028809778876433295,-0.08512572167735598,0.0024624246260531364,0.9959505733795032,0.43965060957860574,0.12318648603579402,-0.5256429513693043
1729576650.0056622,1.632198254759962,0.09482539519308236,11.337552123212015,0.004170693591600119,-0.07142678920837918,0.00029866470556670865,0.997437080671127,0.5072850809034455,0.47874314007186847,-0.2979324783016392
1729576650.0137,1.4121906130122273,-0.21748027313805685,10.530303258790491,-0.010300905634318992,-0.06658904579749463,-0.0006874900899379008,0.997727075747806,0.5610621556036723,0.7278350976563238,-0.15364377335472365
1729576650.021692,1.095353659799524,-0.5097297068515841,9.181886560987184,-0.027674676198108455,-0.059219070450009695,-0.0016423833517009284,0.9978599684170584,0.6627158804421196,0.9019802957717948,-0.09218626401283418
1729576650.02968,0.6483536497371362,-0.6810092242574349,8.095348569893092,-0.04191605380563585,-0.03977391806137935,-0.0016699582816955413,0.998327747342899,0.7760679929050178,1.0464822804185085,-0.05956865902232082
1729576650.0376875,0.2072922838364223,-1.069884033089617,7.581092370695621,-0.07003565553957271,-0.013500560710134196,-0.0009479353167413619,0.997452677189394,0.8521673715505353,1.1548936643411003,-0.06128259910111439
1729576650.045674,-1.0559660481551778,-1.8122161913381454,8.666921698052137,-0.10269209547007381,0.05899989074876457,0.006101882438587796,0.9929431572100715,0.9276253030401881,1.2897536647744285,-0.07380459480786539
1729576650.0536652,-1.9817545837270911,-2.4115626530353094,9.259521933626203,-0.1263571023349034,0.10111042452206853,0.012947792678945812,0.9867334591505635,0.990353354453923,1.3851431271241346,-0.04896534756080158
1729576650.06165,-2.767789324943286,-2.2195464675536076,10.16359367531244,-0.10635265276218775,0.12890108406220027,0.013905881314332482,0.9858398704875487,1.0624710802805886,1.4104500499243058,-0.011500225955075619
1729576650.069665,-2.7720620056105028,-2.3820641488427112,9.948032474718714,-0.11617441687156803,0.13102386717617823,0.01546241243650199,0.9844273283977817,1.1023361952848916,1.3681660453070341,-0.006900135573045371
1729576650.077653,-2.7578662023897396,-2.070645114061486,9.568022840544119,-0.1053184116095392,0.13609301823370734,0.014551746271196611,0.9849746033500266,1.1130588723821504,1.2695769519652018,-0.006268531651137381
1729576650.0856621,-2.8063307199689995,-1.9917721880657977,8.649768721416315,-0.11154301733133623,0.15153864050207747,0.01721314248903819,0.9819867124585013,1.0509563787451186,1.06952008561617,-0.05910082698074653
1729576650.0936587,-2.8947856316884306,-2.0181898436011974,8.57119223748846,-0.1138533348136848,0.15708583463369857,0.018234283577515505,0.9808307548255469,0.9689974261093863,0.9413978546389723,-0.1550794034592788
1729576650.101663,-3.148253257675168,-0.971733160311109,10.914177864465731,-0.04393359228250065,0.13929811181082946,0.006186331864023718,0.9892560865686705,0.9147137737904025,0.7772580534529372,-0.30291284237634886
1729576650.1096988,-3.218452136489866,-0.1911090844190872,12.292435921560298,-0.007706487163146721,0.1276697175042987,0.0009920333008469702,0.9917863021628736,0.9217327581149812,0.4918962357594842,-0.3852275548046604
1729576650.1176887,-3.702541090243529,-0.2530503066084836,12.733206028033836,-0.009831762176226796,0.14098288857376967,0.0014001647744498428,0.9899622220673426,0.9212615580336461,0.31344241409855783,-0.4243998207865586
1729576650.125685,-3.8009794893511955,-0.1302823690236839,11.519966827269519,-0.005579697167072481,0.15866447090418528,0.0008966727486824889,0.9873163872995325,0.8524427380894579,0.23744549558873038,-0.42832143754844404
1729576650.1336923,-3.895237293220092,-0.3396162427032728,10.314619495775775,-0.016177440703876528,0.17945108092575007,0.002951374858952481,0.9836294471767782,0.746020866719254,0.15906920975025743,-0.42301198649925875
1729576650.1416867,-3.3553963419965083,0.5058716264483488,9.402748006059214,0.026461630890270867,0.17025887602929532,-0.004573781541713544,0.9850333891530159,0.5740424682857759,-0.0058727087778090575,-0.40705561402588664
1729576650.1496716,-2.703246723654936,0.48404578104479057,8.541027014084747,0.027957723562578356,0.15237494692887396,-0.004312156839265225,0.9879178339037183,0.4219010721575553,-0.19125294237144136,-0.37194038685414144
1729576650.1576617,-2.3754032966441336,0.1544368143299993,8.185363610794598,0.009334659147962953,0.14072278153369708,-0.0013268623265983972,0.9900041425834424,0.3059262109158251,-0.31738023467879184,-0.3495941803667082
1729576650.1656618,-2.226581273640777,0.11420990353940581,8.734518797580273,0.006484485481493055,0.12446421281274489,-0.000813429032960868,0.992202574835478,0.15418311230861487,-0.4207264640582342,-0.32171299438453926
1729576650.1736605,-2.046547816918841,-0.04064965357948151,9.074785817122383,-0.002225360975389757,0.11067621652939934,0.00024781762175102653,0.9938539940301558,0.022271007243933702,-0.49763335383707075,-0.28327408966067424
1729576650.181664,-1.8255214245263045,-0.0598239767180014,9.453243909707023,-0.0031491873496444275,0.09523432460331326,0.00030128160506269133,0.9954498557264359,-0.13094632648926852,-0.5710216516379427,-0.22658123197085475
1729576650.18966,-1.5281845148720328,-0.057442200972207084,9.645842261351557,-0.0029679671875362237,0.07847921935696718,0.00023364540751240673,0.9969113043344018,-0.2628915925066208,-0.6589007066490551,-0.15978738262438663
1729576650.1978505,-1.3701330831907979,-0.42807207351301174,9.137711739867575,-0.023336869982722764,0.07424783898983267,0.0017379865907617249,0.9969652091760071,-0.3463156527316525,-0.7397236837122166,-0.11119727178726511
1729576650.205661,-1.0040391760863536,-0.4191701166664008,8.058069769750622,-0.025931223415237608,0.061837555050279186,0.0016071427134475833,0.9977480170513452,-0.39083611806766505,-0.8201442245597659,-0.12461221143119536
1729576650.213663,-0.7111202610229059,-0.6822189486619498,7.724403845492952,-0.04398357268133194,0.04566411953894824,0.0020125242163170527,0.9979860636638156,-0.4171227072078106,-0.8662680987609853,-0.1594796490896615
1729576650.22169,-0.1027366719946029,-1.0165009102127949,7.609677290205928,-0.06634663564463682,0.00667577295064413,0.00044390311364965587,0.9977742033868058,-0.4145899880490306,-0.8045475103746904,-0.18210287193058933
1729576650.2296844,0.192622213111832,-1.17612923875463,8.449201466896993,-0.06909595090320934,-0.011260845995239487,-0.0007799928423116472,0.9975461565899689,-0.3428314964125273,-0.6734376537598044,-0.1360801970304616
1729576650.2376924,-0.2923986350235258,-0.12221059867269991,12.102248836681165,-0.005048510327462996,0.012076930211432175,6.09757310153349e-05,0.9999143246209157,-0.2870056995867644,-0.5790212075167775,-0.10846659209038495
1729576650.2458441,0.8784883897866659,-0.83180944514112,12.560675256598543,-0.033036489725247004,-0.03481080049243891,-0.0011513540813523511,0.9988470718280595,-0.3773860293767579,-0.5436558428440631,-0.15915745883733995
1729576650.2536647,1.949009399838796,-0.29150838314912514,11.949876494291155,-0.01215299460974303,-0.0807200147473928,-0.0009842751811670943,0.9966622372416665,-0.48354841474912186,-0.4871043489390858,-0.15934798452170873
1729576650.261652,0.08794475001069953,0.24599562196599367,13.485351035734851,0.009119657767105112,-0.003260021292373514,2.9731672900220262e-05,0.9999531005099248,-0.5749156999675722,-0.16327852074045587,-0.06197927585752474
1729576650.2696626,-0.5709226824642833,1.2271429017440494,14.19355181284716,0.04309930280784868,0.02000662494853292,-0.0008632469854964344,0.9988700815723175,-0.6476150536800478,0.15829830455586946,-0.0069635711507105985
1729576650.277657,-0.979650671246148,1.5433711206851015,12.419398054261032,0.061730191453757396,0.03897511516373452,-0.0024123855647504473,0.9973286841643246,-0.6946401863992294,0.4470246635626218,-0.07016010221704126
1729576650.285654,-0.6634471752086264,1.2578590225087172,10.46953002518357,0.059719526380167455,0.031355735604839605,-0.0018768272702396544,0.9977208394801652,-0.718172675354656,0.6683634559118827,-0.18342516173561924
1729576650.2936609,-0.9475375861310351,1.0087402096478084,9.646529028293735,0.05200803378211899,0.0486067582650627,-0.002534379665929671,0.9974598359797695,-0.7127104259006585,0.80968053255068,-0.2573438583072345
1729576650.3016632,-1.112485168866121,0.6445090330152474,9.839624886458662,0.032644490672434766,0.056112913639481246,-0.0018356526846571492,0.9978889259485981,-0.6834659824790761,0.8723348953379326,-0.2991409358814314
1729576650.3096728,-1.4096936159681102,0.2873460509126641,10.396733767324417,0.013782502333971849,0.06730132554537657,-0.0009297776823788484,0.9976370631260201,-0.6620881058729684,0.9129073434405185,-0.3271990128561838
1729576650.3176997,-2.0369314955086004,-0.03540907355396407,10.479847341693477,-0.0016812876083736191,0.09583847247454771,0.00016187740615444403,0.9953954662652571,-0.6220172159757338,0.9589610054366335,-0.3321145373200983
1729576650.3256943,-2.3390539717680507,-0.03632891459136282,9.804511803453586,-0.0018394435969482828,0.11682742834455295,0.00021637955613646234,0.9931505030022084,-0.5954205416686208,0.9759509510977519,-0.33080695138382676
1729576650.3336864,-2.390561727543252,0.10629244006354169,9.176410305949105,0.005742427265102659,0.12706883210778896,-0.0007356592818956123,0.9918770061057411,-0.5811652973302011,0.961029204868163,-0.32874532963767766
1729576650.3416853,-2.438225792629467,0.7070974501221092,8.4698678388429,0.04121083672826724,0.13911069538051454,-0.005794275919580405,0.9894019950118726,-0.5815516420178519,0.9146154317217509,-0.3134605845617412
1729576650.3496723,-2.519496668204633,1.1288720186572498,7.781143654965896,0.07107397468831904,0.15403060773377628,-0.011109275431301384,0.9854438827262358,-0.5958312208586894,0.8969837293089924,-0.286410754934774
1729576650.3576622,-2.782300821967702,1.099181543713881,8.012428231553757,0.06714147386473791,0.1645320739878966,-0.011226323575303425,0.9840199127941948,-0.6473936643708571,0.9898473927966109,-0.25059911433134024
1729576650.3657246,-3.2837906726239803,1.598993657673641,9.875981853483035,0.0791223101716477,0.15740307859127295,-0.012653021833522946,0.9842783305150894,-0.667263188880145,1.110696170292873,-0.269978375869635
1729576650.3736649,-3.4697629033302477,1.6936978437741064,10.719738516386695,0.07729646805570224,0.15363280841123295,-0.01205579291231453,0.9850263316597413,-0.6774821433398697,1.153407132488288,-0.29607939488232093
1729576650.3816721,-3.7221252993711955,1.3988121315574327,10.795275635466782,0.06347570353965662,0.16365136720993595,-0.01055231769884206,0.9844174488811375,-0.7300137327150659,1.0947470776360546,-0.2534204678696342
1729576650.3896642,-3.6611770497399045,1.3308168797645377,10.963181031914834,0.05955820905490817,0.15908530969806126,-0.009615024859264599,0.9854198269110479,-0.781114429167437,0.956959739912365,-0.17418816391780614
1729576650.3978658,-3.359809396347849,1.1437340072532538,10.725623575203588,0.05246264805345465,0.1501949766526369,-0.007981540930489937,0.9872311960994284,-0.8130519172232458,0.6307926221218693,-0.012989535136346889
1729576650.40566,-3.7964534124669123,0.8636507473695304,10.746852494731527,0.039487160524120074,0.16834145572666234,-0.006749140952599456,0.9849143960436219,-0.8105042169221675,0.4814925681469332,0.15098867184352965
1729576650.4137166,-4.047187074335616,1.0592800236170308,10.809868081311572,0.04801292973476926,0.1771829827949312,-0.00865447733640121,0.9829679797471578,-0.7889681638528049,0.4370356822769469,0.26768026867432293
1729576650.421668,-3.340742497286916,0.739236946054984,9.866773013093583,0.03686696359325683,0.16197874591307118,-0.006055922210525691,0.9860867297930859,-0.7351802861108323,0.3307575092615552,0.3870752739023946
1729576650.429696,-2.635796476155353,1.1196647164611155,9.006189747797556,0.061162042132813565,0.14058759564798007,-0.008701837260405944,0.9881389631931116,-0.6816230563925472,0.17674431242236954,0.47786832980502897
1729576650.4376888,-2.5865637426268053,0.91145841605831,8.402930268356267,0.05337783710857613,0.14772546137366627,-0.007984637000195001,0.9875546770379465,-0.5928719403871259,0.00047545221083789,0.5689535086323443
1729576650.4456742,-2.311857852509677,0.912709063306861,8.108012227175868,0.05546379561760198,0.13739893235508335,-0.007705958112783035,0.9889317059195424,-0.5042889956825245,-0.12869881729649282,0.5635823172625871
1729576650.4536633,-1.8714617073554154,0.9144171323200541,7.550862178834818,0.05976486369146763,0.12011807484596007,-0.007244529754681231,0.9909325536845958,-0.44517956799929526,-0.23131909262715117,0.510128175188213
1729576650.4616585,-1.6620512382804369,0.8211104283178136,7.350408022632921,0.05524225282176668,0.11012813831292667,-0.006130551102360451,0.9923620826079996,-0.3871523381318701,-0.3507851061843824,0.4393178943505437
1729576650.469665,-1.691309804247559,0.5869978024008444,7.517200307964519,0.03870812112118573,0.11002117037113467,-0.004288017243571668,0.9931659661595097,-0.3365854679373198,-0.4565199192356837,0.3908720649874736
1729576650.477653,-1.755073035868848,0.6270530320264441,7.592615402063867,0.0409139170801511,0.11287285348660316,-0.004651768787551067,0.9927558266674125,-0.28496084274748806,-0.5931794976379339,0.27155827433968094
1729576650.485654,-1.6717055305056838,0.5182079776631321,8.149744773464882,0.03157654583017388,0.10073805432949073,-0.0031988521729072526,0.9944066238255452,-0.2297217341302532,-0.7347718532839684,-0.0013813991205356702
1729576650.493659,-1.4849761124928635,0.31547376975217617,8.644433907535959,0.018169580817124487,0.08488984437705996,-0.001548259952600068,0.9962234606481056,-0.1859360174233615,-0.8495255709739313,-0.2673108179475532
1729576650.5016632,-0.8917039279937651,0.4885594693708369,8.190904587685639,0.02973822373500408,0.0540731873798203,-0.0016111133441923792,0.9980927475788339,-0.15115078616998584,-0.9881909716676822,-0.5873536224149496
1729576650.5097032,-0.4567319625091496,0.4291263359193771,7.762445627367241,0.027597205554956136,0.029325364294835184,-0.0008099553435570286,0.999188551389013,-0.12091446606579574,-1.0999114462018889,-0.8300364224093691
1729576650.5177026,-0.14930127101134913,0.5033603120496731,7.652853073441829,0.032832278728278576,0.009726952498445938,-0.00031954543191475653,0.9994134908831872,-0.07254867963947745,-1.2231348190354012,-1.0267289097814647
1729576650.5256934,0.22118661288147176,0.6477389069563664,7.912230126535801,0.04082621534436524,-0.013915242678194401,0.0005686359815376831,0.9990691982115067,-0.010751073051110033,-1.3455975097421802,-1.1490013028193424
1729576650.5338447,0.534937846635133,0.8033190717128822,8.384609238030855,0.0477154881036747,-0.031670520631692844,0.0015136603698007215,0.9983576108540618,0.033989912008226986,-1.4199265042891716,-1.207039896429436
1729576650.541683,0.37890238815686106,0.4108836537210887,8.46213536215445,0.02425004525835467,-0.022338436544849207,0.0005420028546151823,0.9994561700197788,0.03699585960195542,-1.4342999066535622,-1.2048280172482952
1729576650.5496714,0.39373844827497595,0.2180391924767938,8.371942121833685,0.013014973536096477,-0.02348593997329653,0.0003057791515589329,0.9996393987766468,0.007298363610002145,-1.4369642872117283,-1.204777959923997
1729576650.5576625,0.9607284913282669,-0.10668128920142371,11.864835937162711,-0.004491740564463887,-0.04038522130997158,-0.00018154988398182424,0.9991740715241193,0.055036135479983046,-1.4232380733339947,-1.1353604455111068
1729576650.5656924,1.4967682129610227,-0.06233283235874485,13.012468368938253,-0.002391015263397166,-0.057229092059585575,-0.00013706065882992987,0.9983581998874058,0.25395482318678425,-1.2259959577182125,-0.9608946376872188
1729576650.5736632,1.9986754309504418,-1.6503733578625126,13.259796462036778,-0.06169692376308551,-0.07402827565153515,-0.004588722149094104,0.9953352438406221,0.3575555035367698,-0.8586220023934545,-0.7846992226672648
1729576650.5816605,1.599994616480421,-1.6414468662800075,13.435966057153706,-0.060636106218067254,-0.05868659599817546,-0.003571287549791964,0.9964268121533537,0.4358921340823183,-0.15674216968504207,-0.5389299434342839
1729576650.5896618,1.4146556651519246,-1.697861374162536,12.439856210219958,-0.06766080693548335,-0.055942555303119416,-0.0037998179498519792,0.9961315209823173,0.5527072824894206,0.32100250811445563,-0.33442590765858315
1729576650.5976663,1.0702570526556079,-1.4910928120463496,10.313731962215957,-0.07163002674000225,-0.05101769296354895,-0.0036686370354846753,0.9961189062437302,0.6755819391549738,0.5672087589552611,-0.08869905843063558
1729576650.6056986,0.6251553998062552,-1.5418083959680442,9.512109342124496,-0.0802155131121153,-0.03228214444031866,-0.0025992727714880593,0.9962512626780223,0.7867674585629646,0.7604813460361819,0.1600512857340965
1729576650.6136906,0.35929150892672185,-1.2732019589675454,8.94087436748173,-0.07065221246230918,-0.01983046697733806,-0.0014048554231630213,0.9973028847019754,0.8739118931579366,0.8973037112963738,0.3544246387479111
1729576650.6216881,-0.6733921710599825,-1.4189747495992773,9.28646635999099,-0.07569070627021861,0.03566907427698138,0.0027093285626598345,0.9964894849737644,0.9193875129315272,0.992593522357812,0.47019727043327575
1729576650.6296825,-1.2664267406242706,-1.3867283409705036,9.629812209793421,-0.07129364684634645,0.06450982422930546,0.004620596863835116,0.9953563927467761,0.9266654519069661,1.0578555201624535,0.49836891348267753
1729576650.637681,-2.0002919245015156,-1.511990276066677,9.241100027292068,-0.0805340575543993,0.10468725420094714,0.008505717974976262,0.99120255101741,0.9033623612971975,1.1417101752987517,0.4458844192940074
1729576650.6458383,-2.494001731849347,-1.8181878973294592,8.6147448051936,-0.10278512545579638,0.13683575020598673,0.014276785325447587,0.9851433240150247,0.8932117174844946,1.2056450503473157,0.39268352964624176
1729576650.6536765,-2.501965736375233,-1.9935267642765817,8.019622799864207,-0.12015387177997944,0.1453831113252843,0.01779050877970992,0.9818911832963056,0.9118113547616706,1.1967543785541686,0.34841798407518343
1729576650.6616824,-2.7871051534950615,-1.8020884987514958,7.801173872789617,-0.11161290469996211,0.16563725904141338,0.018870926221599207,0.9796686919899115,1.0034265587443,1.0700983079616013,0.3278183175930169
1729576650.6696699,-3.0412676013743805,-1.908210352668866,7.66818915521674,-0.11950833567224796,0.1813122203725781,0.02220377604222184,0.9758845366014782,1.0847884649445239,0.9408934079233069,0.3009850556140079
1729576650.6776557,-3.305334867465253,-1.8572012054978038,7.823748347866372,-0.11396838884790088,0.19245341660511864,0.02250972968107153,0.9744055628177188,1.106361444731088,0.7552451922889742,0.17803689299963255
1729576650.68565,-3.4522830591510267,-1.6877320209061042,8.075819433524511,-0.10072702297322693,0.19581635847496145,0.020224679730613232,0.9752440632612692,1.0422553314783989,0.6502416138303051,-0.07154199995281173
1729576650.6936636,-3.3003135476488197,-1.4957891075631937,7.995303364216269,-0.09055630067000874,0.1907155135593477,0.017671641516857628,0.977299781225217,0.9739933592244432,0.6285314027169209,-0.30089337721767817
1729576650.7016647,-3.8052880541264007,-1.2087196803582285,10.7982484797114,-0.054885378055683144,0.16737633406484864,0.009332853494405692,0.9843198951135494,0.989227263985058,0.6274245977698272,-0.4414840340068322
1729576650.7096677,-3.889442726274669,-0.12404777134970273,12.612654320981136,-0.004860212520660601,0.14899629524841898,0.0007323371326331743,0.9888255387169286,1.0915937303016119,0.5629070055822661,-0.47262717039757074
1729576650.717697,-4.0567725705792546,0.1070518230300221,12.88200201763751,0.004104705067534153,0.15194594271010192,-0.0006310257493902613,0.9883800805847671,1.247091113674653,0.3505149051932206,-0.4674744087901401
1729576650.7256842,-3.8344320933729428,0.18777189948207573,11.227608676402816,0.008243467935575935,0.16378097813119172,-0.0013686529773853757,0.9864613338736662,1.2326899581485837,0.22393102508271737,-0.5699538870682654
1729576650.733843,-3.900943645672203,0.0959037280681517,10.59745480300966,0.004451519612861563,0.17543365011595125,-0.000793256990295344,0.9844808729089041,1.1312488314342193,0.1569201883071181,-0.6816730012876605
1729576650.741689,-3.4782908163095723,0.4614440569092504,10.256712024872202,0.022165839322119383,0.1625564200127901,-0.003652717618268969,0.9864434821791731,0.9605561195483965,0.005608580200168273,-0.7363594580368986
1729576650.7496707,-3.1160023633208995,0.6053509019189878,9.764004478106916,0.030571829982793276,0.1534962950810631,-0.004751270705745559,0.9876647589311724,0.847498240880352,-0.18308709880026888,-0.7210683551412319
1729576650.7576632,-2.8500269978265242,0.5147635062392832,9.270140052586806,0.02741269698515904,0.1483120722010477,-0.004112716055409286,0.9885520516644931,0.7281550162426196,-0.40059857125872894,-0.6616622661513121
1729576650.765781,-2.4843010155904457,0.2535520453939606,9.158653765438801,0.013712098001566335,0.1319916711963072,-0.0018260352946579375,0.991154298128351,0.562045887815409,-0.5685661801424637,-0.634958104048063
