Time,Accel_x,Accel_y,Accel_z,Orientation_x,Orientation_y,Orientation_z,Orientation_w,Gyro_x,Gyro_y,Gyro_z
1729497806.303118,-2.726889507891119,-0.13678239391277963,9.487051295635345,-0.007134935007915643,0.13947024819685194,0.00100495971462221,0.9902000467715164,-0.006078595433718678,0.01764826777917548,0.0002614894333001553
1729497806.3111334,-2.7310021239241244,-0.13976969635743342,9.48177316507652,-0.007294499658224389,0.13974092030772098,0.0010294693564687949,0.9901606968866878,-0.005349917506079333,0.017825691712359825,0.0001568936599800932
1729497806.319581,-2.738018676698225,-0.14228033832227255,9.473817883420912,-0.007431244111796133,0.14018920595236486,0.0010522009078846235,0.9900962862361649,-0.005338400810957758,0.018357836133732465,9.413619598805591e-05
1729497806.3271592,-2.7405526672005753,-0.1492933873195354,9.47000239509161,-0.0078004045203220185,0.14036270264607048,0.0011058684533281863,0.990068806927162,-0.006182870916808875,0.019528502909480112,5.648171759283355e-05
1729497806.3351595,-2.75715653196097,-0.15038875455968997,9.476571648236606,-0.007851345957832564,0.14107070793572124,0.001118819198551297,0.9899677570369481,-0.006689552980319546,0.02065659303639073,3.388903055570013e-05
1729497806.3431137,-2.7640063886590034,-0.14937003374167335,9.478118998463447,-0.007796536998708713,0.14137903759782017,0.0011134861498944546,0.9899242101733526,-0.006567872156963917,0.021333447112537103,2.0333418333420076e-05
1729497806.3511143,-2.7736229664961836,-0.15426546506922276,9.477371467437445,-0.008052070877208205,0.14185080140527068,0.0011538994470719833,0.9898546271101312,-0.00394072329417835,0.021313869496762894,1.2200051000052045e-05
1729497806.3591413,-2.771970888052007,-0.1677372111704399,9.476683528655826,-0.008755818271526673,0.1417769390911676,0.0012540907066442852,0.9898591124219824,-0.0023644339765070102,0.02130212292729837,7.320030600031226e-06
1729497806.3671517,-2.787739052606595,-0.1655251916924983,9.483213950201309,-0.008633558018756945,0.14244353358290257,0.0012425122506730007,0.9897644960189571,-0.0014186603859042061,0.022146455108543718,4.392018360018736e-06
1729497806.3752134,-2.798636472335441,-0.17209884548424897,9.469893951175473,-0.008987997870459464,0.14315345779381092,0.001300107598734671,0.9896588367393018,-0.0008511962315425237,0.02307874447875296,2.6352110160112413e-06
1729497806.383498,-2.79583753769814,-0.15952304630422126,9.461423111427939,-0.008338833795290001,0.14314315741077735,0.001206110792690025,0.9896661283656037,-0.0005107177389255141,0.0236381181008785,1.5811266096067448e-06
1729497806.3912072,-2.7984677399040403,-0.16083611293878275,9.462804952061841,-0.008406093419087136,0.1432496004791227,0.0012167628431497023,0.9896501447704562,-0.0003064306433553085,0.022696672089767733,-0.0017018115698823623
1729497806.399273,-2.7962151385713305,-0.15946917142537903,9.463634056442183,-0.00833408791109209,0.14312992696662194,0.0012053105629243716,0.9896680828498343,-0.00018385838601318508,0.02170611442163924,-0.0027238471877775437
1729497806.4072394,-2.788399233289283,-0.15146640153686802,9.47059586355281,-0.00791068590476264,0.1426577861579064,0.001140219818497578,0.9897398026733121,-0.00011031503160791105,0.021111779820762143,-0.0037627586199766843
1729497806.4151852,-2.7952018580888045,-0.1461858992717302,9.475012367985201,-0.007631082832488939,0.14292367275118667,0.0011020090220684347,0.9897036808652531,-6.618901896474663e-05,0.020329488998773855,-0.0022576551719860104
1729497806.423254,-2.790664306991954,-0.14636948023686625,9.481014152968855,-0.007636180463273477,0.14262073050558524,0.0011003592405854589,0.9897473441174405,-3.9713411378847976e-05,0.020285804567042914,-0.0013545931031916062
1729497806.431271,-2.78435047384361,-0.1402547044995416,9.467137551839906,-0.0073280641819151665,0.14251508801563878,0.0010551593312822243,0.9897649396710444,-2.3828046827308784e-05,0.02068528396946638,-0.0008127558619149636
1729497806.4392169,-2.794687963749525,-0.1466414860298031,9.466712456641053,-0.0076614624341120666,0.14301652830238604,0.0011071302423179606,0.9896900266691233,-1.429682809638527e-05,0.02092497161092046,-0.00048765351714897816
1729497806.4472094,-2.808312482839559,-0.13874196681319437,9.471245802842052,-0.007244686486381405,0.14360886000011788,0.0010513271374955567,0.9896074497286439,-8.578096857831161e-06,0.02149447425725494,-0.0002925921102893869
1729497806.4551978,-2.8128958918033447,-0.14884630557619785,9.477796533218902,-0.007766690998211785,0.14373283846848992,0.0011280770059397174,0.9895854066724095,-5.146858114698696e-06,0.021410485783593596,-0.00017555526617363214
1729497806.463214,-2.816364197679663,-0.14628978285743746,9.465925240487982,-0.007642494382066551,0.14406926641798568,0.001112690115108062,0.9895374680496496,-3.088114868819218e-06,0.0188059523306246,0.001597427086143947
1729497806.4712472,-2.83233155083436,-0.15169905404063436,9.466703330327945,-0.0079234611964506,0.1448228004491986,0.0011597620896451233,0.9894252019150388,-1.8528689212915306e-06,0.01681754219738117,0.0026612164975344946
1729497806.4792354,-2.833771677082647,-0.1503956335962556,9.474113369046377,-0.007849296538151213,0.1447859817482655,0.0011486075146791368,0.989431194542513,-1.1117213527749183e-06,0.015624496117435115,0.003299490144368823
1729497806.487243,-2.8336780721675567,-0.142191556183144,9.480714173771576,-0.007416137372081692,0.14468926296067727,0.0010844780421329992,0.9894487566305546,-6.67032811664951e-07,0.01576004859239154,0.00368245433246942
1729497806.4952574,-2.834579589882565,-0.13487490807512076,9.469830606313726,-0.007042455255900434,0.14489035798260783,0.0010312927578532598,0.9894221164007241,-4.002196869989706e-07,0.01626707013882743,0.003912232845329778
1729497806.5033185,-2.821952391380711,-0.14532896950327556,9.466173507831206,-0.007591799864042286,0.14433424049815596,0.001107385041117086,0.9894992497687987,-2.401318121993823e-07,0.016571283066688963,0.004475790014508025
1729497806.511272,-2.8150943327776448,-0.15231966685821535,9.469007072228019,-0.007954989126937742,0.14396259459533,0.0011573142545082205,0.9895504788180779,-1.440790873196294e-07,0.01632812076194385,0.0048139243160149735
1729497806.519224,-2.805712253963462,-0.15483814410906982,9.476932135182514,-0.008080429080209695,0.14339868056688732,0.0011708631713234566,0.9896313223402893,-8.644745239177764e-08,0.01575653331763475,0.005442494958381174
1729497806.5272114,-2.807265611655421,-0.15826459178770752,9.468758483990369,-0.008266093373755171,0.1435884737776491,0.0011993866724947626,0.9896022349258067,-5.186847143506658e-08,0.01456220072812523,0.006245327405262926
1729497806.5352178,-2.814661970753018,-0.1543349562444995,9.464572553773126,-0.008063941704726262,0.1440045336327442,0.001173515053280034,0.9895434755481026,-3.1121082861039945e-08,0.013845601174419516,0.0063013368119299445
1729497806.543205,-2.813593122393217,-0.1529348555826372,9.470201281287313,-0.00798621387041648,0.14387332065873717,0.0011611214942155662,0.9895632065651591,-1.8672649716623965e-08,0.01341564144219609,0.005909252394468125
1729497806.5511932,-2.819416157859758,-0.13892668605466044,9.476930400120043,-0.007249477239247741,0.14406065074837476,0.0010554020753618686,0.9895417424809182,-1.1203589829974379e-08,0.012306285479937971,0.0035455514366808747
1729497806.5592055,-2.8126149120010115,-0.13818322965037438,9.474024686605228,-0.007213214802858324,0.14377597404579237,0.0010480036000751777,0.9895834176601009,-6.722153897984627e-09,0.0116406719025831,0.0021273308620085246
1729497806.5672307,-2.8090130048177944,-0.14324381962616212,9.473717779492434,-0.007477771465332747,0.14360610518221006,0.0010851324159757512,0.9896060791931041,-4.0332923387907764e-09,0.011241303756170176,0.0012763985172051147
1729497806.5752432,-2.81092200333013,-0.1446042324495254,9.473054794892725,-0.007549188537411625,0.14370680562186325,0.0010962810619853246,0.9895909063538426,-2.419975403274466e-09,0.011001682868322423,0.0007658391103230688
1729497806.5832105,-2.805842478121125,-0.13847729532909023,9.469065701642666,-0.007232629819752862,0.14352133385804514,0.0010489242631914876,0.9896202380465893,-1.4519852419646794e-09,0.011709290458537833,0.00045950346619384123
1729497806.591333,-2.798245779841425,-0.14078663720721976,9.47600963216724,-0.007348359725662812,0.14305721780462302,0.0010621907280617081,0.989686569472477,-8.711911451788076e-10,0.011282474889743016,0.00027570207971630475
1729497806.599269,-2.796800223031808,-0.15318556997081623,9.484006713138236,-0.007988885649163918,0.14287109368287376,0.0011532496247477816,0.9897083905430161,-5.227146871072845e-10,0.010600695487004094,0.00016542124782978283
1729497806.607207,-2.8000030317683033,-0.14985102215827098,9.473721491261847,-0.007823140869529883,0.14317157814952494,0.0011317465355564582,0.9896663158999043,-3.136288122643707e-10,0.010191627845360741,9.92527486978697e-05
1729497806.6152554,-2.799291095184029,-0.14330131031644697,9.467310937969998,-0.007486264110822997,0.14323021724849422,0.0010834616972818182,0.9896604906872674,-1.881772873586224e-10,0.00994618726037473,5.955164921872182e-05
1729497806.6232646,-2.79359668958112,-0.13338597906096195,9.470407790809341,-0.006966410150487117,0.14291518167794073,0.0010059571609686293,0.9897099110475588,-0.0017027603587544988,0.009798922909383122,0.0017384912353793594
1729497806.6312544,-2.7925742478795317,-0.1300704021338428,9.464843877366464,-0.006797232193695087,0.1429457511789001,0.000981740817591533,0.9897066969761152,-0.0010216562152526993,0.01013625436025019,0.0010430947412276156
1729497806.6392307,-2.777595572897641,-0.14100974494241506,9.461505529300737,-0.007372166881528423,0.14226940294317894,0.001059642181575647,0.989799952162107,-0.0006129937291516196,0.01033865323077043,0.0006258568447365694
1729497806.647198,-2.769566048572569,-0.13871480448498028,9.45902368012927,-0.007254492462457571,0.14191827017286893,0.0010401007447411346,0.9898512489867826,-0.0003677962374909717,0.010460092553082573,0.0003755141068419416
1729497806.655205,-2.7781558632744003,-0.1390137813726288,9.461844133614672,-0.007267547444042441,0.14229212415112924,0.0010447740964452793,0.9897974755503247,-0.000220677742494583,0.010958646207931891,0.00022530846410516496
1729497806.663235,-2.7847462730915935,-0.13392592385287416,9.463296985539897,-0.00700020716050737,0.142590122425899,0.001008490816815638,0.9897565544276782,-0.0001324066454967498,0.010832088339379452,0.00013518507846309896
1729497806.6712034,-2.7822361744994875,-0.13470393199727135,9.464647537027064,-0.007040012171468832,0.14245001795556061,0.0010132084562228354,0.9897764414359994,-7.944398729804988e-05,0.010756153618247988,8.111104707785937e-05
1729497806.6792214,-2.78312431700438,-0.12894581256750345,9.468809750243581,-0.006736172661756897,0.14243533392586782,0.0009693753270829875,0.9897807130565703,-4.766639237882993e-05,0.01071059278556911,4.866662824671562e-05
1729497806.6871982,-2.7925157486498935,-0.1343494870522208,9.47250417900357,-0.0070152589646773796,0.14283327827912157,0.0010124187000664763,0.9897213828982747,-2.8599835427297957e-05,0.011108946347423813,2.919997694802937e-05
1729497806.6952653,-2.78785554049853,-0.1469290782176606,9.466580550615033,-0.007676974316194898,0.14268976204420042,0.0011067844883544543,0.989737071600945,-1.7159901256378775e-05,0.011773648545998668,1.751998616881762e-05
1729497806.7031927,-2.788650718097946,-0.1487307489325495,9.465181155076051,-0.007772173944159023,0.14274732670783877,0.0011209716608469704,0.9897280118560264,-1.0295940753827265e-05,0.013023849988067642,0.0021389622990114487
1729497806.7111874,-2.7963104296380643,-0.15005117152749844,9.455961811942114,-0.00784820815040719,0.14324633091675468,0.0011359783825313791,0.9896552954745556,-0.002134627871762455,0.013348280791846995,0.003837517748179059
1729497806.719197,-2.787738147431276,-0.15299820657860844,9.467668458014877,-0.007993131340934772,0.14266698973118563,0.0011521798875978966,0.9897377998105937,-0.002983536968905599,0.012691559151190544,0.004856651017679625
1729497806.7271924,-2.7924110049138435,-0.15668178893739945,9.477086647318693,-0.00817728924366334,0.14275722277392927,0.0011794884070484243,0.9897232522748962,-0.003492882427191486,0.011871836105334644,0.005042440917917933
1729497806.7351964,-2.794735879071353,-0.15673715685853343,9.468851191272075,-0.008187006687409357,0.14298558837213995,0.0011828185892636207,0.9896902017194866,-0.0037984897021630178,0.01095431221635907,0.004728224796598886
1729497806.7433064,-2.7865539969252335,-0.15916457927137007,9.45983977482184,-0.008322029558587967,0.14271908322575402,0.0012000398122300614,0.9897275215995943,-0.0022790938212978104,0.010403797882973726,0.004539695123807458
1729497806.751204,-2.7861938507918587,-0.15966335205500953,9.463052050928258,-0.008345349410316031,0.14265609217891081,0.0012028606111756702,0.9897364031063078,-0.0013674562927786862,0.010924869405866584,0.0027238170742844747
1729497806.7592106,-2.7926815277602715,-0.15230117041269323,9.47264086190461,-0.007952344490715189,0.14283443927356537,0.0011476736582332512,0.9897139819259305,-0.0008204737756672117,0.01166320238106433,0.0016342902445706847
1729497806.7672362,-2.7922645709530376,-0.15243284458160028,9.47097212334394,-0.007960616245050374,0.14283799915769774,0.0011488967374042773,0.9897134002436824,-0.000492284265400327,0.01295758228910704,0.0009805741467424109
1729497806.775246,-2.781719329730026,-0.15035706758880393,9.47954768684816,-0.007845878029271393,0.14221054132192773,0.0011272593146842938,0.989804694584397,-0.0002953705592401962,0.012882830111008603,0.0005883444880454465
1729497806.7832427,-2.7844901513048126,-0.1527029038833605,9.48541128544874,-0.007963278892351317,0.14226034121246608,0.0011445369627127928,0.9897965808905062,-0.0001772223355441177,0.01241228874268751,0.0003530066928272679
1729497806.7912433,-2.783040182091481,-0.1579411283163444,9.47240945315401,-0.008247552416967549,0.14237256945456245,0.0011863520403857242,0.9897780670003106,-0.00010633340132647062,0.012555653983156886,0.00021180401569636072
1729497806.799274,-2.7898316458759824,-0.15868986131597854,9.467960236101389,-0.008290045100053295,0.14276185466258678,0.0011957930209438791,0.9897216265620291,-6.380004079588237e-05,0.012215983065976477,0.00012708240941781642
1729497806.8072662,-2.7840902973400428,-0.15674489945560274,9.460741722715522,-0.008194923022916932,0.14258844861416897,0.0011806055967818795,0.9897474343128543,-3.828002447752942e-05,0.012012180515668235,7.624944565068985e-05
1729497806.815254,-2.769392740415744,-0.1519866198491429,9.462396118834391,-0.007945690262671624,0.14185873092376286,0.0011387185564365517,0.9898543679688434,-2.2968014686517652e-05,0.011889898985483288,4.574966739041391e-05
1729497806.8232088,-2.7821220212025715,-0.15822961839386074,9.471289621984228,-0.008263626319496188,0.14234414282215804,0.0011884220792764228,0.9897820190007688,-1.3780808811910591e-05,0.01181653006737232,2.7449800434248343e-05
1729497806.8312547,-2.7823375645281834,-0.15910237552850395,9.469921959225692,-0.008310359502046453,0.14237356689362926,0.0011953955906246455,0.9897773872969183,-8.268485287146354e-06,0.01219819877796777,1.6469880260549007e-05
1729497806.839266,-2.8004234029747224,-0.14980980300264923,9.461918756590103,-0.007830518593379254,0.14335948741160753,0.001134331885164261,0.9896390521997473,-4.961091172287812e-06,0.012852890065787072,0.0017126421740044557
1729497806.8472517,-2.7954731750856148,-0.14614962081526142,9.4640600198232,-0.007637820615766907,0.14309206724906523,0.0011043087877894162,0.989679293755675,-2.9766547033726872e-06,0.012820014777016622,0.0031560356117128316
1729497806.8552012,-2.803037525656838,-0.13461612502821935,9.470612021415405,-0.007030012871660518,0.14336561079276602,0.001018408419816394,0.9896443014565041,-1.7859928220236122e-06,0.012800289603754351,0.004022071674337857
1729497806.8633916,-2.7927320857066023,-0.12841428805404098,9.455389609089476,-0.006717262193562501,0.14308799742827966,0.0009711756229721275,0.9896866980001787,-1.0715956932141674e-06,0.013214144561259022,0.0053930734348369355
1729497806.8712726,-2.807857216511852,-0.13426999251015895,9.452720506176343,-0.007024685788085307,0.14385228116444498,0.0010211640249188551,0.9895737123718467,-6.429574159285004e-07,0.013036767474299793,0.0053642943682123195
1729497806.8792372,-2.8126227320067207,-0.14089587734203288,9.450400783930414,-0.007372793453643143,0.14411288205842276,0.0010737532674560601,0.9895332062116085,-3.857744495571002e-07,0.012930341222124254,0.004921336866775518
1729497806.8872836,-2.81284841947747,-0.1494203913954541,9.449008950582858,-0.007819899350563415,0.14414128069761156,0.001139101755166892,0.9895255645106855,-2.3146466973426012e-07,0.012866485470818933,0.004655562365913437
1729497806.8953516,-2.8089136891376536,-0.1444794528548506,9.459905438709091,-0.007553052634733851,0.14379779285739566,0.0010975513535952531,0.9895776581685061,-1.3887880184055606e-07,0.012402481958573706,0.002793337419548062
1729497806.9032638,-2.799609666119311,-0.14366967122462912,9.463570289592642,-0.007508392205143116,0.14329859236186665,0.0010871940346136757,0.9896504208470446,-8.332728110433363e-08,0.01169838978976454,0.001676002451728837
1729497806.9112785,-2.7992944959606487,-0.14725394506876183,9.461699057300507,-0.007697187258559994,0.14330905558479315,0.00111461578030399,0.9896474248576428,-4.9996368662600177e-08,0.011701624549941073,0.0010056014710373021
1729497806.919225,-2.7988659736994363,-0.15778421518578836,9.456745595268975,-0.008251768797351042,0.14335586009218196,0.0011953276901309497,0.9896360830530883,-2.9997821197560106e-08,0.01170356540604699,0.0006033608826223813
1729497806.9272118,-2.788074373038021,-0.15620151177748864,9.460716702864511,-0.008166302288507806,0.14278070848450802,0.0011781013593312613,0.9897199567901931,-1.7998692718536063e-08,0.011704729919710541,0.0003620165295734287
1729497806.9352002,-2.7871060764595312,-0.1523788477403213,9.465493569081987,-0.007962608438878306,0.14266755892172828,0.0011477845089474183,0.9897379689033281,-1.0799215631121637e-08,0.012131118689370703,0.0019199701635921836
1729497806.943226,-2.776230031373766,-0.13811424101723965,9.47673939462302,-0.007209511003643153,0.1419895253260746,0.0010341809115119696,0.9898413651280727,-6.479529378672982e-09,0.012386951951166802,0.0032804324054654683
1729497806.9512157,-2.7735351269785564,-0.13027373748143756,9.479416747125375,-0.006798549465231221,0.1418242139686107,0.0009740681602457918,0.9898680332491668,-3.887717627203789e-09,0.011689071785320398,0.004522399812051471
1729497806.9592516,-2.774312386001587,-0.1305972588462844,9.486290402279131,-0.006810553955039826,0.14176486125258594,0.0009753714567944289,0.9898764514419877,-2.3326305763222732e-09,0.010844653624350522,0.005267580256003072
1729497806.9672816,-2.7692720775970456,-0.13988933797378625,9.475091704746383,-0.0073037693159800675,0.14167752404132655,0.0010453533171862167,0.9898853677935342,-1.3995783457933638e-09,0.01076369278923063,0.005714688522374033
1729497806.9752178,-2.775824699194946,-0.15121066943466235,9.485610738179862,-0.007885809743613352,0.14184164541137861,0.0011299974486360356,0.9898573052402282,-8.397470074760183e-10,0.011140806349620726,0.006408643543658641
1729497806.9832735,-2.7929243812845455,-0.1565669473150943,9.48306361209737,-0.008166222082562541,0.14269738054250877,0.0011773879479093218,0.9897319759211707,-5.03848204485611e-10,0.013069834731702909,0.007250706617891437
1729497806.9912467,-2.792649703233618,-0.1506827477347597,9.475310412131467,-0.007865685743747432,0.14279557314636834,0.0011348510349270286,0.9897202975541672,-3.0230892269136655e-10,0.013801561699490188,0.007330254400969084
1729497806.9992776,-2.797273299723374,-0.14882816914866834,9.468982550989818,-0.007773714938058917,0.14310797315715082,0.001124085747149024,0.9896759135222738,-1.8138535361481994e-10,0.013389217757238493,0.0043981526405814505
1729497807.0072033,-2.788315869482462,-0.15034904382318537,9.474523220779437,-0.007849156840602698,0.14259854129959834,0.00113087105510984,0.9897488408110288,-1.0883121216889196e-10,0.013141811391887475,0.00263889158434887
1729497807.0159366,-2.788208654990258,-0.16059895510250496,9.47281979916688,-0.008385640654994588,0.1426144664828873,0.0012083084298288864,0.9897420547654551,-6.529872730133517e-11,0.012993367572676865,0.001583334950609322
1729497807.0232759,-2.791496208619155,-0.1550173137353311,9.473713107527471,-0.008093312333862918,0.14276150362814222,0.0011674105198211607,0.9897233393883246,-3.91792363808011e-11,0.012904301281150499,0.0009500009703655931
1729497807.0312624,-2.8020878667730553,-0.15597789190330802,9.490769083998904,-0.008128490930191759,0.14302825966197139,0.001174721720654564,0.9896845278179024,-2.350754182848066e-11,0.012425171444772646,0.0005700005822193558
1729497807.039193,-2.8079640213333645,-0.1613426421244067,9.484722098592702,-0.008412893908241752,0.14339415558698795,0.0012190019046172558,0.9896291494261574,-1.4104525097088395e-11,0.012563383604407967,0.00034200034933161346
1729497807.0477793,-2.8045465292550964,-0.156181786446519,9.472474781372417,-0.008154360290684873,0.14340565310133993,0.0011816352840429052,0.9896296927663819,-8.462715058253037e-12,0.013497691023113222,0.00020520020959896806
1729497807.0552278,-2.8082421179925108,-0.14231136556908328,9.469914794360559,-0.007432065943224624,0.1436234735099819,0.0010786326885646696,0.9896039100591035,-5.077629034951822e-12,0.014058275474336374,0.00012312012575938083
1729497807.0632064,-2.792981799115819,-0.14739664233949684,9.47580082729993,-0.0076937719624043666,0.14280551261919686,0.001110124863090748,0.9897202428269047,-3.046577420971093e-12,0.014394626145070265,7.38720754556285e-05
1729497807.0712645,-2.7795160448015226,-0.14422288408533873,9.48100838822566,-0.0075248264463180755,0.14208575744791505,0.001080161131760669,0.989825160202212,-1.827946452582656e-12,0.013745056424586538,0.0017470834911215035
1729497807.079194,-2.783886440845758,-0.14710703245315637,9.474556118140475,-0.007680156036389583,0.14238606113055743,0.0011048377403059177,0.9897807858978418,-1.0967678715495936e-12,0.01292962453083427,0.001048250094672902
1729497807.0872686,-2.7848327373101887,-0.13854245433517506,9.470205915757333,-0.007236293413481251,0.14249534433449212,0.001041797300226049,0.9897684716937662,-6.580607229297561e-13,0.012866055456044941,0.0006289500568037412
1729497807.095212,-2.776302548880254,-0.13867095111673006,9.471187096817681,-0.007242719689333671,0.1420711157254673,0.0010395541464114709,0.9898294097546301,-3.9483643375785366e-13,0.013253604072633375,0.0003773700340822447
1729497807.103231,-2.7893803684394802,-0.14976137682238175,9.468423923129672,-0.007823354462647127,0.1427361949454699,0.0011282640152204826,0.9897292057920452,-2.369018602547122e-13,0.013486133242586438,0.0002264220204493468
1729497807.1111987,-2.80249430382736,-0.14851476676725717,9.467484279414911,-0.007758252847301054,0.14338023785244539,0.0011240288690175409,0.9896366269824673,-1.421411161528273e-13,0.013199960683096241,0.00013585321226960807
1729497807.1192467,-2.80916556423001,-0.1338804311052762,9.45901962770754,-0.006999673142360615,0.14382535545550135,0.0010173333216723156,0.9895778073183085,-8.528466969169638e-14,0.01260256708594009,8.151192736176484e-05
1729497807.1272516,-2.8172384632938656,-0.12701519103621256,9.460405181165541,-0.006639438256697721,0.14419517536227267,0.0009675081411881964,0.989526519700142,-5.117080181501783e-14,0.01181844086618437,4.89071564170589e-05
1729497807.1351962,-2.8125053960915536,-0.1315151729713369,9.462433614070417,-0.0068734295493957775,0.14393771481098486,0.0009997810839867212,0.9895623733039799,-3.0702481089010697e-14,0.01177365519579297,2.934429385023534e-05
1729497807.1432421,-2.8163693204186044,-0.13158154030623964,9.460059371323108,-0.006878391300738926,0.14415723966606953,0.0010020611017461064,0.9895303804626322,-1.842148865340642e-14,0.012172473855020162,0.0017203668221582675
1729497807.151194,-2.813420431362491,-0.13329730186929067,9.444269615713788,-0.006979627033367962,0.1442410423034353,0.0010174137753606205,0.9895174437021832,-1.1052893192043851e-14,0.012837455112018508,0.0010322200932949604
1729497807.1591866,-2.809735736600697,-0.1403122629575119,9.46735690492632,-0.007329539666445733,0.14373217520953382,0.0010645740582714762,0.989588907749015,-6.63173591522631e-15,0.013662133927679548,0.0023220923018251027
1729497807.167249,-2.7917231887865905,-0.1354232733018509,9.480730438121807,-0.00706535140780085,0.14267850928880552,0.0010185204203452406,0.9897433437072268,-3.979041549135786e-15,0.01373125115561414,0.004373085811329283
1729497807.1752539,-2.780915660098126,-0.13105335851236052,9.476544129572302,-0.006840893061525944,0.14221938090497785,0.0009829225400347765,0.9898110343597943,-0.0017027602458505138,0.013772721492374896,0.006029371978493823
1729497807.1832464,-2.7765859243791877,-0.1427966195996038,9.469962201620334,-0.007459095810991498,0.14210093080668107,0.0010708418913146142,0.9898234896440885,-0.0027244163933584347,0.01422329375589338,0.0061717635558684834
1729497807.1912725,-2.7780582257700908,-0.15558866023632478,9.464097683521027,-0.008132017786091083,0.14225096758603725,0.0011687123220836936,0.989796527887965,-0.0016346498360150607,0.01406794705254244,0.00625719850229328
1729497807.1992671,-2.7712801612921325,-0.1565601199699199,9.462494333989568,-0.008184544888724585,0.14194693150562665,0.0011736960941054872,0.9898397366738618,-0.0009807899016090365,0.01312335890760781,0.007159839593072221
1729497807.2071903,-2.7679315831034046,-0.15714299581007693,9.473742752737492,-0.008205654383284569,0.1416271648836446,0.0011740183336972475,0.9898853646175981,-0.0005884739409654218,0.012982296082109065,0.00855280437046365
1729497807.2152607,-2.767837797518293,-0.14839475500557742,9.468760215851479,-0.007752925166265093,0.14169523538899564,0.0011097842986376141,0.9898793465863575,-0.0003530843645792531,0.013323348448271849,0.009388583236898507
1729497807.2231872,-2.7804707949660536,-0.15703218015178394,9.471277357538229,-0.008201211268673961,0.14226525102719206,0.0011787781164354656,0.989793892164449,-0.0019146108645956782,0.013527979867969522,0.009464360495297388
1729497807.2312882,-2.784698711110492,-0.16293289573755473,9.47997024753075,-0.008501413514976993,0.14234405191058683,0.0012226208605091262,0.9897799765867943,-0.0032772168260675654,0.013650758719788124,0.009509826850336717
1729497807.2392282,-2.7886719817932484,-0.18442983754018907,9.485664821858293,-0.009616839601456215,0.142447519790552,0.0013840752585831315,0.9897546690151448,-0.001966330095640539,0.01542718627672741,0.009537106663360315
1729497807.247195,-2.7881829022107145,-0.16931584319794157,9.48525084379857,-0.008829341491384122,0.14243491042560186,0.0012706124866758849,0.9897639741699977,-0.0011797980573843233,0.016918732872353015,0.00870209442825041
1729497807.2551806,-2.7847769923029912,-0.16527527007892118,9.48093231414047,-0.008622743550669786,0.14233351605764144,0.0012399774557225105,0.9897804205763204,-0.000707878834430594,0.017387970768266345,0.007775397025722435
1729497807.2631967,-2.778902723702107,-0.1508799179067277,9.47714409551553,-0.00787527373269747,0.14210887463610947,0.0011306574444134732,0.9898190589330137,-0.00042472730065835635,0.018095203567276376,0.006367998461281587
1729497807.2712321,-2.7760964230396237,-0.15110125274598973,9.478223046664787,-0.007886105926351292,0.14195867509495558,0.0011309914282034935,0.9898405249114589,-0.0002548363803950138,0.018945233308144425,0.003820799076768952
1729497807.2792263,-2.768905978823774,-0.1526705746456407,9.4843770811727,-0.007963345638799657,0.141525980914944,0.0011385172130161032,0.989901856565011,-0.0001529018282370083,0.019880941214127288,0.002292479446061371
1729497807.287188,-2.7691406954485616,-0.15289390728738442,9.4919002245337,-0.007968786102127331,0.14143170178115258,0.0011385206330876555,0.9899152872595279,-9.174109694220497e-05,0.02001667589625497,0.0013754876676368227
1729497807.2952719,-2.765690222933199,-0.1506337052122744,9.484682522415532,-0.0078570568082822,0.14136764058242776,0.0011220377206202308,0.9899253496531051,-5.504465816532298e-05,0.020098116705531584,0.0008252926005820935
1729497807.3032036,-2.7708025444044506,-0.14712280247306778,9.466226111349709,-0.007688333392638673,0.14187402859427897,0.0011019549920107245,0.9898542494909384,-3.302679489919379e-05,0.02014698119109755,0.0004951755603492561
1729497807.3112347,-2.7681238533028263,-0.13974901717720004,9.471672256165295,-0.00729908581179662,0.14167038335244322,0.001044629220959262,0.9898864250897043,-1.9816076939516273e-05,0.02060198994389916,0.0002971053362095536
1729497807.3192368,-2.7765722856145083,-0.13101518301139814,9.465123716248005,-0.006847200683207006,0.1421715959301877,0.0009834915019538359,0.989817854909646,-1.1889646163709764e-05,0.02172637531850419,0.00017826320172573216
1729497807.3272567,-2.774698160187064,-0.13080270599824514,9.452814886487085,-0.006844911034003085,0.14225531382033668,0.0009837535057586676,0.9898058421285733,-7.133787698225858e-06,0.023678076727653305,0.0022354082283455976
1729497807.3352365,-2.7754890462587225,-0.1330694214505096,9.458837117927407,-0.006959128110274865,0.14220771618242728,0.0009998280946246778,0.9898118691639862,-4.280272618935515e-06,0.025274787634604806,0.003044005182855485
1729497807.3431923,-2.788892266866562,-0.1270074255753839,9.45861973413535,-0.006641644975629268,0.142857655953617,0.0009586644279842261,0.9897204957208728,-2.5681635713613086e-06,0.026232814178775706,0.0018264031097132909
1729497807.351258,-2.798131300061343,-0.11642704323585533,9.468784370998788,-0.00608161179803921,0.14316017792718927,0.0008797229676065624,0.9896804552689185,-1.5408981428167852e-06,0.026381940043816214,0.0010958418658279744
1729497807.3592565,-2.7988863166578994,-0.11414895665440382,9.469855329630523,-0.005961934374325326,0.1431817527373188,0.0008625433187285294,0.9896780774780296,-9.245388856900711e-07,0.026471415562840515,0.0006575051194967846
1729497807.3672526,-2.80388830977013,-0.11493688619967353,9.474328627465813,-0.006000087030197695,0.14335831880697597,0.0008691561737850074,0.9896522803247679,-5.547233314140426e-07,0.025673720751331036,0.00039450307169807075
1729497807.3752613,-2.804255883811297,-0.12474703040144473,9.466717539028314,-0.006517256407306519,0.14348196405061048,0.0009449064644527455,0.9896310213978107,-3.3283399884842557e-07,0.025195103864425347,-0.001466058402829284
1729497807.3832471,-2.812616713880528,-0.12177457077992933,9.465981608622068,-0.00636207559951206,0.14389478259098892,0.0009251164988643203,0.9895721093970977,-1.9970039930905534e-07,0.025333623793743966,-0.0030080853490077287
1729497807.3912473,-2.812126548103707,-0.11807573367889508,9.470567873864645,-0.00616595037308924,0.14380669244818636,0.0008960360848582157,0.989586182897904,-1.198202395854332e-07,0.025416735751335136,-0.003933301516714795
1729497807.3992171,-2.8156631712938647,-0.1249543977268683,9.472601372512147,-0.006523570442268136,0.14394586255586764,0.0009489445328700661,0.9895636064377092,-7.189214375125991e-08,0.025466602925889842,-0.002359980910028877
1729497807.4072378,-2.824728330022413,-0.12118073067713658,9.465202345724084,-0.006330998416879685,0.14448752594324737,0.0009244702367178502,0.9894859365653593,-0.001702803381134377,0.025922213292084696,-0.0014159885460173262
1729497807.415267,-2.8191540976228224,-0.14357680754690694,9.456692786828981,-0.007507801132145879,0.14433603018025543,0.0010951456306236148,0.9894996432389515,-0.0027244422745287527,0.025769889450339575,-0.0008495931276103957
1729497807.4231973,-2.8146124573529905,-0.14264924370783166,9.459009076638404,-0.007457767837340989,0.14408494543479702,0.0010859144021907836,0.9895366243792328,-0.00376311567202741,0.02525280508383047,-0.0005097558765662374
1729497807.4312217,-2.8190700781715594,-0.14424748689852712,9.45872290936195,-0.007541285599827875,0.1443027478881104,0.001099771171441505,0.9895042377204925,-0.004386319710526604,0.02451686440246298,-0.00030585352593974247
1729497807.439228,-2.8133649448521543,-0.1559803402836475,9.459030049328106,-0.008154648775129232,0.1440208968298087,0.0011868539245212455,0.9895403348815316,-0.004334552072164089,0.02450099005510451,-0.00018351211556384548
1729497807.4471953,-2.8197580916671523,-0.16230179181667287,9.479325627253115,-0.008466879361230225,0.14403618344193445,0.0012324338771316139,0.9895354318669455,-0.0026007312432984532,0.024917155508151465,-0.00011010726933830728
1729497807.4551907,-2.8300583242385726,-0.16848886439664434,9.476180083383118,-0.008791758374777222,0.14457290516258225,0.0012845970783029763,0.9894542586132402,-0.0015604387459790718,0.025592544841441668,-6.606436160298437e-05
1729497807.4631903,-2.8254645563107217,-0.17124342728056471,9.454420883281825,-0.0089558911611103,0.1446633654920767,0.0013094174166508774,0.9894395323232467,-0.003064713554897601,0.025997778441415792,-3.963861696179062e-05
1729497807.471255,-2.8296514803684643,-0.1831912321495888,9.448787388367533,-0.009585878891207633,0.14494132511365476,0.0014042854986967995,0.9893928194516165,-0.003967278440248719,0.025815228539938236,0.001678977075671052
1729497807.4792423,-2.8211503071663913,-0.19275411673115952,9.44899859390919,-0.0100865451412448,0.1445263390544261,0.001473317228544388,0.9894484464907622,-0.002380367064149231,0.025280008537589667,0.0031358365527127895
1729497807.4871905,-2.8280206115459285,-0.1970553264840082,9.460856905368953,-0.0102983762394061,0.14468464508244253,0.0015059451744197352,0.9894230788966522,-0.003130980484337665,0.024958876536180525,0.004861332361861895
1729497807.4952543,-2.8273543908533387,-0.19388996835134242,9.464380589754574,-0.010129358928531647,0.1446033609481062,0.0014803769443110923,0.9894367451102225,-0.0035813485364507252,0.025617577458259107,0.006322319908813389
1729497807.5032105,-2.8415592885647376,-0.18720235015143047,9.46314291806173,-0.009780301511345292,0.14530486333117298,0.001436441365071797,0.9893375455479596,-0.0038515693677185613,0.02601279801150625,0.007198912436984286
1729497807.5112677,-2.85319468934978,-0.18199267840140515,9.464555096540163,-0.00950598722771845,0.14584394812728838,0.0014014408602713146,0.9892609438186603,-0.004013701866479263,0.02582424028199251,0.0072991778924247925
1729497807.5192802,-2.860415349986821,-0.18533121983381182,9.465162983461207,-0.00967919038770403,0.1461797593457757,0.0014303355326332446,0.9892096569339149,-0.0041109813657356845,0.0248597255213602,0.006933647104227065
1729497807.527256,-2.8611564438788113,-0.18374304220302148,9.462175833289614,-0.00959917909344706,0.14625902432829352,0.0014192967677462312,0.9891987359271911,-0.0024665888194414106,0.02342963654205675,0.006288638569846397
1729497807.5358987,-2.877881671503068,-0.18973332043900037,9.457749921360486,-0.009915329417501069,0.14712167121445674,0.0014748838491831528,0.98906760376591,-0.0014799532916648464,0.022571583154474682,0.0037731831419078377
1729497807.5432796,-2.8862408669155126,-0.1777651765895721,9.442644525570199,-0.009303997160174592,0.14774652008733574,0.001389949726147623,0.9889805202726112,-0.0008879719749989078,0.02248244118338747,0.0022639098851447025
1729497807.5512373,-2.8864679808426668,-0.16388052563147762,9.433581288096025,-0.008585502981335714,0.14789478686440746,0.0012839191807449753,0.9889650007499893,-0.0005327831849993446,0.022428956000735148,0.0013583459310868215
1729497807.5592456,-2.881337005546616,-0.15818335688279284,9.440353774078318,-0.008281604318835371,0.1475515836286018,0.0012355313037269154,0.9890189172412202,-0.00031966991099960677,0.021119794706757657,0.0008150075586520929
1729497807.5674317,-2.860541328083829,-0.1552438959656132,9.437713501019257,-0.008131238509322423,0.14659379333290345,0.001205048666819417,0.9891626208942012,-0.00019180194659976406,0.01990860786890913,0.0004890045351912557
1729497807.575231,-2.868893476049516,-0.15204369841921167,9.438523538843977,-0.007962484519780651,0.14698365989210468,0.0011832451963666186,0.9891061634100758,-0.00011508116795985843,0.01875620570473798,0.0002934027211147534
1729497807.5832398,-2.8624125968601786,-0.14054677325074574,9.427517393570058,-0.007369260775735397,0.14683633029841334,0.0010939635894399653,0.9891327460678772,-6.904870077591506e-05,0.018064764406235292,-0.0015267186131792743
1729497807.5912914,-2.864748993662982,-0.13700050047388496,9.434081815536567,-0.007178332651878147,0.14685379557465186,0.0010657483883629317,0.9891315880336802,-4.1429220465549035e-05,0.017649899627133682,-0.002618791413755691
1729497807.5992713,-2.868066193072789,-0.13367563597769033,9.44520307369694,-0.006995904846012748,0.14685184677462124,0.0010386483162205286,0.9891332132852197,-2.485753227932942e-05,0.01697529069821068,-0.0015712748482534144
1729497807.607193,-2.8583249245839077,-0.12473753246552045,9.44876336643496,-0.006526261765669273,0.14633532129329918,0.0009654367343548919,0.9892130455979969,-1.4914519367597652e-05,0.015719145217932818,-0.0009427649089520486
1729497807.6152496,-2.8673242137835473,-0.12631785517267163,9.461673449548476,-0.006599665341350738,0.14657887577411471,0.0009779564511956586,0.9891764863740738,-8.94871162055859e-06,0.015391147991228132,-0.0005656589453712291
1729497807.6232512,-2.860992199168566,-0.12918141012508735,9.463912835598226,-0.006748013105842207,0.146242559306225,0.0009975955557302016,0.9892252437993057,-5.369226972335154e-06,0.01519434965520532,0.0017890549400874209
1729497807.6312416,-2.8624602340519205,-0.12563229944419305,9.463580526065966,-0.006562796798854717,0.14631853747113607,0.000970727856082603,0.9892152814114399,-3.2215361834010926e-06,0.015076270653591635,0.002776193209900579
1729497807.6392555,-2.8494546853530274,-0.11943269021339083,9.467690703334892,-0.006236934133524711,0.1456377622154159,0.0009181408056125978,0.9893178962734683,-1.9329217100406554e-06,0.015431113314085455,0.0037941662332505056
1729497807.6471927,-2.846439759454004,-0.122416689323347,9.468241448368122,-0.006392523289170272,0.1454846931777864,0.0009400356295607881,0.9893394038599584,-1.1597530260243932e-06,0.015218328848919715,0.00397925998579843
1729497807.6552541,-2.8403212409263086,-0.1232494081252582,9.462346971071653,-0.006440218963400058,0.1452760740727042,0.0009456623595397834,0.9893697446376796,-6.958518156146359e-07,0.014239278046896208,0.0023875559914790577
1729497807.6632495,-2.830425205493285,-0.12207309824429555,9.466471730006274,-0.006376507775978443,0.14474246610767652,0.000932793951802464,0.9894483758888558,-4.1751108936878154e-07,0.014928917750068198,0.0014325335948874346
1729497807.6715302,-2.8311913488819087,-0.11226934600712421,9.473256148355327,-0.0058603172825677065,0.14468417303477424,0.0008569270317356728,0.9894601621241016,-2.5050665362126893e-07,0.015768391633433423,0.0008595201569324607
1729497807.6791902,-2.8232713291045357,-0.12434360711599327,9.469665354052259,-0.00649329263522539,0.14435300279261148,0.0009472683472870276,0.9895044974219106,-1.5030399217276136e-07,0.016272075963452558,0.0005157120941594764
1729497807.6872337,-2.8225894600603776,-0.12871512178912722,9.468229137968464,-0.006722577380083081,0.1443397675528031,0.0009806270703967368,0.9895048644785535,-9.018239530365681e-08,0.016999976622926072,0.00030942725649568583
1729497807.6952648,-2.831517725108492,-0.1382812154074607,9.462579004997876,-0.007225867452879464,0.14484667563214693,0.0010578271140866298,0.9894271617454544,-5.410943718219408e-08,0.01743671701861018,0.001888416599745538
1729497807.7032022,-2.8332833816471266,-0.14928811523080454,9.45823124455146,-0.00780433874921276,0.14499080469406933,0.0011436785617034773,0.989401561980878,-3.246566230931645e-08,0.01684738113309658,0.0032615002671574807
1729497807.711236,-2.8422436410488223,-0.1580470366189515,9.450115924465251,-0.008268531128097768,0.1455351172844484,0.001216355012151615,0.9893177859062627,-1.9479397385589868e-08,0.016919469663250454,0.004085350467604647
1729497807.719314,-2.8423525530374967,-0.16186586845574588,9.450513976065869,-0.008467922435143469,0.14553341935910202,0.0012456740994983455,0.9893163126297463,-0.0021284619949485896,0.016962722781342778,0.005005350649334978
1729497807.7272923,-2.8371506565783577,-0.16511484822188502,9.447640344868038,-0.008640759587956685,0.1453241044787017,0.001269233626578076,0.989345556909823,-0.00297983744281728,0.016988674652198173,0.005557350758373176
1729497807.7352324,-2.8366631405290454,-0.1598816311010998,9.45405645179387,-0.008361426984384098,0.14520991064236974,0.001227213756991051,0.9893647771860561,-0.001787902465690368,0.017855625897635473,0.005462860762334064
1729497807.743206,-2.838764832559615,-0.16847328896339422,9.461976258771633,-0.008803293822227245,0.14519406607346944,0.001291928021449316,0.9893631871648145,-0.0010727414794142209,0.01795010658343582,0.0032777164574004382
1729497807.7511926,-2.838110486449831,-0.17482538451084903,9.465531042128214,-0.009131817844151614,0.1451094893903589,0.001339347264259712,0.9893725547743055,-0.0006436448876485326,0.01800679499491603,0.001966629874440263
1729497807.7592192,-2.835802517455836,-0.18246736449557188,9.465509130648021,-0.009531067513373749,0.1449965192264896,0.0013967982469422163,0.9893852723377861,-0.00038618693258911954,0.01718942791888009,0.0011799779246641578
1729497807.767185,-2.84255802170397,-0.18705255248640562,9.467411345088033,-0.009768093454994593,0.14529138729129065,0.001434512254706313,0.9893396481005994,-0.00023171215955347172,0.01712469773472056,0.0007079867547984946
1729497807.7761495,-2.828415391635663,-0.18549410229262459,9.466876732589927,-0.009688283718088503,0.1446215562317915,0.0014160905716756138,0.9894385970433868,-0.00013902729573208304,0.017511549685686873,0.0004247920528790968
1729497807.783248,-2.844111250362257,-0.17522164570174664,9.454584956790285,-0.009162471666282467,0.14555472319637014,0.001348055984567005,0.9893068555373783,-8.341637743924982e-05,0.018169350917728692,0.0002548752317274581
1729497807.7912714,-2.8530499252661823,-0.170255272577298,9.446252210646437,-0.008909928219507191,0.14610565232793998,0.001315966476374987,0.9892279918043076,-5.004982646354989e-05,0.018564031656953785,0.00015292513903647484
1729497807.7991986,-2.8512305252280687,-0.16512066720848817,9.453462991426923,-0.008634949029622807,0.14591570626912367,0.001273655630986305,0.9892585213788013,-3.002989587812993e-05,0.01880084010048884,0.0017945153292700112
1729497807.8072896,-2.862109893505982,-0.174968592952046,9.455155838069045,-0.009147472138664476,0.14640942709776458,0.001353924455841193,0.989180858235209,-1.8017937526877956e-05,0.01894292516660987,0.002779469443410133
1729497807.815259,-2.8502021616895266,-0.17321590308568072,9.468860814853144,-0.009043842255049877,0.14564152887851273,0.001331411514625568,0.9892951942300002,-1.0810762516126773e-05,0.01945386626774452,0.0016676816660460797
1729497807.823226,-2.8428181024336374,-0.16258748252523658,9.466070473286887,-0.008491956087735366,0.14533137050956582,0.0012474380640048067,0.9893458057352301,-6.486457509676063e-06,0.01976043092842531,0.0010006089996276479
1729497807.8312309,-2.837190566050026,-0.1547739091928763,9.457692503698695,-0.008091280985088592,0.14518443825187233,0.001187348638481981,0.9893708102954722,-3.891874505805638e-06,0.019944369724833787,0.0006003653997765887
1729497807.8392742,-2.824237237579234,-0.1429031602129914,9.465115570578591,-0.007465790648122838,0.14445970585437923,0.0010899703174753665,0.9894819186418576,-2.3351247034833825e-06,0.01920335287975481,0.0003602192398659532
1729497807.8471892,-2.8351400134459777,-0.14104795447740423,9.456161881409654,-0.0073751172059165855,0.14511196912554397,0.001081697663629129,0.9893871608186912,-1.4010748220900294e-06,0.018758742772707424,0.00021613154391957192
1729497807.855184,-2.8402451579699304,-0.14879337717863003,9.456535751892668,-0.007779442376605613,0.14534939896026433,0.0011429102475855797,0.9893491427470713,-8.406448932540176e-07,0.018917666769941024,0.00012967892635174316
1729497807.8631926,-2.8564763538151614,-0.14913106781108426,9.455084133020366,-0.007797322100321928,0.14614862285598276,0.0011519732049060157,0.9892312443322334,-5.043869359524105e-07,0.019864401291205248,7.780735581104589e-05
1729497807.8712394,-2.8650179704922216,-0.15053078302063494,9.469296632155968,-0.007858432728778817,0.14635155670494682,0.0011626496120355303,0.9892007456178779,-3.0263216157144634e-07,0.020432442003963783,4.6684413486627535e-05
1729497807.87915,-2.862960335517989,-0.15065235164831847,9.459149358688112,-0.007873153722234915,0.1463999695926473,0.0011652214760764271,0.9891934616709968,-1.815792969428678e-07,0.020773266431618902,0.001730770893940103
1729497807.887148,-2.8677112586838405,-0.15024645249289734,9.463834902078101,-0.007847862608525998,0.14655963533396804,0.0011627726847220443,0.9891700219390677,-1.0894757816572067e-07,0.02055207102674994,0.002741222782212188
1729497807.8952115,-2.865055148764992,-0.13060987955237902,9.459224202965611,-0.006825722669551997,0.14650468125346386,0.001010932639887294,0.9891859106841631,-6.536854689943239e-08,0.019993663722366533,0.0016447336693273128
1729497807.9031475,-2.8730382894543074,-0.13462966674509927,9.454303002003977,-0.0070389290985976485,0.14695740856996048,0.001045804032031367,0.9891172224956318,-3.922112813965943e-08,0.02008430940119852,0.0009868402015963877
1729497807.9112053,-2.8711244092194597,-0.12961951391424706,9.455659844415276,-0.006776162678064386,0.1468473220151818,0.0010059909835919752,0.9891354485703517,-2.353267688379566e-08,0.020564386869959747,0.0005921041209578326
1729497807.9191542,-2.8529772492914414,-0.13331718686417324,9.45360090786987,-0.0069718723033242,0.14600666657431619,0.0010289927564981242,0.9892585038736587,-1.4119606130277395e-08,0.020852433351216483,0.00035526247257469955
1729497807.9271917,-2.849989818813146,-0.1312262276458477,9.461942352583248,-0.0068567728561025115,0.1457434605152232,0.0010101401837651015,0.9892981390864215,-8.471763678166436e-09,0.02059957117850849,0.00021315748354481972
1729497807.9351828,-2.853704024344528,-0.12398614796446177,9.455215631276511,-0.006482846829694997,0.14602047951386585,0.0009569057009883818,0.9892598630243737,-5.083058206899861e-09,0.021299233997807757,0.00012789449012689182
1729497807.9431448,-2.850186463678982,-0.11629021783141143,9.445912354840125,-0.006086516933356267,0.1459881856437344,0.000898199760470582,0.9892672021255232,-3.0498349241399165e-09,0.02129334162792529,7.673669407613509e-05
1729497807.9511886,-2.8380202803069987,-0.13010801253478435,9.453737918275168,-0.0068047332060472985,0.14528796501142813,0.000999272598496037,0.9893655059092703,-1.8299009544839498e-09,0.020864116144533772,4.604201644568105e-05
1729497807.9591925,-2.8510712843951365,-0.13121608437633936,9.433772979236585,-0.006876220365653509,0.1462030547552115,0.001016269460480965,0.9892301812875057,-1.0979405726903699e-09,0.02018089079303683,2.762520986740863e-05
1729497807.9671805,-2.860098987678098,-0.13259918797931924,9.431610242620076,-0.006949777767570916,0.1466677234914597,0.0010304775690393292,0.989160865375695,-6.587643436142219e-10,0.0201966456436007,1.6575125920445176e-05
1729497807.9751453,-2.863839668485765,-0.13175310897899778,9.44395955011306,-0.00689641113338238,0.1466677851700828,0.0010225646818196404,0.9891612379527684,-3.952586061685331e-10,0.021057478676863084,0.0029897755057864883
1729497807.983342,-2.865126396306303,-0.14154052871747677,9.445623050624476,-0.007407289365346603,0.1467026905624222,0.0010985864305994842,0.9891522864321038,-0.002128450544465322,0.021573978496820516,0.0060507659180922095
1729497807.9911823,-2.8663772733306567,-0.14693414022853293,9.444226949271169,-0.007690546024472387,0.1467814497160868,0.0011412250331855234,0.9891383923023679,-0.003405520633989351,0.022309568450257004,0.00746167010401361
1729497807.999158,-2.861860555892925,-0.14921262647110414,9.444346969123249,-0.007809948461857659,0.14656245975903676,0.0011571775945478844,0.989169910093518,-0.003746072626241737,0.022325232360856866,0.007456832492642387
1729497808.0073028,-2.8636995085845833,-0.13789044941781872,9.436996955888011,-0.007222829150934578,0.14676073821714586,0.0010716605391588696,0.9891450692394436,-0.003950403821593168,0.022334630707216783,0.007028239864357621
1729497808.0155551,-2.869351863353875,-0.1368432271702225,9.440008973093354,-0.007165441009049757,0.14698829057303306,0.0010648301094472444,0.9891117050295186,-0.002370242292955901,0.0219145796535707,0.004216943918614572
1729497808.0231676,-2.868433713227169,-0.1369331543197116,9.448519948064996,-0.007163880124253574,0.14682034609391903,0.001063354944491751,0.9891366609678812,-0.0014221453757735406,0.021236858959921022,0.0025301663511687433
1729497808.031134,-2.8686010836491915,-0.1372265307754207,9.455063054044077,-0.007174356762470955,0.14673317668339864,0.00106426393408319,0.9891495189341811,-0.0008532872254641244,0.020404536482269184,0.001518099810701246
1729497808.0391428,-2.8730110688906865,-0.1414726994711118,9.447975589994805,-0.007401498103682802,0.14704636386648978,0.0011003558357667324,0.9891012960847335,-0.0005119723352784745,0.02033083305714011,-0.0016432804823514422
1729497808.0471835,-2.868713875221131,-0.13324649321782334,9.447793254387507,-0.006971544680616417,0.14684531450950838,0.0010349844407074764,0.9891343589111528,-0.00030718340116708473,0.020286611002062666,-0.003540108658183055
1729497808.055187,-2.8788248278182254,-0.13908467693655338,9.450796315181332,-0.007274139862361177,0.14728436103017944,0.0010832099401970427,0.9890668483684103,-0.00018431004070025084,0.020685767830478232,-0.005103895625144054
1729497808.0631776,-2.8654983659292164,-0.13923570484357264,9.446612647507237,-0.007285922337697977,0.1467067673264568,0.0010806159837333548,0.9891526030018855,-0.0001105860244201505,0.021350951988989605,-0.005616477743858622
1729497808.0711365,-2.85702364846378,-0.14531182573817483,9.449130270389109,-0.007602320683585016,0.1462621995510164,0.0011240539336594174,0.9892160078594952,-6.63516146520903e-05,0.02217575254555846,-0.0050726468921633
1729497808.0791519,-2.8490657759923304,-0.1484786579429049,9.457344608766668,-0.007761830854189773,0.14576087382380515,0.0011436208666720132,0.9892887413567512,-3.9810968791254176e-05,0.02267063287949977,-0.0030435881352979797
1729497808.0871527,-2.8409391701852416,-0.1470268749415242,9.465625094117422,-0.007679835774226114,0.14525235140312498,0.0011275061441177417,0.9893641914200448,-2.3886581274752505e-05,0.022967561079864557,-0.0018261528811787876
1729497808.0951421,-2.8487524754998166,-0.14735290597077388,9.450242671216547,-0.007708674522628511,0.14584878342922808,0.001136488263932324,0.9892762087019702,-1.4331948764851502e-05,0.022294337877159367,-0.0010956917287072725
1729497808.1032019,-2.851764517526452,-0.15449170940277684,9.449632343452585,-0.008082394351983324,0.14600001818411323,0.0011928518644904555,0.9892508512486644,-8.599169258910902e-06,0.021890403955536254,0.0014710352700857948
1729497808.1111944,-2.863866809881105,-0.14680398316119736,9.438492239323503,-0.007688447012651342,0.14674452260422866,0.0011406201865384101,0.9891438883467767,-5.159501555346541e-06,0.022073733664024417,0.0034367615308236667
1729497808.1191666,-2.8684945634677255,-0.14985279272874966,9.440666722988635,-0.007846049410944614,0.14693395102966644,0.0011655385088000202,0.9891145004818386,-3.0957009332079243e-06,0.021758041427655285,0.00461619728726639
1729497808.127195,-2.879650921430245,-0.14138701133060916,9.4371830098674,-0.007404919768584663,0.14752207652635096,0.0011045050907554637,0.9890304263110811,-1.8574205599247545e-06,0.021994316147295835,0.004898168679669992
1729497808.1352162,-2.8765285094011155,-0.13678638282375613,9.436050462658722,-0.007165016589311296,0.14739019780816073,0.0010677429740236315,0.9890518955304052,-1.1144523359548527e-06,0.022987461102004225,0.002938901207801995
1729497808.1431475,-2.867233037037154,-0.13689904771183178,9.441117018317888,-0.007167654692665081,0.14687052648922913,0.0010642868864875045,0.9891291829020143,-6.686714015729116e-07,0.02358334807482926,0.001763340724681197
1729497808.1511827,-2.862852854448855,-0.1494164952774897,9.462592304496592,-0.007805805663956108,0.14634530604208995,0.001154812573829969,0.9892020962398447,-4.012028409437469e-07,0.023940880258524283,0.001058004434808718
1729497808.1591878,-2.855196921409547,-0.1480684176743063,9.450338358772173,-0.007745649500300599,0.14615630799577434,0.0011444001240792866,0.9892305236370432,-2.4072170456624813e-07,0.024155399568741295,0.0006348026608852308
1729497808.1671693,-2.852997563246119,-0.1549210164248963,9.455675260136353,-0.008099706717930442,0.1459716053184996,0.001195169407272363,0.9892548997917128,-1.4443302273974887e-07,0.023858421093409472,0.00038088159653113847
1729497808.175146,-2.852156788680093,-0.1518499706947815,9.45983508161892,-0.007935807953473872,0.14587209721361763,0.0011701677539213107,0.9892709360504099,-8.665981364384932e-08,0.02325454394674835,0.00022852895791868307
1729497808.183227,-2.855243626430712,-0.15575342724108765,9.46735879799479,-0.008133249062403336,0.14591016443551,0.0011996030260740123,0.9892636833153591,-5.199588818630959e-08,0.02289221765875167,0.0018398776205993362
1729497808.1911886,-2.8544621072549115,-0.1489975348602776,9.460620280017576,-0.007785998087816538,0.14597205443626785,0.0011488800877133042,0.9892574071655849,-3.119753291178575e-08,0.022674821885953666,0.003658066941131791
1729497808.199509,-2.8654853637181814,-0.1571544278985884,9.456816589397263,-0.008214714665427354,0.1465527870858362,0.001217072669364889,0.9891679927062221,-1.8718519747071452e-08,0.022970074483736894,0.005174670594913296
1729497808.2071993,-2.8697051159359868,-0.1522323369149343,9.445196988550467,-0.007966802736827016,0.14692531650774257,0.0011834066355245088,0.9891147966601183,-1.1231111848242871e-08,0.023572916103868864,0.00651032284864423
1729497808.215256,-2.8612236396299515,-0.14999734282278868,9.435831026382234,-0.007857983402834307,0.14665548356875968,0.0011650504743678804,0.9891557328820605,-6.738667108945722e-09,0.023934621075948043,0.007737404262344823
1729497808.2231843,-2.87145764447133,-0.15105054802765758,9.437633474227777,-0.007911060269091328,0.14711990476039824,0.0011767167339024882,0.9890863279241293,-0.0017027642890483916,0.024577334120657584,0.008047963049103147
1729497808.231207,-2.8713731230597515,-0.15144305098456332,9.441827405093306,-0.007928171969170965,0.1470545876871056,0.001178727015178617,0.9890959017870948,-0.002724418819277161,0.025388652008945342,0.008234298321158141
1729497808.2392416,-2.864858065730382,-0.15598811574698798,9.447695645936843,-0.008161501149617657,0.14665551323228976,0.0012100543370191323,0.989153216699041,-0.0016346512915662965,0.026301132803380027,0.007920409422929106
1729497808.2471945,-2.865737434653073,-0.15991225543452095,9.447385867786716,-0.008366988070681564,0.14670095930085253,0.0012409156601919877,0.9891447225654894,-0.0009807907749397778,0.026422931218578805,0.007306386022529653
1729497808.2552273,-2.8791937449715315,-0.1577177560927438,9.459889269695466,-0.008240687284031462,0.14716415337650396,0.0012261267575807175,0.9890769937913013,-0.0005884744649638666,0.026496010267698072,0.00651228192082795
1729497808.2632332,-2.8867886908305747,-0.1635836614681463,9.446082916065327,-0.00855884108561336,0.14772720473555503,0.0012784490281726256,0.9889902854873616,-0.00035308467897831995,0.026539857697169635,0.005610129398344897
1729497808.2712336,-2.8822476920374074,-0.15561103672463777,9.442108666875523,-0.008145421810982737,0.14757035143104621,0.0012153708453602331,0.9890172730320472,-0.00021185080738699195,0.0269918562163146,0.0033660776390069384
1729497808.2791405,-2.874016428943147,-0.15034862154650142,9.44858266350422,-0.007865227185809339,0.14708315538378805,0.0011696002358650068,0.9890921674136098,-0.00012711048443219517,0.02768874538926361,0.002019646583404163
1729497808.2871888,-2.8808092592213566,-0.1452758111114946,9.443847935504875,-0.007603236253941614,0.14747908030978088,0.0011337495124511203,0.9890353008267657,-7.62662906593171e-05,0.028532568954495054,0.0012117879500424978
1729497808.2951431,-2.887997419546486,-0.13959850302431864,9.446513762523628,-0.007303740732022459,0.14778589817155344,0.0010914042739781852,0.9889918060882291,-4.5759774395590256e-05,0.029464553155095947,0.002855523077335657
1729497808.303171,-2.882972929266954,-0.14720544580873182,9.454338183051286,-0.00769572219073822,0.14742898571239435,0.0011471428641438226,0.9890420385883639,-2.7455864637354153e-05,0.02959805361399445,0.004693144276635615
1729497808.311202,-2.891929243400016,-0.15464265347156722,9.454005011881552,-0.008084188893760391,0.14786010361200497,0.001208655025395869,0.9889745066495935,-1.6473518782412492e-05,0.029678153889333557,0.006221407057677621
1729497808.3191862,-2.8819801412548527,-0.1562319360770809,9.454044529345728,-0.008167834230914203,0.1473830837578695,0.0012171342906289618,0.9890450099414666,-9.884111269447495e-06,0.02972621405453702,0.0071383647263028255
1729497808.327202,-2.885108646276349,-0.15215768215406103,9.448561576005876,-0.007959199390723528,0.1476140847303837,0.0011879426957860384,0.9890122961452104,-5.930466761668497e-06,0.029755050153659098,0.007262849266015916
1729497808.335192,-2.8865069089572155,-0.137023861001421,9.44311702250782,-0.007171660129083154,0.14776493643396751,0.0010715108876187156,0.9889959265417002,-3.558280057001098e-06,0.029346661751670312,0.006911849928381739
1729497808.3431616,-2.885909345569641,-0.13847805561452448,9.429794643436335,-0.007257806067513136,0.1479310997067019,0.0010856292435966531,0.9889704421264559,-2.134968034200659e-06,0.029527318771939072,0.004147109957029043
1729497808.3511724,-2.896564135173816,-0.13001318590777716,9.425392518483676,-0.00681677618069748,0.1485087886831693,0.0010237277958935647,0.9888870629287047,-1.2809808205203952e-06,0.03006140304556236,0.002488265974217426
1729497808.359198,-2.900562807276164,-0.1220612220915413,9.429215587994502,-0.0063971640967007675,0.1486460575839477,0.000961616685317271,0.9888693043823436,-7.685884923122371e-07,0.03080754367119836,0.0014929595845304554
1729497808.3672206,-2.90918693485398,-0.12662743027640916,9.432227690199044,-0.006633938026406889,0.1490134431409819,0.0009997305205575063,0.988812411516167,-4.6115309538734226e-07,0.031255228046579965,0.0008957757507182732
1729497808.3751967,-2.9124460500725444,-0.1296065753533455,9.434513791853801,-0.006788215303033797,0.14913488851295617,0.001023833806789805,0.988793030378736,-2.7669185723240534e-07,0.031098148610346897,0.0005374654504309639
1729497808.3831513,-2.9072189142232143,-0.12540855824911668,9.436124873012671,-0.006567535661254823,0.148862089487758,0.0009886952078859638,0.9888356629240588,-1.660151143394432e-07,0.030152520825682993,0.00032247927025857835
1729497808.3911967,-2.917969002342522,-0.12384742865064187,9.432303118387681,-0.006487828368558742,0.14943320461313386,0.0009805278723258501,0.9887500513310737,-9.960906860366591e-08,0.030010834216346677,0.000193487562155147
1729497808.3991427,-2.9184335510637167,-0.1255443727177289,9.441741653747453,-0.006570261939434798,0.14931548001785805,0.000992186771191189,0.9887672803296511,-5.976544116219955e-08,0.030777202373668953,0.0001160925372930882
1729497808.4071443,-2.914402717308152,-0.13494224496852794,9.43136362384027,-0.007069835435755799,0.1492736377011179,0.0010673260459075481,0.9887700740462863,-3.585926469731973e-08,0.03081133320660029,0.0017724157682239793
1729497808.4151542,-2.929222469007938,-0.14105980865103865,9.432558831042442,-0.007388540406706807,0.1499629317492744,0.0011207122735265162,0.9886633767748357,-0.002128471822868977,0.03040612164489706,0.0036175898297065774
1729497808.4231775,-2.9242279503989033,-0.14209672503437318,9.427769291545387,-0.007446824504056055,0.14979489605194038,0.0011282587087713919,0.9886884043791958,-0.0034055334010315444,0.030588684769337154,0.0047246942665961356
1729497808.4311736,-2.9193158779053574,-0.1329026480577333,9.426092668677232,-0.006966538013847853,0.14958727443285383,0.001053990844456559,0.9887234212757132,-0.004171770347929085,0.029846842521077145,0.00496326686726784
1729497808.4391992,-2.932409785532277,-0.131456344694015,9.422453073130168,-0.006892645578576776,0.1502680880983815,0.0010476663793203527,0.9886207035720741,-0.002503062208757451,0.028550357049197075,0.005106410427670863
1729497808.447196,-2.9333229452939755,-0.138250007988284,9.42625481995232,-0.0072458949803297385,0.15025336201526748,0.001101251934819061,0.9886203575959879,-0.0015018373252544705,0.027772465766069038,0.0030638462566025177
1729497808.4551854,-2.9511090931041193,-0.13418592032031412,9.425662826053422,-0.007032390528600567,0.15111309091356395,0.0010750592532602764,0.9884908818424195,-0.0009011023951526823,0.02688004093473018,0.0018383077539615106
1729497808.4631846,-2.964893243948409,-0.14443673651836034,9.418843285231663,-0.0075740714282846455,0.15187047608868448,0.001163812156302816,0.9883706984101969,-0.0005406614370916093,0.026344586035926865,0.0011029846523769064
1729497808.4714239,-2.965023448810452,-0.14436230192078184,9.410441997750326,-0.007576762808667434,0.1520030145670126,0.0011652657826711611,0.9883503014536584,-0.0003243968622549656,0.026449003158106908,0.0006617907914261438
1729497808.4791791,-2.952412302928849,-0.1440782209962191,9.405161805095506,-0.007566742972502919,0.15147966257069506,0.001159623669516031,0.9884307317668758,-0.00019463811735297935,0.026085963369952902,0.00039707447485568627
1729497808.4871342,-2.940775472577622,-0.15875182273445024,9.411570496143241,-0.008332426320938481,0.15082256045716336,0.0012713062180862672,0.9885249160791302,-0.0001167828704117876,0.02629382955852253,0.00023824468491341174
1729497808.4951432,-2.9369058365250886,-0.14433222767387327,9.404881223467195,-0.007581210698545019,0.15074173193015836,0.0011560491857061852,0.9885434330616539,-7.006972224707256e-05,0.02641854927166431,0.00014294681094804705
1729497808.5031452,-2.925007248252944,-0.14406017644807395,9.419542432810784,-0.007556104854790173,0.14995373918162538,0.0011460584967660065,0.9886634755743707,-4.2041833348243534e-05,0.026493381099549372,8.576808656882822e-05
1729497808.5112112,-2.9319938850845784,-0.15371317251923497,9.427620897918894,-0.008055135571978263,0.15016500446712513,0.0012235140338055423,0.9886273763343367,-0.0017279853458570724,0.02611259013481838,0.0017542210977894233
1729497808.5192018,-2.9182293547323876,-0.161180911324041,9.418821027520867,-0.00845499599514051,0.14963476267233186,0.0012796153926844932,0.9887043609831828,-0.0010367912075142434,0.025032735433055724,0.0027552929045217803
1729497808.5272071,-2.922899325485917,-0.1580001092944246,9.41138632378791,-0.008294278907840038,0.14996983214784862,0.0012581655274443567,0.9886549809728622,-0.0006220747245085461,0.023959132550536097,0.0033559359885611947
1729497808.5351942,-2.9417424590610817,-0.16638669521532662,9.416741728354777,-0.008728318760015428,0.150789069405353,0.0013314109672000068,0.9885265299142597,-0.002076005080553254,0.022463590698100257,0.0037163218389848433
1729497808.5431473,-2.950414717380008,-0.16710908377958658,9.416124248438647,-0.008766180000882631,0.1512126081849416,0.001341030444690566,0.9884614827353901,-0.0029483632941800786,0.022417645709562818,0.003932553349239032
1729497808.5511904,-2.951308509383083,-0.15796571027751757,9.424133466299516,-0.008279701694173225,0.15113848948056502,0.0012659692291021175,0.9884771119552034,-0.001769017976508047,0.021964388654978323,0.002359532009543419
1729497808.5594714,-2.9554360870751624,-0.14002983754346365,9.415770887885179,-0.00734589609966001,0.15146622499863072,0.0011256741399482415,0.9884344962378072,-0.0010614107859048282,0.021266744360765595,0.0014157192057260514
1729497808.5672038,-2.9605462555165816,-0.15177380950850008,9.409795660172515,-0.007966490597439056,0.15179661307610423,0.001223504776789123,0.9883788880395239,-0.0006368464715428969,0.020422467722775926,0.0008494315234356308
1729497808.575197,-2.971034381727918,-0.14660976422072505,9.411238347031242,-0.007693703332842336,0.1522774126007992,0.0011854384092169767,0.9883071340815112,-0.00038210788292573813,0.020341591801444153,0.0005096589140613784
1729497808.5832028,-2.9701446524742505,-0.14566611854220066,9.415216421304683,-0.00764109009136372,0.1521753096387029,0.0011765231830783666,0.9883232794343054,-0.00022926472975544286,0.021144446371569155,0.00030579534843682706
1729497808.591142,-2.9686531342579876,-0.1609016620921173,9.409462980224216,-0.008445265460732664,0.15218599128482743,0.0013004469026270573,0.9883149348187579,-0.00013755883785326572,0.021626159113644156,0.0018862374549102226
1729497808.599149,-2.9668005426641675,-0.16645168573183286,9.408405117236091,-0.008737590347767136,0.152111594395612,0.001344790862881767,0.9883237874820552,-8.253530271195943e-05,0.021489496697427127,0.004111572903180354
1729497808.60745,-2.9376768282840473,-0.17002112008167783,9.42022024807603,-0.008915989962816251,0.15054155577609374,0.00135775627922096,0.9885625430924351,-4.952118162717566e-05,0.020981809186234875,0.005872464233604465
1729497808.6151488,-2.930497666794647,-0.15707931023260044,9.422760343425695,-0.008235742552864432,0.15016467104071982,0.0012509459497977227,0.9886259046019713,-2.9712708976305394e-05,0.020251506618057497,0.006928999031858931
1729497808.6231415,-2.928584371561163,-0.14620176216495087,9.424284400635495,-0.0076644321687118575,0.15005380708088853,0.0011632834728553232,0.988647438792831,-1.7827625385783236e-05,0.019387635015689034,0.0075629199108116114
1729497808.6311834,-2.9264787137570103,-0.15523754411537677,9.411791305664499,-0.008148719126549108,0.1501360975385249,0.0012374858885317182,0.9886309823291878,-1.0696575231469942e-05,0.018017931931343892,0.0062405121923350924
1729497808.6391962,-2.9347921257151435,-0.15180046714305417,9.415787616650654,-0.007964520441306345,0.1504755406043168,0.0012123089889364276,0.9885809063505596,-6.4179451388819655e-06,0.0184731802651229,0.003744307315401055
1729497808.6471355,-2.942653214882211,-0.15692082594012938,9.415312361250157,-0.00823302446697255,0.15085704420675258,0.0012564329504118786,0.9885205060582047,-3.850767083329179e-06,0.01874632926539031,0.002246584389240633
1729497808.6551452,-2.945933347386358,-0.14897971358165574,9.416224308839938,-0.00781552562871552,0.15100268732889854,0.0011938930714390959,0.9885017352528683,-2.3104602499975074e-06,0.018910218665550753,0.0013479506335443798
1729497808.6631336,-2.951013889047049,-0.13391997902789968,9.42371466220826,-0.0070198779956624985,0.15113773968492542,0.001073325470058897,0.9884872042309364,-1.3862761499985044e-06,0.01858286224418499,0.0008087703801266279
1729497808.671159,-2.973455247490729,-0.13446094493627106,9.416956126426518,-0.007051945885312722,0.1523102849842373,0.0010867917768414325,0.9883069695347113,-8.317656899991026e-07,0.0179607583299035,0.0004852622280759767
1729497808.6791506,-2.9816528189045934,-0.1367008858094189,9.420562450269975,-0.0071662664327233035,0.15264627398882086,0.0011069052616440932,0.9882542863167794,-4.990594139994616e-07,0.018013186042796638,0.003270987767079807
1729497808.687157,-2.975558034116194,-0.1275103630286201,9.417219580757687,-0.006687173113242794,0.15240848624653752,0.001031253344266897,0.9882944255394404,-2.994356483996769e-07,0.01804464267053252,0.005793803213406169
1729497808.6951478,-2.9745347850693253,-0.12846039384256266,9.397975607097191,-0.006750516935533797,0.1526498843570704,0.0010427104644588129,0.9882567257963709,-1.7966138903980615e-07,0.017212136524249987,0.007307492481201986
1729497808.703163,-2.967456491158783,-0.13190345432311573,9.402230953857924,-0.006928740419951143,0.15224644148667554,0.0010673451197589327,0.9883176991156399,-1.0779683342388369e-07,0.017138322897942496,0.007790015980417444
1729497808.7111568,-2.966561397136676,-0.1248713243028538,9.411487926562799,-0.006553142757993174,0.1520660520234315,0.0010082586826195552,0.9883480943252885,-0.0017028249239481807,0.017094034722158,0.007228149957022656
1729497808.7192035,-2.9578840550788805,-0.12711639077311854,9.403634580888852,-0.0066768386255537954,0.1517689464327235,0.0010252367734580336,0.9883929156030145,-0.0010216949543689084,0.01536470157083918,0.0043368899742135935
1729497808.7271428,-2.95890257416061,-0.13013937181738672,9.406823438962999,-0.0068332823155268585,0.1517689092769352,0.0010492597931137636,0.9883918269004314,-0.0023157772184694714,0.013901411618585855,0.002602133984528156
1729497808.7351444,-2.9609502066057405,-0.12381287479941641,9.408018493309438,-0.006500227170360762,0.15185043946455254,0.000998665241380018,0.9883816033035477,-0.001389466331081683,0.011746367462847764,0.0015612803907168935
1729497808.7435014,-2.954996181092351,-0.1410859511980092,9.408017265419257,-0.007407274635839904,0.15156122133462033,0.0011358088651043491,0.98841946480644,-0.0008336797986490097,0.01002765090794288,0.000936768234430136
1729497808.7512276,-2.9571698497686913,-0.1399576290684149,9.400355083372647,-0.007353772162230115,0.15178063559759017,0.0011292753884276465,0.9883862025694585,-0.0005002078791894058,0.008996420974999949,0.0005620609406580816
1729497808.7591388,-2.9558404291483242,-0.13952005595667394,9.40461632028726,-0.00732761527567945,0.15165311234617104,0.0011242907149425223,0.9884059770865813,-0.00030012472751364343,0.009229063138158255,0.0003372365643948489
1729497808.7671907,-2.9658166842468066,-0.12992012561501998,9.40430002044384,-0.0068231933975125645,0.15213741180569743,0.001050314650919471,0.9883352410999305,-0.00018007483650818605,0.009368648436053237,0.00020234193863690936
1729497808.7752042,-2.9756331599621464,-0.13708885637487137,9.39573053472724,-0.007205488844726053,0.15273399617406191,0.0011136187724452944,0.9882404399721961,-0.00010804490190491163,0.009452399614790226,0.0001214051631821456
1729497808.7832098,-2.9733827597468188,-0.14091125449875094,9.406869414586344,-0.007397929054389894,0.15245708753915288,0.0011412400611369132,0.9882817435710872,-0.0017675871869910734,0.00950265032203242,7.284309790928736e-05
1729497808.7911794,-2.9588644104867634,-0.13147310523831307,9.409243179513526,-0.00690157106374228,0.15173036583054475,0.0010594706658660874,0.9883972591643956,-0.0031890026195048023,0.008681420623453673,0.0017464661045936988
1729497808.7991521,-2.951829342092839,-0.1361052828207222,9.413540480462022,-0.0071418997584822685,0.1513283925419457,0.0010933930948078992,0.9884571388634162,-0.0019134015717028813,0.007337302681382362,0.0036020200315284093
1729497808.8071418,-2.948087141388516,-0.13457502638188645,9.4127669787069,-0.007062385413015218,0.15116149868860196,0.0010799988277754955,0.9884832611779654,-0.0011480409430217288,0.006530831916139575,0.004715352387689236
1729497808.8151455,-2.9341102328311566,-0.13461455318264748,9.41158461715578,-0.007066088638702876,0.15051052937852422,0.0010758036568362169,0.9885825679143034,-0.0006888245658130373,0.005621259395531871,0.004957661739923699
1729497808.8231397,-2.9331461128432252,-0.14062377341349475,9.417578964873545,-0.007376933296914946,0.1503733765654803,0.0011220848823532328,0.9886011174386492,-0.00041329473948782235,0.005075515883167249,0.005103047351264378
1729497808.83114,-2.9402290861629656,-0.14255336438989372,9.416866010515923,-0.007478285733197564,0.15072224723297295,0.0011402025354070103,0.9885472064447471,-0.0002479768436926934,0.004748069775748476,0.0030618284107586267
1729497808.8391843,-2.943281769324732,-0.15113314412221748,9.416198817735335,-0.007928657500374275,0.1508756486379072,0.0012101334176199217,0.9885202125477476,-0.00014878610621561604,0.002848841865449085,0.0018370970464551759
1729497808.8471456,-2.9439162783917143,-0.16346361694208048,9.419150384391202,-0.008572727481163377,0.15085799429666416,0.0013082870017244086,0.9885174061620982,-8.927166372936962e-05,0.0034120653651175774,0.0028050184737212318
1729497808.8551352,-2.952437269476435,-0.1689465393058733,9.428822189863235,-0.008850747536825165,0.15111869963295754,0.0013531079272287778,0.9884750740348593,-5.3562998237621774e-05,0.0037499994649186725,0.0042371514530049285
1729497808.8631651,-2.945100015494455,-0.1705603515620396,9.438934836134738,-0.00892642237244658,0.150617216340482,0.0013600441424508382,0.9885509209977014,-3.213779894257306e-05,0.003952759924799329,0.00594781136349921
1729497808.8711972,-2.9301631758005793,-0.17535936157198936,9.43135547443475,-0.009185780544653889,0.1500149252028647,0.0013938380752382884,0.9886400765028618,-0.002147732986675702,0.004500106262189756,0.008676967555643905
1729497808.8792024,-2.9166520888299567,-0.18326659106428736,9.428962638908896,-0.009603244315511687,0.14940148171613962,0.0014510943362113513,0.9887289159748823,-0.0012886397920054212,0.005254204126086043,0.010740151332392754
1729497808.8871646,-2.9169251424581306,-0.1796312229491193,9.425850996431274,-0.009415817950648405,0.14946190496934966,0.0014233592646744357,0.9887216268412747,-0.0007731838752032526,0.006132352905885847,0.011978061598442063
1729497808.8954377,-2.913018831812769,-0.1769711617479872,9.43882806123767,-0.009264229429155087,0.14908422466492466,0.0013968226503052153,0.9887801155442123,-0.00046391032512195155,0.007510622296689792,0.012295117696609617
1729497808.903168,-2.9073231631013328,-0.17082614187301107,9.446135459789478,-0.008936247043451254,0.1487063916905383,0.0013438745565816214,0.9888401016141765,-0.0002783461950731709,0.00833758393117216,0.011633971232586086
1729497808.9112067,-2.908215324862753,-0.175039995426541,9.443337293940091,-0.009159217949793436,0.14878877607932475,0.0013781892369820203,0.9888256213477641,-0.00016700771704390252,0.008833760911861579,0.010385903231247905
1729497808.9191618,-2.9121025042438236,-0.1739770050684246,9.435912310446087,-0.009110342710725363,0.14908445917977645,0.0013736204182085412,0.988781542532886,-0.00010020463022634151,0.009131467100275232,0.0083599922460589
1729497808.9272056,-2.8981542405834038,-0.1709450091933985,9.442710068152417,-0.008946257886638269,0.1483181604486233,0.0013417886204999986,0.98889832002803,-6.01227781358049e-05,0.009735780874785455,0.00501599534763534
1729497808.9351451,-2.9132484586566827,-0.1743930553207266,9.445591621946138,-0.00912289593581169,0.14899639166653925,0.0013746823039248106,0.9887946997676812,-3.6073666881482936e-05,0.01052405920095362,0.003009597208581204
1729497808.9431646,-2.914404124022135,-0.16520913519438907,9.436307226585651,-0.008650810788742015,0.1491916587066336,0.0013052877226933364,0.9887695933173823,-2.164420012888976e-05,0.010997026196654519,0.0018057583251487224
1729497808.9511428,-2.91485810307539,-0.15682574112639905,9.425948186049046,-0.008220717163959432,0.14936917171565817,0.0012418973510305278,0.9887465438833443,-1.2986520077333855e-05,0.011280806394075058,0.0010834549950892334
1729497808.9591951,-2.9220736753217964,-0.13934585605279254,9.42428174488138,-0.007305445619872966,0.14974433464857712,0.0011064551986101154,0.988697142942086,-7.791912046400313e-06,0.011451074512527382,0.002778523304363698
1729497808.967168,-2.920178094353234,-0.12885792500862864,9.433576947319454,-0.006749266568439911,0.14951874829364503,0.0010206390529779697,0.98873532838946,-4.675147227840187e-06,0.011978925445060809,0.004221254351390409
1729497808.975144,-2.918801325606081,-0.12184690588408344,9.426225379817453,-0.006387025120627996,0.14956349085446552,0.0009661533334870149,0.98873102240259,-2.8050883367041123e-06,0.013572706188966959,0.005938273102530498
1729497808.9831448,-2.926594390334351,-0.12147101706560631,9.435940229111175,-0.00636053653880425,0.14979231537288112,0.0009636520838134284,0.9886965546641857,-1.6830530020224673e-06,0.014103284573848619,0.006968484353214552
1729497808.9911988,-2.9073282125697513,-0.12363968543467628,9.426925088394439,-0.006481085713576451,0.14900347716561022,0.0009766279393782235,0.9888149500884373,-1.0098318012134804e-06,0.014847321666239643,0.008012301165087016
1729497808.9991481,-2.912049077200054,-0.1242226259580714,9.423191945126506,-0.006513926457119467,0.14928458342048107,0.0009834708870784734,0.9887723270298876,-6.058990807280882e-07,0.014868053860212227,0.008638591252210493
1729497809.007145,-2.9153604363102668,-0.1267271717662491,9.424782781821998,-0.00664397683104048,0.14941895866386976,0.0010040302918950077,0.9887511437600698,-3.635394484368529e-07,0.01530618323805781,0.00901436530448458
1729497809.0151527,-2.925008697088894,-0.12679337825506196,9.421667141017027,-0.006649104996210463,0.14992692025237755,0.0010082996254537795,0.9886742088869578,-2.1812366906211173e-07,0.01599475092622719,0.008814139674387
1729497809.023165,-2.9379802585365393,-0.12180527866202154,9.415967033877793,-0.006390701118614642,0.15063361878046852,0.0009737862517194575,0.9885685224467998,-1.3087420143726702e-07,0.015982201477666786,0.00826831423486642
1729497809.0311954,-2.953903481049658,-0.1236008222265098,9.42643333922316,-0.00647706398215953,0.15123773297975415,0.0009909970178542595,0.9884757021243498,-7.852452086236021e-08,0.016400361869992577,0.007515128909692042
1729497809.0391934,-2.9629785742254975,-0.12348104753512462,9.437022685418661,-0.0064632409959719875,0.15151226071704207,0.000990719159482818,0.9884337508623358,-4.711471251741613e-08,0.01622556804392602,0.006637527653125383
1729497809.0471842,-2.9691418906290483,-0.1327465691949029,9.43691194865354,-0.006947897877924824,0.15180525693385746,0.001067121584249608,0.9883854268117513,-2.8268827510449676e-08,0.016120691748286085,0.0056852768377233555
1729497809.0551841,-2.975234082131335,-0.13758762169272298,9.419607254641342,-0.007213819185183721,0.1523543517653597,0.0011120690873624589,0.988298980882438,-1.6961296506269806e-08,0.016057765970902124,0.003411166102634013
1729497809.063196,-2.9776922962026293,-0.12804240455860252,9.40946385840004,-0.006720365935263946,0.15262719064542268,0.0010378950019546249,0.9882604414481776,-1.0176777903761883e-08,0.015594320443009718,0.0020466996615804076
1729497809.0711958,-2.978209543981343,-0.13332860191484902,9.408645064307601,-0.006998341342073562,0.15266283924594218,0.0010810862229248262,0.9882529595120907,-0.0017027663519148686,0.01446487300335021,0.0012280197969482445
1729497809.0792022,-2.9768439514864617,-0.13793684132469067,9.409111468516201,-0.007239914573127383,0.152589340311848,0.0011178545736826209,0.9882625295240739,-0.0027244200569970477,0.014638584662478568,0.0007368118781689467
1729497809.087174,-2.981052419475861,-0.14070178497059566,9.409870151373394,-0.007384191473583547,0.15277794593534946,0.001141575326903229,0.9882322954436522,-0.0016346520341982286,0.014742811657955584,0.000442087126901368
1729497809.095148,-2.9713670718027037,-0.13757234783782615,9.414634924075989,-0.007216956331881474,0.1522447352376467,0.0011117332637201203,0.988315850415682,-0.000980791220518937,0.01395396773231773,0.0002652522761408208
1729497809.1031544,-2.9713019471831847,-0.14048308887847694,9.424436972511998,-0.007362144317096644,0.15209333147560514,0.0011329453897320238,0.9883380665472973,-0.0005884747323113622,0.013480661376935018,0.0001591513656844925
1729497809.1112032,-2.9676715699212393,-0.15060923931341427,9.429599941075558,-0.007888720014591072,0.1518397130005613,0.0012119119979178367,0.9883729058011191,-0.0003530848393868173,0.01319667756370539,9.549081941069549e-05
1729497809.1191835,-2.9731547888765713,-0.15333304725015795,9.424796856735178,-0.008035018694019378,0.1521724559299857,0.0012371578880981675,0.9883205206668448,-0.00021185090363209038,0.013451977337229644,5.729449164641729e-05
1729497809.1271856,-2.9793177622419584,-0.15520675217821975,9.428139930447356,-0.00812998024746254,0.15241533179998235,0.0012538255932330732,0.9882822967021412,-0.00012711054217925423,0.013179467139882165,3.437669498785037e-05
1729497809.1351566,-2.9700868572963466,-0.1692596640999006,9.43086403517271,-0.008864062737731796,0.1519298729377077,0.0013625892890210302,0.9883505883295376,-0.001779026571155679,0.012590270960011647,0.0021490763243028686
1729497809.1431644,-2.961196432004761,-0.16572040295212784,9.43489269966808,-0.008675731683499643,0.1514468879644723,0.0013292972812642726,0.9884264286098235,-0.0027701761885415336,0.012662443313551368,0.0038435861633539107
1729497809.151202,-2.9625659414782475,-0.16982177057987044,9.420071646412177,-0.008903964300365911,0.15173288315143513,0.0013669069708043121,0.9883804850135518,-0.00166210571312492,0.012280056664213168,0.005285982128246568
1729497809.1591885,-2.9629088068303076,-0.17180375082448476,9.433684510064102,-0.008995135634055818,0.15154454351127167,0.0013791500901702786,0.9884085374033927,-0.000997263427874952,0.011199244551686185,0.006151419707182162
1729497809.1671524,-2.9662269881997467,-0.17011989697906585,9.420064993147836,-0.008919344772306628,0.15190761252992796,0.0013708823494048732,0.9883535011451491,-0.0005983580567249712,0.010125067222707965,0.006244992193081486
1729497809.1751928,-2.961514132372973,-0.17341914766009575,9.415724005654326,-0.009096708338310609,0.15174667465421476,0.0013966288570287828,0.9883765709771916,-0.0003590148340349827,0.009906250886783062,0.00587544562315905
1729497809.1831758,-2.956531637382768,-0.18353898371324495,9.41527419465236,-0.009628223028089081,0.15151179769988085,0.0014758988051184507,0.9884074535341125,-0.0002154089004209896,0.009349271023766089,0.0052280276197435565
1729497809.1913364,-2.9449230144120824,-0.17716103671232197,9.426735896185948,-0.009283524015539911,0.15078820656441141,0.001416100668740819,0.988521485655136,-0.00012924534025259376,0.008589393044493875,0.003136816571846134
1729497809.199244,-2.9372395801316245,-0.1802774533262213,9.435528278434225,-0.009438742048281988,0.15028926695615677,0.0014349053300981441,0.9885959677406239,-7.754720415155625e-05,0.00941053644131664,0.0018820899431076803
1729497809.2072308,-2.9474735698563186,-0.17975310163440464,9.436733564960925,-0.009409381608389064,0.1507600208309632,0.0014350261127204444,0.9885245674017672,-4.652832249093375e-05,0.010328912540872332,0.0011292539658646081
1729497809.2152388,-2.9512197620309784,-0.1760866082950959,9.439850938537102,-0.009214264243369292,0.15089357886210497,0.0014065399829223633,0.98850606818467,-2.791699349456025e-05,0.010879938200605746,0.0006775523795187648
1729497809.2233067,-2.9561010991619465,-0.17747801478174502,9.432144556042182,-0.009294118671534532,0.15124091766488384,0.001422072827639724,0.9884522152794621,-1.675019609673615e-05,0.011210553596445795,0.0004065314277112589
1729497809.23131,-2.9628606240967774,-0.175439816681547,9.436139852521794,-0.00918313050849368,0.15150423470269214,0.0014075930133841835,0.9884129479438866,-1.005011765804169e-05,0.011408922833949824,0.0019466791024748816
1729497809.2392273,-2.9628461962354096,-0.16009110802650633,9.426326601942764,-0.008388424928418362,0.15165568603654378,0.0012870864659963299,0.9883969499287392,-6.030070594825013e-06,0.010250874192066148,0.0037221478302571186
1729497809.247181,-2.959964497526402,-0.1556702861537944,9.419480970931282,-0.008162803057540068,0.15162220433418097,0.0012521824753830128,0.9884040205493582,-3.618042356895008e-06,0.00913035494547391,0.005638809189850524
1729497809.2551644,-2.961826780791232,-0.14966591070594853,9.426626340127127,-0.007842089206808359,0.15160581313406002,0.0012028482936490422,0.9884091927014922,-2.1708254141370047e-06,0.00930942352044263,0.007640186128530631
1729497809.2631354,-2.9701267557305986,-0.13983836112083475,9.427561679320418,-0.007326056373675648,0.15199052779317407,0.0011266115160306722,0.9883541567199756,-1.3024952484822029e-06,0.009416864665423862,0.008415322230276662
1729497809.2710934,-2.9758250011922653,-0.14782820099867272,9.42261621901803,-0.00774819445392827,0.1523342622633925,0.0011942911567231324,0.9882979367033026,-7.814971490893217e-07,0.008204259168026508,0.009306093952786313
1729497809.2791514,-2.975652645979031,-0.14160877728865676,9.4043260522116,-0.0074363755517172685,0.15260368629107146,0.0011483007265793723,0.9882588206813392,-4.6889828945359304e-07,0.0074766958695880945,0.009840556986292104
1729497809.28717,-2.9659724262104654,-0.1467356692052253,9.411547884744927,-0.007700364941231382,0.15203100075718945,0.0011844995077273162,0.9883450187811216,-2.8133897367215583e-07,0.007465847951987077,0.009309854683471515
1729497809.295099,-2.958248933021201,-0.13616485489227578,9.419472286755159,-0.007140274567167034,0.15154616347773492,0.0010947543285474337,0.9884237847842621,-1.688033842032935e-07,0.007033649139964436,0.007288673055931035
1729497809.3031511,-2.959600341258033,-0.1346107696248186,9.434282574933954,-0.0070478930493726635,0.1513892976450048,0.0010794447820683185,0.9884485027360197,-1.012820305219761e-07,0.006348639791288821,0.0043732038335586206
1729497809.3111556,-2.960171766034117,-0.12721397398192238,9.422578613563887,-0.00666872084991199,0.1515937722042755,0.0010227804955712664,0.9884198552797095,-6.076921831318566e-08,0.0059376341820834505,0.0026239223001351722
1729497809.319609,-2.954529116749376,-0.1352257452289972,9.422978261888332,-0.007088662813144834,0.15131627169121567,0.0010851533634629285,0.9884593867343107,-3.6461530987911396e-08,0.00611672087802226,0.0015743533800811032
1729497809.3271585,-2.9468339641902506,-0.12830121984247644,9.423218050883,-0.006725955143808994,0.15094697946688798,0.0010270547991677566,0.9885184449850523,-2.1876918592746836e-08,0.005372792772661482,0.0009446120280486619
1729497809.3351197,-2.9443716541489158,-0.12199172311642337,9.420967722619643,-0.0063968469191511374,0.150864516696819,0.0009762516332317155,0.9885332694877178,-1.31261511556481e-08,0.0032236756635968893,0.0022695274626773235
1729497809.3431506,-2.951273973934662,-0.12993761321555714,9.430391433132334,-0.006806432276575732,0.15105144250100042,0.0010400803371192829,0.9885019233319294,-7.87569069338886e-09,0.0019342053981581335,0.003915856846378584
1729497809.3512022,-2.9388953743510315,-0.1375781892672249,9.435566819107914,-0.007203426385239175,0.1503813112102032,0.0010957509293334864,0.9886012195101285,-4.725414416033315e-09,0.0011605232388948801,0.005329344538061371
1729497809.359162,-2.939608500245385,-0.14335963572830368,9.428616403720607,-0.007511452189804805,0.150517168295363,0.0011436652320379766,0.9885781972935589,-0.001702763081096776,0.000696313943336928,0.006177437153071044
1729497809.3671584,-2.937881594287856,-0.13868821796041972,9.4256432553183,-0.0072690649022148866,0.15048024372267763,0.0011064803872002235,0.9885856728912086,-0.002724418094506192,0.0004177883660021568,0.009240433090849038
1729497809.375352,-2.941633854033651,-0.15336303941882995,9.423859366276917,-0.00803932995373868,0.1506818539822426,0.0012254135253997051,0.9885488588916892,-0.004188791225475905,0.0002506730196012941,0.011503920714977866
1729497809.383114,-2.943885209881128,-0.1518728651552042,9.421352511855995,-0.00796316127043016,0.15082730225524532,0.0012150014706832498,0.9885273070221238,-0.005067415104057733,0.00015040381176077645,0.012862013289455161
1729497809.3911917,-2.9433206620614896,-0.1595978865735913,9.426073323519846,-0.00836406669051925,0.15072747864910532,0.0012753108348125966,0.9885391459880355,-0.005168899369744798,9.024228705646587e-05,0.012825488711217477
1729497809.399141,-2.9319686057329872,-0.16638768091876416,9.438243196992767,-0.008709592959258041,0.15000204996642683,0.0013214600755768486,0.988646439198373,-0.004804099867695005,5.414537223387952e-05,0.012377883902812834
1729497809.4071374,-2.9428744642210423,-0.160166490387196,9.434292373273784,-0.008386742516940672,0.1505835319585713,0.0012775189919386853,0.9885608885638061,-0.002882459920617003,3.2487223340327714e-05,0.010406560771921921
1729497809.4151406,-2.9446295759935626,-0.1583491373963801,9.422105652235754,-0.008301967694696934,0.15084961253285833,0.0012668911903628117,0.9885210502148118,-0.0017294759523702019,1.9492334004196627e-05,0.006243936463153152
1729497809.423199,-2.945203802725044,-0.16707495240853118,9.42389158592153,-0.00875768428593733,0.15084753943939974,0.0013364207876529965,0.9885173426857543,-0.001037685571422121,1.1695400402517976e-05,0.0037463618778918913
1729497809.4311676,-2.9352532716252604,-0.15507218946269685,9.428075608291199,-0.008125752749033072,0.15031361318647732,0.0012354906605753593,0.988604199564171,-0.0006226113428532726,7.0172402415107855e-06,0.0005450568808870082
1729497809.4391954,-2.940056860436094,-0.14715227119714935,9.41789675291417,-0.007718684816228094,0.1506972893793927,0.0011766586554319905,0.988549120859869,-0.00037356680571196355,4.210344144906471e-06,-0.0013757261173159214
1729497809.4471674,-2.942460173390563,-0.1428791605698521,9.409155817861784,-0.007501246394350578,0.15094408267321172,0.0011454260611049264,0.9885131780647197,-0.00022414008342717812,2.5262064869438828e-06,-0.0008254356703895528
1729497809.4551747,-2.926903329376134,-0.14127297485753626,9.414206323969022,-0.007413934491354076,0.15012463665345238,0.0011258048969189592,0.9886386395485263,-0.00013448405005630687,1.5157238921663295e-06,-0.0004952614022337317
1729497809.463191,-2.9156538616393526,-0.15371679272702174,9.423700972115789,-0.008059608975799423,0.1494414861528201,0.001218160113882419,0.9887369726097688,-8.069043003378412e-05,9.094343352997976e-07,-0.000297156841340239
1729497809.4711921,-2.905073458341034,-0.15423989863425994,9.425567038347598,-0.008086118761023236,0.1489070993767226,0.0012176975408497218,0.9888173783117348,-4.8414258020270474e-05,5.456606011798786e-07,-0.00017829410480414338
1729497809.4791455,-2.902795359184308,-0.13970971188563408,9.440573047715588,-0.007313236402406187,0.1485811924586619,0.0010988366248713994,0.9888725592203257,-0.0017318088006602885,3.2739636070792717e-07,-0.00010697646288248602
1729497809.487188,-2.8983160375320693,-0.14128666697513043,9.431620140885212,-0.007402886599095268,0.1484980309972129,0.001111671007818338,0.9888843695030891,-0.001039085280396173,1.964378164247563e-07,-6.418587772949161e-05
1729497809.4952776,-2.900656268027054,-0.13241661322218762,9.43319158160144,-0.006936944728393363,0.14858937650647977,0.0010423534098327122,0.9888741019394834,-0.0006234511682377037,1.1786268985485377e-07,-3.8511526637694965e-05
1729497809.5032094,-2.9022998264900606,-0.1371502279430782,9.435810387193285,-0.007182848827084909,0.14862825232809757,0.001079593966114176,0.9888664640736337,-0.00037407070094262225,7.071761391291226e-08,-2.3106915982616977e-05
1729497809.5112092,-2.8992158187455987,-0.12370982548655005,9.433072107560111,-0.006481030238428465,0.14852436247326056,0.0009734083398588656,0.9888870322110428,-0.00022444242056557335,0.001702802676416474,-1.3864149589570185e-05
1729497809.5191944,-2.8968865737668907,-0.12187050832903941,9.433823341440364,-0.006384297890952212,0.1484022090093488,0.000958072754420822,0.9889060153513994,-0.000134665452339344,0.002724441851698011,-8.31848975374211e-06
1729497809.5272927,-2.8945313461156035,-0.12459764069078302,9.44432972874117,-0.0065201588323079256,0.14813451406039363,0.000976657266125033,0.988945245912774,-8.07992714036064e-05,0.004188805479790996,-4.9910938522452665e-06
1729497809.5352128,-2.897667192679128,-0.13748666791056358,9.439859653650952,-0.007197699179075088,0.14834687730471857,0.0010797319290822836,0.9889086061408444,-4.847956284216384e-05,0.005493113718108819,-2.9946563113471598e-06
1729497809.5432544,-2.9057736249336488,-0.1416287817521975,9.424967180130023,-0.007425509329699655,0.1489531935701689,0.001118563641311213,0.9888157344782812,-2.9087737705298305e-05,0.005850008599637481,0.001700963452061318
1729497809.5511754,-2.904173139803939,-0.13357956275249036,9.419144158175671,-0.007007875960985446,0.14896470655575583,0.0010557323168552358,0.9888171172186231,-0.002145902949933337,0.0052127654056306144,0.003149028378546949
1729497809.5591676,-2.895790823579629,-0.1270740901905567,9.41995990799134,-0.006666492331013499,0.1485524955775558,0.0010014587460283179,0.9888815454937263,-0.0034159920772701604,0.005681799612150559,0.004443557395900359
1729497809.5671759,-2.890761433845043,-0.14184557960261526,9.423322399872928,-0.007438992985516483,0.14825788172785603,0.0011152461273776777,0.98892012726762,-0.0037523554922102224,0.005963220136062525,0.0064973449906985
1729497809.5751626,-2.894208144486713,-0.14999021275180352,9.422945693341724,-0.007866157440634396,0.148426339855959,0.0011806603515308726,0.9888914759695407,-0.004379863602636291,0.006132072450409705,0.008155307609039417
1729497809.583116,-2.9027405153541372,-0.1532010514792071,9.427986913075348,-0.008029794284250904,0.14875998287599634,0.0012079932742952828,0.9888399924410092,-0.004330678407429901,0.0062333838390180125,0.008724395118581935
1729497809.5911224,-2.912169500862873,-0.15416987405158677,9.424307880267083,-0.00808306647224237,0.1492655483309233,0.0012202346938917483,0.9887633544712131,-0.0025984070444579404,0.006294170672182997,0.0073630873784593185
1729497809.5997956,-2.9252489173145984,-0.1444561004563427,9.414439015269624,-0.007580868222121718,0.1500410552229652,0.0011504995995858232,0.9886500333966763,-0.0032618044725228907,0.006756332833544019,0.006120612672923718
1729497809.6071713,-2.924238021043056,-0.14652870177771185,9.431502032208648,-0.007676078492150176,0.14973876385823676,0.001162548988210187,0.9886951142273536,-0.0019570826835137345,0.006607940068898601,0.0036723676037542304
1729497809.6152632,-2.9229132227820833,-0.14705400207248648,9.425459271083001,-0.007708497692151533,0.14976483683404088,0.0011676671557468074,0.9886909068383387,-0.0011742496101082407,0.006093214348649319,0.002203420562252538
1729497809.6231754,-2.9199635623313593,-0.14904512341146064,9.428537379056051,-0.007810535576091764,0.14957751603022215,0.0011816109173698383,0.9887184462868502,-0.0007045497660649444,0.005784378916499749,0.0013220523373515228
1729497809.6311698,-2.9172360853968624,-0.15000037604882951,9.429665983341835,-0.007859829510481867,0.14943004030476378,0.0011878696397024712,0.9887403476647961,-0.0004227298596389666,0.005173387595747976,0.00249599164825904
1729497809.6391594,-2.916078439568196,-0.14674280497500083,9.431540246743381,-0.007687741604029614,0.14934789541852508,0.0011612067940124176,0.9887541435371427,-0.00025363791578338,0.005232482864758943,0.004051735357727614
1729497809.6471243,-2.9115531294147456,-0.16418129577796922,9.432664804784311,-0.008600434349615329,0.14910939230197623,0.0012969541837828534,0.9887824531039062,-0.00015218274947002798,0.005693630087627556,0.005836561706332821
1729497809.6551778,-2.9191330104613473,-0.16099744079685965,9.435733741269026,-0.008430518735581916,0.14942761712805405,0.001274103953515516,0.9887359052104846,-9.130964968201678e-05,0.005970318421348724,0.007758837638420009
1729497809.6631782,-2.9210473172631364,-0.1645937916265533,9.431589599009463,-0.00862237344404605,0.14957930213350631,0.00130445422745366,0.9887112750690229,-5.478578980921006e-05,0.006136331421581424,0.009763583320596386
1729497809.6711752,-2.9190834391860068,-0.15789305598179135,9.420483987677162,-0.008281078778902875,0.14965204043868124,0.001253440134324573,0.988703251443337,-3.287147388552604e-05,0.005384559098796981,0.01096643072990221
1729497809.6791756,-2.931312641636604,-0.15650623642110606,9.437283797147312,-0.008193308870437762,0.14998812616974005,0.0012430033201552978,0.988653066874619,-1.9722884331315623e-05,0.003230735459278188,0.010836759052561644
1729497809.6871896,-2.927397415304228,-0.14705501870813237,9.425815867887996,-0.00770800106766666,0.149974040835632,0.0011692604196606995,0.988659196399368,-1.1833730598789373e-05,0.0019384412755669128,0.009056195800309176
1729497809.6951845,-2.931033783655193,-0.1394689267522232,9.427075395976939,-0.007309276832638116,0.1501313849439895,0.001109962793765522,0.9886384120140083,-7.100238359273623e-06,0.0011630647653401477,0.005433717480185505
1729497809.7031834,-2.9286666215114754,-0.14736712021149015,9.423521549842022,-0.007726120036075578,0.15006873458840886,0.0011727661905159528,0.9886446816666159,-4.260143015564174e-06,0.0006978388592040886,0.003260230488111303
1729497809.7112432,-2.9361048703678225,-0.14947241446087844,9.426417065647401,-0.007833675778303555,0.1503806952913109,0.0011916223844325446,0.9885964090788492,-2.556085809338504e-06,0.00041870331552245314,0.0019561382928667817
1729497809.7192652,-2.9333852147011625,-0.1466654481882458,9.44060422376344,-0.007675462854109809,0.15004082929971946,0.0011648547037056984,0.9886493210064663,-1.5336514856031024e-06,0.0002512219893134719,0.0011736829757200689
1729497809.7272172,-2.931753421301166,-0.14474184825865063,9.44217333381861,-0.007573676461791396,0.14994021209908218,0.0011486177900221898,0.9886653897541406,-9.201908913618614e-07,0.00015073319358808313,0.0007042097854320413
1729497809.7351854,-2.931971446091246,-0.138799284980581,9.437608136033354,-0.007266200965205208,0.1500199918909965,0.0011025835062057148,0.9886556471624336,-5.521145348171168e-07,9.043991615284988e-05,0.0021252861171073513
1729497809.743187,-2.933778202127404,-0.13978273016803608,9.434150756864152,-0.007320196206683489,0.15015734244068413,0.0011118176982579913,0.9886343869702553,-3.3126872089027005e-07,5.426394969170993e-05,0.0038293120390366004
1729497809.7511752,-2.937017037243239,-0.14707656192894666,9.432076329362632,-0.007703560584329967,0.15034080269662742,0.0011715105751515002,0.9886035230373346,-1.9876123253416202e-07,3.2558369815025956e-05,0.005277417653656181
1729497809.7592304,-2.9236374476877405,-0.1524105416495555,9.437774857676173,-0.00797899777257788,0.14961540911040278,0.001207411073233472,0.9887113365941407,-1.192567395204972e-07,1.9535021889015572e-05,0.006571971083889961
1729497809.7671778,-2.9208769376067845,-0.14651296317332704,9.430898907525627,-0.007675931288399194,0.1495869773451682,0.0011613212782850954,0.9887180930985741,-7.155404371229832e-08,1.1721013133409343e-05,0.008200083264954293
1729497809.7752347,-2.91491106856993,-0.15566368488641807,9.427970438265376,-0.008158100742812754,0.14934215114501012,0.0012322092434623468,0.9887511562289226,-4.293242622737899e-08,7.032607880045606e-06,0.009602640635054924
1729497809.7832289,-2.9163593706341455,-0.1599570170841946,9.425255676045163,-0.008385328818416995,0.14945029033262783,0.0012674705807905373,0.9887328711529859,-2.575945573642739e-08,4.2195647280273636e-06,0.010869865118577335
1729497809.7912283,-2.9136370493824404,-0.16708199955715738,9.437273768175926,-0.008748032162284782,0.1491400907573274,0.0013194916267375673,0.9887764986102929,-1.5455673441856432e-08,2.531738836816418e-06,0.011204509747228749
1729497809.7992632,-2.89763844667048,-0.16585032522257567,9.442329841960243,-0.008680068551611828,0.14830075107567697,0.0013017052441637654,0.988903356857376,-9.273404065113859e-09,1.5190433020898507e-06,0.010979606462957566
1729497809.8072245,-2.8985737723479907,-0.1672661021159673,9.441772183740598,-0.008754592343537317,0.1483532308978485,0.0013133571360104083,0.9888948129543917,-5.564042439068315e-09,9.114259812539104e-07,0.010844664492394856
1729497809.8151987,-2.9044022114068415,-0.16524252625981475,9.44311352997092,-0.008647119866102324,0.1486130138659739,0.0012995557943279396,0.9888567694982072,-3.3384254634409887e-09,5.468555887523463e-07,0.009486629125671135
1729497809.8232129,-2.909575216004261,-0.1637889605801076,9.451579783021616,-0.008563228857893396,0.14873628461350263,0.0012880386690920758,0.9888389806774839,-2.003055278064593e-09,3.281133532514077e-07,0.007820427782712839
1729497809.8311875,-2.914594380090838,-0.16890232532267394,9.443970266053203,-0.008837123742513154,0.14908647242625098,0.001332440558346354,0.9887837749405148,-1.2018331668387558e-09,1.9686801195084462e-07,0.0068207069769378615
1729497809.8392317,-2.9152116768826275,-0.15305615105297934,9.437249774378015,-0.008013741495524803,0.14922019453945792,0.0012093926033266292,0.9887707777126002,-7.210999001032534e-10,1.1812080717050677e-07,0.006646564554934907
1729497809.847194,-2.910075391139342,-0.14666090864936573,9.445906748171732,-0.007672378059662371,0.1488488936687142,0.001154926071586174,0.9888295139275924,-4.3265994006195203e-10,7.087248430230406e-08,0.006116389040271102
1729497809.855176,-2.908190720523449,-0.15287941017985382,9.443678907301475,-0.007999589479745758,0.14878974863668112,0.0012036952455468134,0.9888357641117885,-2.595959640371712e-10,4.252349058138243e-08,0.003669833424162661
1729497809.8631818,-2.900356153505476,-0.15230094810986539,9.434920177632838,-0.007977034885077948,0.1485439732810166,0.0011982737647782797,0.9888729033886587,-1.5575757842230271e-10,2.551409434882946e-08,0.0022019000544975967
1729497809.8711696,-2.8961342536267227,-0.1658402404967786,9.435171603650016,-0.00868607870504555,0.14833387578235432,0.0013029041255851307,0.9888983343968956,-9.345454705338163e-11,1.5308456609297676e-08,0.0030239002785466844
1729497809.8791287,-2.892404012869393,-0.15983802613400466,9.434604198762274,-0.008372501768896309,0.14816548153140707,0.0012544066211420128,0.9889263459736144,-5.6072728232028974e-11,9.185073965578606e-09,0.003517100412976137
1729497809.8871653,-2.881307322272417,-0.15192713452805906,9.437136797821818,-0.007956779923445696,0.14759910823346978,0.0011874583841764354,0.9890145513815861,-3.3643636939217385e-11,5.5110443793471635e-09,0.0042387105550958405
1729497809.8951418,-2.8686638037638406,-0.1586727675332417,9.448472584064184,-0.008301031954933421,0.14682579521590308,0.0012322036558437381,0.9891267665986253,-2.018618216353043e-11,3.306626627608298e-09,0.005523056763291725
1729497809.903147,-2.870415079133304,-0.1517068196996325,9.453598114647495,-0.007932361603232116,0.14683727209664346,0.0011775686836168933,0.9891281547375989,-1.2111709298118258e-11,1.983975976564979e-09,0.006719354549671288
1729497809.9111774,-2.864762079706545,-0.14968203249360762,9.456912853163496,-0.00782415810020223,0.14651897517699922,0.001158931626850841,0.9891762377557344,-7.267025578870955e-12,1.1903855859389872e-09,0.007862823282961057
1729497809.919161,-2.859215498556349,-0.14894600050202395,9.460577637435208,-0.007783063540348659,0.14620041208194862,0.001150282883531166,0.9892237058816793,-4.360215347322573e-12,7.142313515633923e-10,0.00897459458439695
1729497809.9271219,-2.8554087095342,-0.15401104512543312,9.454396802187686,-0.008053060382374213,0.14610596004922974,0.0011894035081639561,0.9892354532546159,-0.0017027602484642555,4.2853881093803535e-10,0.01049303748818255
1729497809.9351044,-2.8555188377810667,-0.14962804675299424,9.454997864027456,-0.007823427776690692,0.1461038303827134,0.0011554683185133426,0.9892376507282197,-0.0027244163949266794,2.571232865628212e-10,0.011829793291915941
1729497809.9431052,-2.871386645686218,-0.17189794499515593,9.452246038973113,-0.008989056581093934,0.14689709779948898,0.001335004478500186,0.9891100329502839,-0.0016346498369560075,1.5427397193769272e-10,0.013057536835618007
1729497809.9511523,-2.8660632801363404,-0.15629004385256232,9.452989145600665,-0.00817274157040079,0.14663628668589773,0.0012115586513115348,0.9891559724572404,-0.0009807899021736044,9.256438316261562e-11,0.013794182961839246
1729497809.9591389,-2.852334773501726,-0.15961457196583426,9.454871530573289,-0.008345784244133595,0.1459500210845912,0.0012312964418397698,0.9892559947454602,-0.0005884739413041626,5.553862989756937e-11,0.013810480576109958
1729497809.9670908,-2.854392736659629,-0.15825740650957867,9.463422986703348,-0.008267392844036358,0.14592548570926706,0.0012195206176414577,0.9892602870860328,-0.00035308436478249754,3.3323177938541625e-11,0.012543188960286292
1729497809.9751635,-2.872386926175465,-0.15313354424754408,9.479806608184118,-0.007985172485053718,0.1465510240022491,0.0011830474010343047,0.9891701748350095,-0.0002118506188694985,1.9993906763124973e-11,0.01135712392933006
1729497809.9831538,-2.871451851750201,-0.1529322688825108,9.463779403142892,-0.007987947058991961,0.14673865448356047,0.0011850070145956423,0.9891423334083485,-0.0001271103713216991,1.1996344057874984e-11,0.009368414726370226
1729497809.9911551,-2.8732850087551984,-0.15640280615372523,9.453684239786126,-0.008177605324028447,0.14697204758394528,0.0012151167652101583,0.9891060951644135,-7.626622279301946e-05,7.19780643472499e-12,0.007749499143132294
1729497809.9991865,-2.8822857684367125,-0.1560909268562976,9.448105982104096,-0.008165461636235013,0.14748441178334631,0.0012176358641370559,0.9890299241580559,-4.575973367581167e-05,0.0017027602501668102,0.006352459731727503
1729497810.0071342,-2.8848131822534335,-0.16284698409229417,9.453617573637459,-0.008513791246715361,0.14752281341195003,0.0012699206499675957,0.9890211940010047,-2.7455840205487003e-05,0.0027244163959482125,0.0038114758390365017
1729497810.015139,-2.873640361744638,-0.15564787063115776,9.466022494866069,-0.00812774252025578,0.14680998277897853,0.0012063460153288565,0.989130584648585,-1.64735041232922e-05,0.004188790206341117,0.0022868855034219007
1729497810.0231504,-2.8705279719295955,-0.13552667159744464,9.469155884614954,-0.007075080379979854,0.14662134521524323,0.0010487187475925015,0.9891668335290452,-9.88410247397532e-06,0.005918794615500923,0.0013721313020531405
1729497810.031207,-2.8617173532261164,-0.13662206130807616,9.469359977302176,-0.007132575352020085,0.14619656285451774,0.001054111534658238,0.9892292859733002,-5.930461484385192e-06,0.00780817738392087,0.0008232787812318843
1729497810.03922,-2.8506848980196544,-0.1423071186207832,9.476186197562946,-0.00742469848135055,0.14556852936752018,0.0010924703417408918,0.9893197074852956,-3.558276890631115e-06,0.008941807044972837,0.0004939672687391306
1729497810.047156,-2.847896147552027,-0.14476047234434491,9.47908482888933,-0.007550573800548711,0.14539268056282312,0.001109621633471322,0.9893445941702365,-2.134966134378669e-06,0.00962198484160402,0.00029638036124347833
1729497810.055186,-2.848377678765591,-0.13450089644371632,9.489443133661723,-0.007008005184097184,0.14526969654579922,0.0010289923304687132,0.989366739032405,-1.2809796806272015e-06,0.010030091519582729,0.000177828216746087
1729497810.0632102,-2.856806883138261,-0.1345700752197454,9.465251755441175,-0.007028705400553415,0.1460214008643207,0.0010374882678171654,0.9892559180556404,-7.685878083763209e-07,0.00984926546490792,0.0001066969300476522
1729497810.0711834,-2.876708456054831,-0.13939998580567536,9.46414445780572,-0.007280685117535763,0.14698867519102782,0.001081959951517435,0.9891107877040212,-4.6115268502579255e-07,0.009315079770641005,6.401815802859132e-05
1729497810.0791478,-2.8802696939942267,-0.13008750369043645,9.453903272583823,-0.006801392973145095,0.14731059661307366,0.0010129929370334735,0.989066379483417,-2.766916110154755e-07,0.008994568354080856,3.8410894817154794e-05
1729497810.0871499,-2.882406436757864,-0.12234523292715249,9.459729569751465,-0.0063926964566833845,0.14732982414472787,0.0009522464196322088,0.9890663019111775,-1.6601496660928528e-07,0.00965364162706883,2.3046536890292877e-05
1729497810.095175,-2.8822519614199527,-0.12009407212933837,9.45125433975127,-0.006280595833381834,0.1474465630327219,0.0009363051487712273,0.9890496390467385,-9.960897996557116e-08,0.010049085590861614,0.0017165881679823021
1729497810.1031578,-2.8823986963832215,-0.11826453531861864,9.448563403411308,-0.00618664312055882,0.14749329977506562,0.0009225970500977605,0.9890432754854788,-0.0017028200112361057,0.010286351969137285,0.0027327131466375076
1729497810.1112156,-2.878656014704933,-0.12818014086890556,9.43832971563077,-0.006712581299833582,0.1474611179930125,0.0010008090380369977,0.9890445684163143,-0.0010216920067416633,0.010854401857564719,0.0033423881338306306
1729497810.1191947,-2.876889246029991,-0.13412950419907768,9.439850948274946,-0.007023081205559889,0.14735267863650148,0.0010463180891399425,0.98905852690702,-0.000613015204044998,0.01119523179062118,0.002005432880298378
1729497810.1272483,-2.882054109141432,-0.12860115588858725,9.450579914668092,-0.00672591482823599,0.14744486547239524,0.001002684107368398,0.989046898958857,-0.0003678091224269988,0.010974039688993024,0.0012032597281790268
1729497810.1352131,-2.875576220367672,-0.13294559221479296,9.452228891183669,-0.0069522517252941125,0.14710956554970128,0.0010340184651086884,0.9890952293513199,-0.00022068547345619927,0.01084132442801613,0.000721955836907416
1729497810.143202,-2.8846181760682597,-0.13291863218434455,9.458724940911372,-0.006945699810897054,0.14744762436176204,0.001035470584373863,0.9890449348360663,-0.00013241128407371955,0.010336005209967962,0.0004331735021444496
1729497810.1512098,-2.887649147828456,-0.1379302796524036,9.454242864937449,-0.007210722341288396,0.14765669584174443,0.0010765406764457882,0.9890118031229898,-0.0017822070162923581,0.010458503740601094,0.00025990410128666974
1729497810.1592393,-2.882045705738089,-0.1435708899594109,9.452032459685125,-0.007507587656431916,0.1474192814355096,0.0011190221058922805,0.9890449632742414,-0.0027720844556235412,0.010532002858980972,0.00015594246077200183
1729497810.1672096,-2.884429724468244,-0.15533496195416216,9.436819846904825,-0.008135296223625021,0.1477523510159402,0.0012153903684971681,0.988990183242922,-0.003791700980684283,0.01100179239147093,9.356547646320109e-05
1729497810.1752012,-2.8899302785286025,-0.15928094299280982,9.442536329529613,-0.008336629460377689,0.1479308773504086,0.001247009678143919,0.988961779394149,-0.003977780834258696,0.011709356172426938,5.613928587792065e-05
1729497810.1832066,-2.8944277117948958,-0.15997259045388898,9.425615504993159,-0.008387233957188543,0.1483945114849222,0.0012586001746457392,0.988891874369134,-0.0045151188078653755,0.010856824256614446,0.0017364438173748788
1729497810.1912613,-2.9035905162370934,-0.1745133687254584,9.437729085710739,-0.009137294605959578,0.14865027797513097,0.0013735814028351186,0.9888466604986488,-0.004411831530567352,0.009068234922740857,0.0031703165977350857
1729497810.199218,-2.9112429803965525,-0.1762946508739469,9.457686502940113,-0.009210957837323138,0.1487220042210339,0.0013853391789966796,0.9888351756241062,-0.00477554922565057,0.007995081322416704,0.004456330327413241
1729497810.2072067,-2.9091306942437907,-0.1665895126923369,9.447394877838287,-0.00871341610198517,0.14877567696447436,0.0013109858460874924,0.9888317124969787,-0.0049937798427005,0.0073511891622222115,0.006079318688144197
1729497810.2152174,-2.9088210032161963,-0.161963530613449,9.448163087591643,-0.008470854456444143,0.14875107461134776,0.0012742726836699927,0.9888375693994816,-0.004699028151468426,0.006964853866105516,0.007053111704582771
1729497810.2231708,-2.9182119952402648,-0.16397634468642877,9.442877929459284,-0.008580183046864023,0.149277088424157,0.001295388370185938,0.9887573278107521,-0.002819416890881056,0.00715874274989753,0.007211697452983884
1729497810.2311542,-2.91594572497619,-0.16997243645052912,9.45143842271463,-0.008886138900930006,0.14904062578935875,0.0013394101721560738,0.9887902378058455,-0.0016916501345286335,0.007700766141634771,0.006455468779100488
1729497810.2391596,-2.9021361141849327,-0.16495096553242686,9.44795559269128,-0.008627688885371427,0.14843359588652638,0.0012950346291836427,0.9888838928216,-0.00101499008071718,0.007600290115215083,0.0038732812674602927
1729497810.24715,-2.889301364555881,-0.1717543097882061,9.455442701317892,-0.00897736648961879,0.14770794417818234,0.0013407913063661315,0.9889893692028437,-0.000608994048430308,0.00711431443790124,0.0023239687604761756
1729497810.2551942,-2.872502548469857,-0.1791881986658924,9.4544283026755,-0.009367993810139552,0.1469163072884111,0.0013914731250123176,0.9891035856507916,-0.0003653964290581848,0.0063970389700509014,0.0013943812562857052
1729497810.263216,-2.8772673091112106,-0.17574766651398854,9.453580243324051,-0.009188644954351788,0.1471579550634979,0.001367125734860058,0.9890693787761592,-0.00021923785743491086,0.006392363750802731,0.0008366287537714231
1729497810.2712111,-2.8703099386893824,-0.1760775488830025,9.458578071531539,-0.009201610678598779,0.14675210899793945,0.0013651960560163668,0.9891295593122799,-0.00013154271446094652,0.005538178496329765,0.0005019772522628539
1729497810.2791877,-2.8690085584284732,-0.17627547830441087,9.457506625633767,-0.009213062453095498,0.14670529357968953,0.0013664495998129771,0.9891363956156014,-7.892562867656791e-05,0.0033229070977978587,0.0003011863513577123
1729497810.2872226,-2.8696642512680213,-0.16681742931663085,9.446089850624402,-0.008729116690720655,0.14690581931985086,0.001296475206121925,0.9891111170762378,-4.735537720594075e-05,0.001993744258678715,0.0023091621181247856
1729497810.295155,-2.860720280497141,-0.14845333112513476,9.43445138229847,-0.007778253225661758,0.14665184654245228,0.0011531994365777793,0.9891569161733168,-2.8413226323564447e-05,0.0011962465552072291,0.003939637639647061
1729497810.3031833,-2.86205766268305,-0.15132124183914336,9.437045107943534,-0.007926278789771712,0.1466774568032832,0.0011753567818891478,0.9891519177086516,-1.7047935794138666e-05,0.0007177479331243375,0.005343613014022457
1729497810.3111591,-2.8559169071801422,-0.150168946275361,9.444586847480965,-0.007860149032997886,0.14627359405118756,0.0011622705165510799,0.9892122638078108,-1.02287614764832e-05,0.0004306487598746025,0.006611688300109727
1729497810.3191624,-2.8565420168666793,-0.14828046810701348,9.443844647551078,-0.007761880549780899,0.14631489936703593,0.0011480699505658945,0.9892069476954425,-6.13725688588992e-06,0.00025838925592476145,0.006946843410300057
1729497810.3271625,-2.860987225500867,-0.1368523140673331,9.439808025102911,-0.007166516624517328,0.14658997830777068,0.0010620405554863615,0.9891708100065713,-3.6823541315339516e-06,0.0018577937994029832,0.007999316599338318
1729497810.3351617,-2.8591053675270826,-0.1429241106083686,9.433315908811746,-0.007489570331139635,0.14659241110800725,0.0011099370066449715,0.9891680036180089,-2.209412478920371e-06,0.0032431265869519482,0.008630800512761275
1729497810.3434572,-2.862285815731093,-0.13722980205838053,9.44306758849994,-0.007183784481900473,0.1466047922662087,0.001064709648676923,0.9891684864159712,-1.3256474873522224e-06,0.004074326259481327,0.0077326206764289545
1729497810.3512187,-2.853180757016781,-0.12902481360807516,9.446045554320666,-0.006752702691690152,0.14612690877499715,0.000997482182035284,0.9892423022533547,-7.953884924113334e-07,0.004147356001536922,0.0063423326517054995
1729497810.3591692,-2.8496330831163186,-0.12960848435625136,9.450465955639274,-0.006780320872927461,0.14589256435525758,0.0009999208516273102,0.989276698943727,-4.772330954468e-07,0.00419117384677028,0.0038053995910232994
1729497810.3671992,-2.8604331677408847,-0.12828274564304767,9.454075877094501,-0.006707926410752284,0.14635848620257827,0.0009924723428436436,0.9892083765508692,-2.8633985726807996e-07,0.005068844676834357,0.0022832397546139797
1729497810.3752253,-2.853266269052734,-0.13443048722957862,9.453129367809435,-0.0070304121787878905,0.1460270587939536,0.0010377812995274688,0.9892550704517808,-1.7180391436084797e-07,0.005595447174872804,0.0013699438527683878
1729497810.3831577,-2.8484872895078124,-0.1306971070350128,9.446336537921988,-0.006840246406357143,0.14589704422853972,0.0010087903872342363,0.9892756167299538,-1.0308234861650878e-07,0.0063370987351579035,0.0008219663116610326
1729497810.3911886,-2.8429862799546872,-0.13348490240460142,9.444894461815693,-0.006987460138971206,0.14565309946129393,0.0010287419500049565,0.9893105132910117,-6.184940916990527e-08,0.007207779732790995,0.0004931797869966195
1729497810.3991766,-2.836573212064609,-0.12821439481190147,9.454324283290587,-0.006705374277833478,0.14521053567841016,0.0009841450053594712,0.9893775668279485,-3.710964550194316e-08,0.007730188331370849,0.00242435817950813
1729497810.4071944,-2.8253033461840777,-0.10733499797112525,9.456869714017321,-0.005612523781788889,0.1446375935718238,0.0008204222602308782,0.9894684396229451,-2.2265787301165894e-08,0.00761794342905673,0.003583065215015036
1729497810.4152017,-2.8257240316362275,-0.10055344385103453,9.469889140422111,-0.005250854582155356,0.14447258505378655,0.0007666586101524679,0.9894945744816436,-1.3359472380699536e-08,0.007124906426206228,0.00427828943631918
1729497810.423206,-2.8283706445676744,-0.10175175503132385,9.461420224975923,-0.00531797650141829,0.14472069890876987,0.0007778211055985208,0.9894579492972985,-8.015683428419721e-09,0.007680464347419989,0.004695423969101666
1729497810.4311671,-2.845999763449589,-0.0964852375891068,9.447719749731647,-0.005049242947737248,0.1457651809968836,0.0007439596786091076,0.9893060515728169,-4.8094100570518324e-09,0.007588109038686215,0.004945704688771158
1729497810.4391596,-2.849394629798269,-0.11678850339330783,9.447879170395629,-0.006111384751616503,0.14592160606554092,0.0009014494387944709,0.9892768688534974,-2.8856460342310993e-09,0.00753269585344595,0.005095873120572853
1729497810.4471536,-2.853825751267633,-0.11771771507309407,9.44893250345808,-0.006159127607068058,0.146118738279093,0.0009097460286405864,0.989247467438259,-1.7313876205386595e-09,0.007925138003763823,0.006037354302577933
1729497810.4552057,-2.862230508133627,-0.1199511832430752,9.448367402465474,-0.006275943811413571,0.14652947512181458,0.0009296641792762936,0.9891859588440969,-0.0017027612846806986,0.008586293355416578,0.006602243011780981
1729497810.4631467,-2.876850168893848,-0.128234448959517,9.447788921703893,-0.006708939462908615,0.14723648264389913,0.0009987084818363404,0.989078061070664,-0.0031501070781185777,0.009408676627870264,0.006515486175840779
1729497810.4712136,-2.873172116717168,-0.13655629071360081,9.44001980810046,-0.007150204889435968,0.14717138371425229,0.0010639186555966732,0.9890845901452341,-0.0018900642468711465,0.009476416529880443,0.007740502258662752
1729497810.4792027,-2.877429629893582,-0.13412737061956673,9.449962970065355,-0.0070155898978747685,0.1472310266689345,0.001044319924664967,0.9890766985832248,-0.002836798793970814,0.009517060471086549,0.008049821846893904
1729497810.4872584,-2.874238053815055,-0.14966885035025565,9.446830900935696,-0.007831079806699679,0.1471194935919353,0.0011648160872179565,0.9890870396470659,-0.0017020792763824885,0.009541446835810215,0.0073840334769085325
1729497810.4951835,-2.8754355703261427,-0.1539659147023409,9.435135432651261,-0.008065565542934965,0.14734626030062922,0.0012015866660534619,0.9890513547927507,-0.0010212475658294932,0.009130388593182381,0.0074102505163793405
1729497810.5032086,-2.862028290437873,-0.1464885063409358,9.440807420479429,-0.007670193049833193,0.14662273290022698,0.0011369467884075081,0.9891620947486045,-0.0006127485394976958,0.00845806358614365,0.006574600617137763
1729497810.5112038,-2.867630871967801,-0.15110002763268648,9.45402683998297,-0.007900454511582358,0.14669786484914538,0.0011716937371712539,0.9891491022090646,-0.0003676491236986175,0.008480358643382441,0.003944760370282657
1729497810.519524,-2.8640492360713057,-0.14979679758547126,9.450945164048374,-0.007835035017792681,0.1465713909629504,0.0011609671310546723,0.9891683839128587,-0.00022058947421917048,0.008919425739187749,0.0023668562221695944
1729497810.5274158,-2.8750683636642678,-0.16050702752589213,9.448138477823557,-0.00839685805146323,0.1471369319262487,0.0012491287909028584,0.9890797013969389,-0.0001323536845315023,0.008757175935208902,0.0039742541020739465
1729497810.5352387,-2.8680328907571546,-0.15998998067569153,9.44334200393046,-0.008374416272255306,0.14686979308207096,0.0012434783243300872,0.9891196018651058,-0.0017821724565670277,0.008234135991359562,0.005364382891478589
1729497810.5432713,-2.8707547918273395,-0.1505817862569774,9.440464119594605,-0.007884242679009591,0.1470450670138781,0.0011721178008497694,0.9890976762302718,-0.0010693034739402167,0.007068931902125895,0.006624150226583405
1729497810.5511868,-2.879809957615935,-0.16049918039676458,9.454299699784107,-0.008390795939894908,0.14727418347274396,0.001249417087014434,0.9890593250067835,-0.00064158208436413,0.007221189571509759,0.007380010627646295
1729497810.5591714,-2.882848855428936,-0.16405541522048062,9.451348300095074,-0.00857909648017344,0.14746154298786773,0.0012791190537980684,0.9890297550112773,-0.00038494925061847795,0.007312544173140076,0.00783352686828403
