Seq,Time (secs),Time (nsecs),Orientation_X,Orientation_Y,Orientation_Z,Orientation_W,Angular_Vel_X,Angular_Vel_Y,Angular_Vel_Z,Linear_Acc_X,Linear_Acc_Y,Linear_Acc_Z
125854,1729159828,660555414,0.00795785054547975,0.06301945374970974,-0.0005025142495781712,0.9979804449703475,-0.004589636531043079,0.018928452218034332,-0.0009979995472246229,-1.2250830287538756,0.15408442272263803,9.660341040674473
125855,1729159828,668566999,0.0073185332551360185,0.0630881210099784,-0.00046264658634517287,0.99798101886587,-0.006159302410322099,0.01774242225275107,-0.0005987997283347737,-1.2311284012367005,0.14225004816483283,9.697556229629292
125856,1729159828,676555863,0.007326568948172508,0.06399372335276604,-0.00046983012465380547,0.9979232956588153,-0.007101101937889512,0.01788218439650518,-0.0003592798370008642,-1.2440930112010045,0.14185318807858718,9.65931204100023
125857,1729159828,684553696,0.007854302769933649,0.06589299192775042,-0.0005186868776452639,0.9977956476687652,-0.006814801531505897,0.01754035162129561,-0.0002155679022005185,-1.2779685752752903,0.15167071899949605,9.632534805166545
125858,1729159828,692529623,0.007322857131406131,0.06417433775372151,-0.00047092292403774755,0.9979117237355737,-0.004088880918903538,0.01648387183324581,-0.0001293407413203111,-1.2432272755362679,0.14128066626297886,9.625087589642895
125859,1729159828,700526533,0.007539248365375065,0.06406213954038834,-0.0004839883760972907,0.9979173150952161,-0.002453328551342123,0.016275674021877958,-7.760444479218665e-05,-1.248239873622542,0.14629938242380294,9.680953142164643
125860,1729159828,708522381,0.00812471106068697,0.06585575395434243,-0.0005362408841315557,0.9977959316348206,-0.0014719971308052736,0.015299375212133186,-4.656266687531199e-05,-1.2876392977086815,0.15816915826287553,9.710881171187458
125861,1729159828,716564584,0.01288014908306548,0.06459454423779161,-0.0008337982718943065,0.9978281171598402,-0.0008831982784831641,0.013010835680438195,-2.7937600125187192e-05,-1.2859004145627086,0.2553130061881941,9.887094718337474
125862,1729159828,724520810,0.0051587405484736035,0.06866987822104735,-0.0003550930631325992,0.997626036714147,-0.01968597173288132,0.012914782145807296,-0.0029965929903093334,-1.4627462680247347,0.10937391333205707,10.57437442987944
125863,1729159828,732558546,-0.0029560845113169626,0.06631907662454925,0.00019647821270273134,0.9977940684511715,-0.15782327412120561,0.007748869287484378,-0.04521834206331283,-1.4776346968499972,-0.06557790297732827,11.06646917208782
125864,1729159828,740554506,0.009421931126304671,0.05595421728059503,-0.0005280476040111093,0.9983887388928698,-0.3926770074961455,0.0016694911422564054,-0.10460659642407746,-1.1406056142525764,0.19145429825266555,10.142119691729254
125865,1729159828,748564173,0.026202396513899162,0.05488027473371851,-0.00144066276586295,0.9981480423027813,-0.5855234350194772,0.018880677266759172,-0.14194230928638435,-1.043733037740999,0.49650832358050556,9.44984340805513
125866,1729159828,756567021,0.045300810035780376,0.06068806051130381,-0.002757146578560612,0.9971244626746567,-0.7961601752395093,0.09944624908269604,-0.1605125264506102,-1.1900743136113963,0.8832873000565064,9.70030511954011
125867,1729159828,764558373,0.05713162065919802,0.06860152484369779,-0.003935059844186631,0.9959991586412087,-0.9851186584064473,0.18184079708922068,-0.17250603687206978,-1.3595213557449626,1.1232555514206226,9.75792654218305
125868,1729159828,772552717,0.05789870347890926,0.06374156219452334,-0.0037043391692171174,0.9962785911861112,-1.2249236965608334,0.2887456841905097,-0.20183802632097117,-1.3244806662301805,1.1942133516043265,10.239018005387953
125869,1729159828,780570743,0.06043657676298717,0.05319882214836323,-0.0032256439664022957,0.9967481631446332,-1.3939224330797249,0.3392665344844982,-0.21305186906838153,-1.1001885315740458,1.2418158552008771,10.202061457529647
125870,1729159828,788844985,0.07243509408400667,0.04508282855971722,-0.003277547518167105,0.9963483092756079,-1.4685032011189518,0.3495716117721757,-0.18104237912378285,-0.9277848645498963,1.4798700026224794,10.12362378980099
125871,1729159828,796553132,0.059518107993901705,0.054470706204750585,-0.0032526143067223403,0.9967346474797361,-1.433647620449088,0.338727055686301,-0.08095557347923765,-1.1260120735150938,1.2223919734973157,10.19842605366575
125872,1729159828,804738640,0.06316740818173314,0.06331930768533589,-0.004015843600497725,0.9959841448627726,-1.373570786392663,0.33179463197331416,-0.002598817449643173,-1.308634163054369,1.2951148935710455,10.168368900021717
125873,1729159828,812537082,0.049268366469859944,0.06821397432546884,-0.0033727720357117305,0.9964477438285015,-1.2732454866780412,0.30464791442657235,0.06612542930267712,-1.3281854343560586,0.9525639178320804,9.608287351975921
125874,1729159828,820531977,0.041881204335137194,0.08803087556017765,-0.003704509498093776,0.995230026818386,-1.1406829964007226,0.25898726965764707,0.12140774938231634,-1.6217137325374633,0.7642715843418262,9.063224618216802
125875,1729159828,828860346,0.03309808213274105,0.09788622520814524,-0.003257299775916623,0.9946417414686578,-1.0121911451661978,0.2183944908909689,0.1494688606925555,-1.6948800400595874,0.5670202858101738,8.508737820246488
125876,1729159828,836556057,0.007728994097603536,0.096624088078198,-0.0007503406203045039,0.9952906536496007,-0.8282478289985131,0.15913223859107542,0.14970361508167976,-1.6827555057252053,0.1333531480486043,8.584017704354924
125877,1729159828,844559025,-0.020101015675517926,0.09120695695890323,0.001841404260762055,0.9956273647311317,-0.6642448915536863,0.09292520278587306,0.1579325788829329,-1.7015775832202795,-0.3717739644423218,9.20187867192936
125878,1729159828,852561413,-0.037578514585393824,0.08761024143932243,0.003307343276318313,0.9954402856610494,-0.5036923801133336,-0.061735335291996894,0.2113986241703564,-1.6293131917778707,-0.6925673242220338,9.158398365266992
125879,1729159828,860561618,-0.05100262157141867,0.07435960892036342,0.0038080753188792452,0.9959191130390154,-0.36904876771753914,-0.33332148395277217,0.27327655564515274,-1.3494074328889882,-0.9180833230000172,8.93909810729496
125880,1729159828,868838103,-0.05009457598844962,0.06440500916033565,0.003237152262938671,0.9966604482454499,-0.2597413661621063,-0.5835396357489537,0.32487677661973957,-1.1247213982099553,-0.869039394434776,8.622446164181662
125881,1729159828,876559481,-0.05890880562455597,0.08082042314943273,0.0047850804344550775,0.9949748312530678,-0.14988515883679532,-0.7983754161688914,0.38265538307659963,-1.3432939424415982,-0.9693787672761001,8.156642967063684
125882,1729159828,884833502,-0.059473988730886364,0.07950566412464051,0.00475205451370619,0.9950472913457113,-0.06694383198312748,-0.9179117030686894,0.42753910842580445,-1.2955906049669121,-0.959671702504332,7.998307652796804
125883,1729159828,892554738,-0.05957920587424129,0.049590620023574075,0.002963499932283464,0.9969866128997037,-0.0010028135353695802,-0.9798426037949415,0.4740510864625808,-0.8149433290446004,-0.9732404970885365,8.113517369998394
125884,1729159828,900726766,-0.058882742500320884,0.015344990252315551,0.0009052329140104967,0.9981465495923776,0.040690247840595314,-1.021683734906775,0.5219657061733621,-0.24786989024902586,-0.9476235304308561,8.003796336305678
125885,1729159828,908527417,-0.04161084976183207,-0.006214543015682263,-0.00025882159379641894,0.9991145327982108,0.07805109644857317,-0.895668441754854,0.593283484146034,0.09692315618261574,-0.6478221932096856,7.763905255396688
125886,1729159828,916959589,-0.02596620212309597,0.004585344266690105,0.00011910538922189861,0.9996522979412215,0.10429881616651818,-0.571456269969875,0.6543788235725045,-0.07592139925918055,-0.42963416431448315,8.264489693765356
125887,1729159828,924657901,-0.024635325504246887,0.013370859519115688,0.0003295249703084349,0.9996070289200221,0.11281071695243064,-0.3407453116746148,0.6893332669825387,-0.23469477070785205,-0.4320783794480649,8.760686052587339
125888,1729159828,932557622,-0.021302107486996003,0.010713433601743042,0.0002282836254932468,0.9997156547957323,0.1081269860103514,-0.2087040876193892,0.6949810908159261,-0.17816640832314876,-0.3540574134110265,8.304230344931309
125889,1729159828,940557063,-0.03209501471117953,-0.006944232327282796,-0.00022299550608021333,0.9994606735340206,0.10914795799826213,-0.1252224525716335,0.7013496155461927,0.11887337155884513,-0.5488197812985689,8.536491151294722
125890,1729159828,948583559,-0.06485131745386184,0.0030185348730831867,0.00019616981235809981,0.9978903529893066,0.12593676352656574,-0.10152625535362605,0.7473140464690937,-0.06586373219164605,-1.40907681750961,10.795194944683082
125891,1729159828,956536143,-0.07873618596243735,-0.009967846057006763,-0.0007873138871045799,0.9968453416663567,0.23732428147151147,-0.20394761386341825,0.7374319796141757,0.27053087567524675,-2.1234709366971725,13.358291958264928
125892,1729159828,964538896,-0.0885231112543487,0.0034665922221322246,0.00030808490550611944,0.9960680431556403,0.3624763306587772,-0.29221890284140156,0.6744602712653127,-0.10176191771008634,-2.578204206305413,14.390494775789033
125893,1729159828,972923538,-0.11042685022488109,0.026589833671547183,0.0029553702326949594,0.9935241100655378,0.5295166134469356,-0.19023049385601204,0.5196124793539362,-0.7225750693272237,-2.9621351251016073,13.160535103998809
125894,1729159828,980535366,-0.1189702745472428,0.04426229753778883,0.005308918318506136,0.9918965360243563,0.7408458891614208,0.0042035407728375496,0.3590190844346472,-0.9734375159615686,-2.57431080772698,10.576629820944206
125895,1729159828,988536643,-0.10553709230607738,0.04192334362275645,0.0044533196200288215,0.9935212747351858,0.9021243495685365,0.12980345284084996,0.23712164379535194,-0.7851754490300662,-1.9511219265307191,9.079916768298945
125896,1729159828,996534072,-0.11471856507192982,0.02545249128412374,0.0029402564323523983,0.9930675588334265,1.0265612798078378,0.1642971541813024,0.10736640123732458,-0.46966874842194595,-2.087652391758275,8.915232905217648
125897,1729159829,4547146,-0.09681137294957373,0.011642749074497463,0.0011325482437334038,0.9952340035368981,1.104628958443115,0.16115473154370008,0.014614103551337056,-0.22170678738324567,-1.8260027326623869,9.29693886056223
125898,1729159829,12532308,-0.07680140932241948,0.019917976371707988,0.0015345682880787412,0.9968462583786506,1.1314621327355658,0.16906014937476543,-0.09254577249716128,-0.3901613307307287,-1.4949544765114946,9.644235995780697
125899,1729159829,20529830,-0.06496680654544783,0.03380019858067087,0.0022018085546851303,0.9973123947200707,1.1347913354671753,0.192108072716272,-0.18664000242860251,-0.6789394668954685,-1.2980014639830684,9.9203701838942
125900,1729159829,28534410,-0.057599525792556776,0.03877404919932633,0.002238775708218326,0.9975840093047247,1.1427485179666093,0.22892409004012565,-0.2575700024771763,-0.7459037948833748,-1.1027363630089817,9.517188382309175
125901,1729159829,36556081,-0.07002598860393446,0.0550291078832644,0.0038688709352747612,0.9960186695254762,1.1998827050260998,0.28592028547432446,-0.2796948795561431,-0.9433814407483843,-1.1909998048659358,8.427731913662848
125902,1729159829,44542843,-0.08528025400099727,0.07217303683202198,0.006193830519803737,0.9937202662195538,1.2626844513797502,0.34821354679133776,-0.2899899753732889,-1.1827752121052806,-1.380187944442999,7.981156476078567
125903,1729159829,52824859,-0.09819187188227259,0.0773533487490405,0.007655742920581084,0.9921271114801261,1.3531510668132323,0.4141107376995019,-0.31149187507620957,-1.350353491520981,-1.6873917424958775,8.440090837551438
125904,1729159829,60544508,-0.1131834496096783,0.07629220633425365,0.00871693376080182,0.9906023526384918,1.4299926093308093,0.4374728299088432,-0.3422719974793672,-1.4334227870512606,-2.0869527505756515,9.012332460294534
125905,1729159829,68807573,-0.12014313623880879,0.08583433871333321,0.010427273426458989,0.988984006484047,1.5284574124011854,0.39827882755169397,-0.43140462112395905,-1.7638647989397405,-2.4150353966832814,9.791661556254846
125906,1729159829,76534425,-0.10898400544191864,0.0877712839468405,0.00966117836566352,0.9901138065418267,1.6594779146304943,0.369228455338398,-0.5802387690782094,-1.9350755273130633,-2.3557054067111407,10.569308128821268
125907,1729159829,84704450,-0.09731282389547952,0.08594615231976852,0.008435363082740023,0.9915000342191507,1.7576719587953331,0.34668995127287605,-0.6938035913540952,-1.9884814101378379,-2.213565438850903,11.166380062839634
125908,1729159829,92535593,-0.08764929355817501,0.06812798346246166,0.006008618109452427,0.9938008229602681,1.8072232039420717,0.2905978426873598,-0.7121367475285691,-1.5246857760143433,-1.9374635858203075,10.897342388289719
125909,1729159829,100883966,-0.08051208018242051,0.07966834610677077,0.0064559458039253476,0.9935436982524161,1.8190749684487095,0.24842877630680937,-0.6682226233046513,-1.7027432319660278,-1.6987793233671846,10.411505458608596
125910,1729159829,108540447,-0.0649431362495466,0.08536368148482185,0.005576040142989271,0.9942154387826385,1.7874482315596474,0.23760079856818822,-0.5963253121938633,-1.7700733781444604,-1.33123207033867,10.144902998065549
125911,1729159829,116824037,-0.03926534104256864,0.07878346722455998,0.0031055298980490415,0.9961133238587564,1.7012131597152091,0.21833331008115456,-0.5182803404875039,-1.6237237363593324,-0.8030488051914833,10.169055629405733
125912,1729159829,124530287,-0.0309446524193098,0.07831283121976187,0.002432007938912808,0.9964454898740714,1.5873213676350897,0.17952865305536433,-0.4480404040832765,-1.6374281016788805,-0.6424802145113744,10.332945391803596
125913,1729159829,132741370,-0.013018490852517293,0.08338488187279003,0.0010894326565749476,0.996431780659103,1.399793075177649,0.09366941980497155,-0.4007881615031957,-1.6557063678432657,-0.25668007939041837,9.820039565404423
125914,1729159829,140819892,-0.005893756286826038,0.07910145851459116,0.0004676783552337971,0.9968490378059518,1.2540722749091462,0.019592306597248206,-0.3724368159551472,-1.5172751439481469,-0.11234893874753224,9.499606800766092
125915,1729159829,148565812,0.005420936197511839,0.0713315515946818,-0.00038767707527132065,0.9974378541564999,1.1376928705686262,-0.0933900612227729,-0.2664567857807535,-1.3154640072673256,0.0994664924643713,9.149569252578795
125916,1729159829,156569239,0.016734812506716844,0.057780433663138016,-0.0009686994513335179,0.9981885739465453,1.0099713796054781,-0.22758713150286247,-0.06281673745510888,-1.0164881419092233,0.2933539775098728,8.745855809359776
125917,1729159829,164537745,0.024955469172235772,0.048016288121459735,-0.0012000281964064442,0.9985340357572987,0.8877896484511518,-0.3289641866825558,0.1270520113127409,-0.820582631239284,0.42524877932818933,8.501951802266257
125918,1729159829,172531611,0.04368131540895497,0.045071882222525984,-0.001972692526516684,0.9980263406349844,0.7229572465442192,-0.4187373439697899,0.34697008587749667,-0.7791749376302891,0.7521855322453511,8.576115370910536
125919,1729159829,180536925,0.05402417643957195,0.036424712133662523,-0.0019720093257153096,0.9978731081080525,0.5806374191309325,-0.4900545308620736,0.5342606386064142,-0.6683784818652828,0.9871336508901795,9.089637617321712
125920,1729159829,188534016,0.06263895191813207,0.02350277105580898,-0.0014754964340017087,0.9977583897745833,0.4373516743241241,-0.5869074808031219,0.7794502694199186,-0.4199412822344041,1.11421615244817,8.838944297687949
125921,1729159829,196537044,0.07313178061420657,0.0032012571776910545,-0.00023474342585471568,0.997317120835796,0.3130681219084562,-0.6684322041481626,1.017661721060896,-0.051570090385564336,1.1717908804337458,7.9470440517573016
125922,1729159829,204531238,0.07788287539298863,-0.015970688254932742,0.0012477938801302828,0.9968338065332739,0.2201933178161881,-0.6637100904109711,1.1844272354873562,0.24415171652061451,1.1831119611215755,7.525149642724303
125923,1729159829,212530332,0.139159244603389,-0.012061822604736306,0.0016951347424047033,0.9901951038028167,0.16148860493059303,-0.47825578580144457,1.3355693515186762,0.21137389490260305,2.391075582434664,8.33886925707013
125924,1729159829,220532178,0.12850523065308686,0.009113678131707697,-0.0011809974476412809,0.9916662502126092,0.11179231510952692,-0.36783458315865275,1.4330656621208606,-0.18585839987484437,2.577158381687361,9.776880824261609
125925,1729159829,228524759,0.12748572190064295,-0.018122446088110592,0.0023297551061632732,0.9916720929321349,0.0010934295391012566,-0.3926795347258524,1.4336696001233349,0.41808236730165593,2.8923152023522603,11.063222038258138
125926,1729159829,236550790,0.14717112956148395,0.011706015549515931,-0.0017418780993425894,0.98904023865778,-0.16876858673842784,-0.24667566243352423,1.3769894946889072,-0.32926564187486584,4.049385025952372,13.305306006158006
125927,1729159829,244718242,0.17052750893125984,0.04568342769431798,-0.00791484877899608,0.9842615243422872,-0.3400732765232564,-0.0032707765630237973,1.2876417234381865,-1.4739082901542164,5.330206326850719,14.920143493831521
125928,1729159829,252667295,0.18575038774009892,0.06354682657829806,-0.012039017355401879,0.9804660403845443,-0.5518327461284336,0.3228390509577158,1.136124346551487,-1.8920644528522954,5.316992265348712,13.527644889023522
125929,1729159829,260532953,0.2129560996785494,0.05980637540940518,-0.013060795057867848,0.9751422012724839,-0.7069839719480341,0.537235310174489,1.0069018148878843,-1.6832714317211428,5.699797539385008,12.426389341861379
125930,1729159829,268538281,0.2190299183560095,0.06417532215439561,-0.014438972908815436,0.9734982994092377,-0.8383868129713772,0.6756639371181796,0.853169774888019,-1.6044431312494825,5.189911810984521,10.948494986952765
125931,1729159829,276538252,0.24209650531674806,0.08914215854146307,-0.0223431261989874,0.9658901295673554,-0.9776765063129915,0.7378623002727545,0.5757553741521162,-1.9452462400778145,4.929230785321181,9.213253305648221
125932,1729159829,284538896,0.24063393721224283,0.10917576323103753,-0.027250469075721966,0.964071248881434,-1.100839498033929,0.7717757976738031,0.30543835871383873,-2.1020834923377043,4.3066711066907555,8.086874717763932
125933,1729159829,292738150,0.20889218773437176,0.10736853224648685,-0.023080406315847065,0.971752719075732,-1.2488073637608852,0.7934009662988184,0.0002162887996296492,-1.8626735524338727,3.4224520854011717,7.590373269379062
125934,1729159829,300676579,0.1985907046743764,0.10562584986542688,-0.021533244649171168,0.9741361461479703,-1.3529129254096919,0.8021191668592073,-0.22804009966387112,-1.6929307903958706,3.020728721943828,7.098781486041499
125935,1729159829,308711413,0.19381005105875324,0.09649252024720152,-0.01915923823395717,0.9760941456822909,-1.443046116394008,0.7767004027701743,-0.4424695239280614,-1.4732904114933816,2.8196778715940316,6.818909886497947
125936,1729159829,316606102,0.18236508416710784,0.11162459891961818,-0.020843080428029424,0.976651673316044,-1.4975517210460598,0.6703514711638797,-0.6230613659849433,-1.7992775415737634,2.8041528142650125,7.244748938490566
125937,1729159829,324853061,0.14902009755223392,0.12033850270891874,-0.018274324432130905,0.9813142740008663,-1.5004567795349486,0.5554593048246592,-0.7599377053370286,-2.170843641643477,2.5889364370941643,8.32481542144395
125938,1729159829,332557739,0.13192383436487504,0.11530024526861714,-0.01545174193115191,0.9844100766645772,-1.4230214631963438,0.3826556300243912,-0.8884637256476413,-2.3808546127204613,2.64008999580142,9.670286254819494
125939,1729159829,340601654,0.11095787097330417,0.1163911530067691,-0.013085949772884353,0.9868992898413536,-1.347613349213763,0.24662098047311595,-0.9579169167276924,-2.5458866824271986,2.364084898359758,10.37749112545029
125940,1729159829,348544856,0.10449531918364248,0.11483786625828123,-0.01214824920378214,0.9877982652258692,-1.2785298373823406,0.14797258828386955,-0.9199847898823231,-2.507718169124288,2.2267334194846047,10.403897731910797
125941,1729159829,356545633,0.09529938898133915,0.106673086510288,-0.010272059596963406,0.9896632578133778,-1.2183493675791577,0.07728992131084687,-0.7584505537384791,-2.279394558701135,1.9946849283997472,10.258611924058586
125942,1729159829,364534820,0.09607687645850527,0.09992079924346389,-0.009694125982329257,0.9902984861191918,-1.1698960739148494,0.02083254909878623,-0.6176839357215835,-2.1045720062167748,1.9847427233972703,10.130260170792575
125943,1729159829,372541512,0.07187651174738537,0.09973319954055698,-0.0072234560324418,0.9923884711398954,-1.1182625244587765,-0.046671389083950646,-0.5532313978001617,-2.1562592633003774,1.530582849614534,10.508626274594684
125944,1729159829,380535097,0.07676636778019783,0.08816292360443369,-0.006814831926801182,0.9931202252220844,-1.0860053246007468,-0.10718118488230827,-0.5273305768911696,-1.8899117713591325,1.6232026785187204,10.435173628526341
125945,1729159829,388534044,0.05594975835620083,0.07672529142958243,-0.004312288085140433,0.9954718772353135,-1.0862327475131823,-0.1468925828530191,-0.4096244695948867,-1.666656932200245,1.2044832269842791,10.680082181266195
125946,1729159829,396541124,0.05932709803869422,0.05813058175550413,-0.0034606976281857244,0.9965385865459501,-1.0999912832274286,-0.14177249745602744,-0.24364623144962186,-1.2645534427674128,1.2817360238370517,10.725992002851514
125947,1729159829,404542855,0.051510222866374085,0.05206365806845878,-0.0026890419889775614,0.9973108048657493,-1.1205914164383755,-0.04675139294203361,-0.01209536950923315,-1.1135527516956039,1.095850140913559,10.579718855275361
125948,1729159829,412524698,0.0451201618841094,0.06047482331502204,-0.0027364445454354028,0.9971456656917376,-1.1346542566107916,0.06815511812519898,0.22176403136103312,-1.2386699066325966,0.9189569058371978,10.132824717706232
125949,1729159829,420530719,0.033370295912735534,0.06840365705814343,-0.0022892964555585303,0.9970968469379025,-1.1452204110215511,0.12815953347483588,0.42976439165565594,-1.355399308481511,0.6574372770472405,9.810100437313192
125950,1729159829,428531271,0.03862343167745593,0.06843726795410031,-0.0026514912193317157,0.9969039775598999,-1.1038828167842598,0.10030867346531327,0.6797174859022668,-1.3038115052549222,0.7313265398123286,9.423014374936743
125951,1729159829,436556543,0.044033324470392314,0.06738881637491846,-0.0029770283790730716,0.9967501949163105,-1.0497076460010046,0.03804932088316232,0.8671500678588921,-1.1881040845494375,0.7713505344831004,8.712401245811655
125952,1729159829,444686090,0.03333208981689307,0.06252560428854775,-0.0020893650365068797,0.9974844134875165,-0.9763362976306965,-0.09508655449508538,0.9957858393684245,-1.0403892378390376,0.5518746224476727,8.247726141774102
125953,1729159829,452810458,0.020601566943630252,0.059521114773859726,-0.0012286687616057522,0.9980136786179928,-0.882507751417454,-0.2315848578964842,1.0559396998156627,-0.968759161599907,0.33399781546079105,8.08599754053321
125954,1729159829,460567923,0.02331813148070203,0.06390967231863443,-0.0014937164163070838,0.9976821073566676,-0.7989664597559384,-0.3573299162679127,1.0720245831952901,-1.0296894679072097,0.37397830963780276,7.995424724271098
125955,1729159829,468587968,0.011298938684713662,0.06396288258987255,-0.0007242422523496236,0.9978880493865798,-0.6739202339417114,-0.5860253734171013,1.0139907934506036,-0.9829294339181539,0.17291165008932227,7.633904961515783
125956,1729159829,476558935,0.00339944030159402,0.07066979245761576,-0.00024084130262849843,0.9974939429565978,-0.5584519426142822,-0.7943328879707736,0.9451153146868292,-1.042022353954408,0.049877452700077735,7.316915474468063
125957,1729159829,484832944,0.0014497831315868073,0.06476900236615428,-9.40986871387751e-05,0.9978992261780754,-0.41935779773805154,-1.0014755785651492,0.8318484070414811,-0.9558526616402229,0.021307345643484143,7.332383704846854
125958,1729159829,492559184,0.007253594084797363,0.03407744729018549,-0.00024733414109744426,0.9993928415717517,-0.28141298294517314,-1.1474713860563381,0.6906695718828029,-0.5454994375603056,0.11597449893882485,7.988817351814362
125959,1729159829,500611282,0.020892024287385343,-0.005446305476374591,0.00011381087595762803,0.99976689689393,-0.16884778976710388,-1.2367716307968997,0.5702043056247853,0.09120678765912917,0.3497062936015761,8.363763346879633
125960,1729159829,508530205,0.032582242257542846,-0.03191481725221632,0.00104094009544583,0.9989588371764605,-0.02894136341171695,-1.1932944436278932,0.40895592302441014,0.5577458413943056,0.5682357646863363,8.701497842112154
125961,1729159829,516633778,0.03801654820956697,-0.04606525103352942,0.0017543765002001604,0.9982132321666264,0.08309803645800931,-1.0258790309210948,0.2526102848595006,0.8783707018580678,0.7223377832746924,9.469170131048543
125962,1729159829,524531366,0.031538463491550116,-0.009647623732794697,0.0003044368638440688,0.9994559299914622,0.17075479933002255,-0.644048652670613,0.058765737516977445,0.1997350541714812,0.6522327017030968,10.324337938004124
125963,1729159829,532559037,0.05484719435307809,0.0027059037237183044,-0.00014863550619418232,0.99849108221562,0.21568643594691395,-0.35535381711563946,-0.08989343555965083,-0.05110496603226753,1.0327462457777175,9.372187206161849
125964,1729159829,540710885,0.062391846157919456,-0.0038315505658590428,0.0002395259429841111,0.9980443474017527,0.24775369865459312,-0.1851167462128896,-0.16674392762322887,0.06773870861306136,1.0987274996638963,8.753491574185391
125965,1729159829,548592162,0.051658371075804684,-0.03485771183262072,0.001804202406021439,0.9980546565580798,0.2810418283074477,-0.12298936944867064,-0.1562374446869255,0.636799438546743,0.9400763545346659,9.05672080266553
125966,1729159829,556555581,0.06388497990214087,-0.06646493471229699,0.004264309546199484,0.9957323623648512,0.2967578054845401,-0.13126177996657665,-0.12950043197496597,1.193474605754999,1.1374571103282212,8.827095074372757
125967,1729159829,564565778,0.04313964160718335,-0.060186737604987245,0.0026035913113398347,0.9972510963898489,0.3415196668921442,-0.21072098703317577,-0.13346565723650572,1.2535830361580773,0.8936428526227139,10.308997060492795
125968,1729159829,572564045,-0.014059314643644051,-0.03509216794359623,-0.0004937248141374267,0.999285060258872,0.41988528117361246,-0.20944215420500162,-0.222685564931684,0.8261306529936745,-0.3305152894029341,11.743297970182395
125969,1729159829,580559617,-0.07525422329161448,-0.02151447647806445,-0.001624039497615181,0.9969309362610635,0.4728643106029619,-0.1409901347356341,-0.31325254489598775,0.5624766181145641,-1.9554137720304325,12.878254026250062
125970,1729159829,588529955,-0.10480328572972189,-0.020571184713453813,-0.002168335340662449,0.9942778263551841,0.5297674418868314,0.05205242888793171,-0.36503859250579784,0.5132203727242072,-2.5848695620463844,12.125100865457068
125971,1729159829,596532501,-0.13984174490557955,-0.00504465343624685,-0.0007124632358794931,0.990160759800957,0.6090324671721286,0.24322510794085075,-0.3671632968922657,0.12046623364428995,-3.2740286720422835,11.359807971666818
125972,1729159829,604550316,-0.14413330370835925,-0.017884151865177077,-0.0026053360976819335,0.9893932282454713,0.7127825704562949,0.3970922010271091,-0.28883407803074646,0.3875960988291521,-3.05784910141873,10.272393719767669
125973,1729159829,612531347,-0.14913278452115417,-0.02073268000344453,-0.003127592951577265,0.9885948546918353,0.780992293287263,0.48430417614131976,-0.19841616044470772,0.41260162414124124,-2.9006080399528003,9.395129632739508
125974,1729159829,620522962,-0.14196802785857138,-0.009220528679081335,-0.0013224732435314385,0.9898274152504296,0.8134043257566035,0.5442937823161627,-0.150976450876477,0.17693202551013537,-2.6690756479462894,9.113219170024564
125975,1729159829,628547535,-0.13784936882841745,0.006194872180985016,0.0008622075663476306,0.9904334564575152,0.770700796264751,0.5870985870044609,-0.12762090587308295,-0.11769863991852815,-2.5691816998029298,9.050854286438566
125976,1729159829,636557152,-0.13929586991873452,0.02092550619778566,0.002944204111075398,0.9900253105229694,0.7088950233453668,0.6157613002476741,-0.10168825715010962,-0.4005401727206482,-2.6133931031337108,9.103217918542827
125977,1729159829,644554049,-0.1482151663254102,0.05970266430151459,0.008964385141051873,0.9871106807979916,0.6356279043694637,0.6389185890540705,-0.0682496853349203,-1.1252210372261389,-2.722041062075539,8.859302906887415
125978,1729159829,652535687,-0.15441304635213354,0.082946741672927,0.013010602773068819,0.9844324117874117,0.6031612646433967,0.634933979756503,-0.07032242544183237,-1.623236479757558,-2.92872715555587,9.104645291495729
125979,1729159829,660533088,-0.15724150185226865,0.08737078337772808,0.013967541310503234,0.983588513605636,0.6032630236350098,0.6104073309819369,-0.07965418067375821,-1.7465507635869566,-3.041246643675319,9.267173612885719
125980,1729159829,668533051,-0.16467264919020974,0.09751252004759389,0.016362312962112914,0.9813798967561826,0.6646234478805103,0.5573792361856144,-0.0852532338129137,-2.0001044583963146,-3.253368116820426,9.419278403571274
125981,1729159829,676542419,-0.16161631208349578,0.09729171527746414,0.016013524744949867,0.981915503916779,0.7269811061155325,0.5174742681400422,-0.10776871846219843,-2.0890297514538045,-3.34616449680124,9.887388619291201
125982,1729159829,684524786,-0.16068676109468405,0.09309862572017989,0.01522637723573987,0.9824869302612573,0.7997279761578945,0.4407457196914069,-0.18257737810230182,-2.025547886272673,-3.3750272661959784,10.039925539738782
125983,1729159829,692523721,-0.16837660783044053,0.07762263829170012,0.013301662127434761,0.9825716817336013,0.8842423440836666,0.3555451049677189,-0.21809739253419916,-1.6453273499276664,-3.445975045020321,9.757952233022957
125984,1729159829,700524831,-0.15414169701110567,0.0715868006140795,0.011198133750881993,0.9853883848619659,0.9587896082810039,0.3091073268095884,-0.19896884535444453,-1.4859086157671466,-3.1069079676860203,9.68669109689385
125985,1729159829,708524321,-0.1462400810999954,0.07322238114178514,0.010854850177275796,0.9864757948411217,1.0320392009173622,0.25485187610406423,-0.10831336561465389,-1.5032636936302097,-2.9219030740686436,9.63723065056795
125986,1729159829,716643231,-0.13144590984565116,0.07284733912977423,0.009685946394655313,0.9885956809580955,1.0968477695108168,0.186114950456477,-0.03518971506645012,-1.4717782112953133,-2.595661408650171,9.587203668661084
125987,1729159829,724523577,-0.10928041731456298,0.05860323492901493,0.0064541348330883486,0.9922609512577657,1.1987350397632701,0.10528361935195572,0.03209742864288388,-1.1698922856639067,-2.1480463947506494,9.633083672143917
125988,1729159829,732531941,-0.10126718999416404,0.06690754965973514,0.0068261667201246585,0.992583366512418,1.297328127323401,0.053804990259008735,0.09673404837182009,-1.2516440725702191,-1.8665486974460925,9.051526771889865
125989,1729159829,740548632,-0.08540828870038183,0.08218154219389179,0.007068992335063464,0.992925801704877,1.3615922605970239,0.0016333097301389626,0.1499894822988909,-1.4922312775265065,-1.5290982821883585,8.821345034081185
125990,1729159829,748543145,-0.07182993032572699,0.07201208311425836,0.00519965945744242,0.9948003239527382,1.4035562610528938,-0.10757097983473468,0.21812639787940602,-1.2460893097287946,-1.2301417061294213,8.473025085634257
125991,1729159829,756531024,-0.06466380567313079,0.057849421437629264,0.0037549505831682376,0.9962218312310351,1.4270319010805677,-0.2114056591052417,0.2913609918988296,-0.9868343316868861,-1.094821071040934,8.397390149036804
125992,1729159829,764537610,-0.05394911065972682,0.051783870770544624,0.002801549018701382,0.9971961068466623,1.4083391503645957,-0.3328773852107683,0.44640685435207383,-0.8547445211312722,-0.8855389011694822,8.159754793767785
125993,1729159829,772534790,-0.028578574162149376,0.0333501897710894,0.0009540218902594539,0.9990345938871805,1.3311415404083975,-0.4606744388026863,0.6484110275583006,-0.5671950903643102,-0.4851152486606736,8.472071896036061
125994,1729159829,780540521,-0.004821592550942317,0.019849966694597543,9.572842632285608e-05,0.9997913391821137,1.2533219098864883,-0.5773675367352682,0.8087770171365436,-0.3369651718943673,-0.08181592409874791,8.482291234545464
125995,1729159829,788568123,0.010308249231361742,0.005514676542007201,-5.685054537917216e-05,0.9999316602190556,1.1483105931530444,-0.7074056941609637,0.9888575529915096,-0.09491886876162038,0.1774019225915325,8.603344517338606
125996,1729159829,796520935,0.0325752513862604,-0.007108722531936585,0.0002316972522574488,0.9994439781085627,1.0567825689950219,-0.7730835768339821,1.1539483427404011,0.12692336624302777,0.5809719225978882,8.902946804397303
125997,1729159829,804666792,0.048177817984412195,-0.03655234153263684,0.0017642438378908235,0.9981681780273416,0.955039847739385,-0.6856346681221077,1.344100489742611,0.6419038720407385,0.8429857963809985,8.712085759640333
125998,1729159829,812555156,0.1598307032904314,-0.036056675722687226,0.0058420155708716545,0.9864684147379402,0.8518508989012616,-0.4718287896008731,1.5177883865486215,0.7311044631170212,3.1537785139614116,9.476719982395528
125999,1729159829,820521711,0.1392071007658777,-0.03650533466988916,0.0051353280183092775,0.9895768651515366,0.7622676756033557,-0.33290301095158153,1.6696784115159753,0.8248474056534157,3.080269972146378,10.73133314788458
126000,1729159829,828537513,0.12527406876230326,-0.01735985988665538,0.0021923495381374774,0.9919678606507148,0.5625060505431352,-0.29594776046136806,1.8429706083585597,0.4640232419760338,3.294978046520249,12.837303825498324
126001,1729159829,836539906,0.11358149580651185,-0.022881881486992592,0.0026165896764634104,0.9932617060817535,0.3404834607561153,-0.23588819469711916,1.9363036749275593,0.5774497325391359,2.8278860979316804,12.203002576060713
126002,1729159829,844543880,0.19386051755839898,-0.027740142816012444,0.005483989988750962,0.9806214917399781,0.04806182389710356,-0.05000955360393469,1.9705933217343956,0.7601878863984814,5.1087084446476805,12.415704997784863
126003,1729159829,852544287,0.22113215211035853,0.006299383236578621,-0.0014283881140241786,0.975222461175539,-0.20827226989608943,0.2054008718261427,2.013728683075985,-0.19678606088552045,6.569857456925327,13.742103222059589
126004,1729159829,860535012,0.20277356379144149,0.03177518039998712,-0.0065834746708971085,0.978687834602599,-0.41145277330160096,0.37567472954267034,1.9604315484490007,-1.003207990291078,6.132130152866133,14.162770756477942
126005,1729159829,868537703,0.22724307206270847,0.030150809053187594,-0.007039186658569686,0.9733457580757862,-0.6619194739064413,0.4969950969383783,1.6734649208570533,-0.8818069682469123,6.296619346602492,12.749764602324264
126006,1729159829,876535248,0.2381960864144057,0.025928876139219348,-0.006361596962139268,0.9708500645738812,-0.8632823016447894,0.6195930545668609,1.4114643413333963,-0.7088887256258818,6.138175604543526,11.755914608562527
126007,1729159829,884536392,0.22772828741805462,0.053375982167013676,-0.012503052369572356,0.9721802843705433,-1.0628526596582741,0.7612622389778754,1.134219396286909,-1.3178916142817791,5.314553794122599,10.720747447998844
126008,1729159829,892542847,0.22733407890936713,0.09084037657156709,-0.021304378885542503,0.9693365597103345,-1.2519823544846762,0.844560989378636,0.770352240740634,-1.968921605531958,4.630281096053637,9.326559435596183
126009,1729159829,900743008,0.22695344753047836,0.12071749124084509,-0.028362166252220083,0.9659787821106778,-1.3875960545765431,0.8915604091888581,0.4260276892201077,-2.302557600770347,4.03967351236851,8.119184790996382
126010,1729159829,908527645,0.2459694978761434,0.11207301000180342,-0.028645018194766454,0.9623503049702407,-1.4753496255535936,0.9078407393540546,-0.04194073942989546,-1.9068224047004891,3.876126834471887,7.084710889246265
126011,1729159829,916632166,0.22350985716817962,0.10113195892153608,-0.02332327231247669,0.9691603043882837,-1.5216164172178934,0.911223586531242,-0.4150965399571583,-1.5563749686991997,3.231163168554226,6.630902403909087
126012,1729159829,924526447,0.20954444993251198,0.08723444275144653,-0.018772861306495782,0.9737190843249878,-1.504253345701498,0.892820171887377,-0.7194454418898398,-1.4291853047058478,3.2552693940524575,7.211671364220452
126013,1729159829,932533280,0.18013826146364348,0.10445490758249856,-0.019241757950156594,0.9778901440293666,-1.4397728649859824,0.8341008362173102,-0.9510091401175824,-1.9009042663196023,3.1351789960506147,8.218777617116256
126014,1729159829,940548508,0.1461000692851841,0.11450413132971893,-0.017027498657534515,0.9824732250564178,-1.4006588864952114,0.7703480006973142,-1.1380503359994376,-2.2825767516862925,2.811494162767088,9.241308398883033
126015,1729159829,948547462,0.12533713182452647,0.10819311711895477,-0.013751746603721792,0.9861012839761606,-1.3912382714289957,0.6861217727474171,-1.3703196508608437,-2.2666534130723224,2.5535974986368153,9.880444825706771
126016,1729159829,956532431,0.12433992084996075,0.10844299999064572,-0.013672457845997816,0.9862011781236645,-1.3855859023892663,0.6240924043180041,-1.5250060819903206,-2.351191535148081,2.6222385150512295,10.231126119056876
126017,1729159829,964538091,0.1107217604717065,0.10465483311843349,-0.011725264995420094,0.9882563310314718,-1.346436515802618,0.5668673503716407,-1.5233147470234354,-2.218518561225567,2.2925612877416754,10.100361158494673
126018,1729159829,972560616,0.08768919283544432,0.10275145948453895,-0.0090939236280919,0.9907926339990178,-1.2633502752459447,0.47421277958352437,-1.2928530029152694,-2.2421048684247933,1.8785585414438333,10.527318152616333
126019,1729159829,980537551,0.07833440593108279,0.10138343651427563,-0.008008067878646065,0.9917262679272094,-1.205836109805624,0.3513610073996536,-1.05198465163802,-2.2955215599708914,1.744599733020597,10.972155439909644
126020,1729159829,988526775,0.07890758448553654,0.1039415047541751,-0.008272805049329163,0.9914137972596062,-1.190057973245761,0.13802360392978474,-0.860212044049385,-2.184877155953238,1.630466204558452,10.175553434844224
126021,1729159829,996532361,0.04643639164665003,0.09347690489372437,-0.004364611703235577,0.9945283706094102,-1.164840559035748,-0.0036009201189215745,-0.7528109006025205,-1.9947102877125678,0.9801950840631962,10.471637628533488
126022,1729159830,4527252,0.050252986602095005,0.07450285187944714,-0.003759228093977371,0.995946700684096,-1.1258714670678664,-0.017059704222524053,-0.5159657396422791,-1.6196421858111343,1.0837167940902614,10.71034028708103
126023,1729159830,12525762,0.03346064371818516,0.07431173356005193,-0.002494825159032381,0.9966704206630647,-1.1314369360665557,0.019562481768827786,-0.10397114409920621,-1.6024180287718366,0.7167888826065006,10.662025749397056
126024,1729159830,20519989,0.01633165070475456,0.07279227966425614,-0.0011921409573249608,0.9972126854420157,-1.1466955391867062,0.03302199213439825,0.23900587705559467,-1.5358197955345863,0.3426849689681972,10.458260305595264
126025,1729159830,28822190,0.0224589625127278,0.0767521655380047,-0.0017293152168898255,0.9967957210767706,-1.1686214029026574,0.01981319528063895,0.5865468802153317,-1.5008886790785643,0.4364120214199808,9.678553263435283
126026,1729159830,36551377,0.03720889686758556,0.07716385514662369,-0.002881787788801705,0.9963196940500316,-1.1566612075059683,0.016996197905927747,0.862330511822175,-1.433243076831904,0.686099747031676,9.171703551078748
126027,1729159830,44543221,0.043268568064057294,0.06815007689940264,-0.0029584244224564,0.9967319829127729,-1.0634956978526244,-0.022154725927557753,1.1154928434474596,-1.1668824989311737,0.7360741731701774,8.461297701936312
126028,1729159830,52533326,-0.003919267869807439,0.06913315463493133,0.0002716032795452708,0.9975997055438849,-0.9867375790489785,-0.1673926378057901,1.2784581840206428,-1.1514365122981574,-0.06496856738695612,8.26753117365202
126029,1729159830,60531824,0.016551476001917417,0.06656326434723073,-0.0011043217166821996,0.9976443058300611,-0.9347230469063226,-0.2915704202799263,1.379642908856249,-1.003305224029285,0.2483230587865763,7.481134212003713
126030,1729159830,68532944,0.009257491961547971,0.075605332953455,-0.0007019552233424554,0.9970945991882834,-0.8439177190160445,-0.4631344237777512,1.3867167960133968,-1.1569590792417896,0.14085354962741453,7.583904433452228
126031,1729159830,76539039,0.01376800195290688,0.07008576811592732,-0.0009674122634677673,0.9974454828928435,-0.7489939664429847,-0.6669613704429476,1.3309388296415392,-1.0485172932481988,0.2049404732823081,7.421469290930712
126032,1729159830,84521990,0.0010838029535841704,0.0806040413868395,-8.76441265080848e-05,0.996745607565829,-0.6307403460486163,-0.9518711419205614,1.1697650313798151,-1.1754671947965756,0.015704049594384862,7.220339273533036
126033,1729159830,92529005,-0.004127590987440268,0.09129080347475778,0.00037839443235863457,0.9958156501136277,-0.5278614192023429,-1.153040999170934,0.9977136115440011,-1.3222660847002108,-0.059291157889853466,7.150897178621775
126034,1729159830,100526436,0.003329986897835922,0.040210455400373143,-0.00013400941689924983,0.9991856746897602,-0.387807091785565,-1.2707630830909233,0.7799721331092261,-0.6034994591697358,0.049898304533666046,7.4858398428175965
126035,1729159830,108526941,0.015404300525033549,0.0002306841784674832,-3.55395019391482e-06,0.9998813201062983,-0.20671716132215506,-1.2634950521953652,0.5569525027111002,-0.003927107142466495,0.2621765437553559,8.506819509938605
126036,1729159830,116812853,0.026490701418795358,-0.018327550027884987,0.0004857618051923311,0.9994809191194118,-0.05847402732814015,-1.1774017418573202,0.3652468761133884,0.3402539932828795,0.49129705784501043,9.26162288882449
126037,1729159830,124520419,0.03651652115171393,-0.018056810376265765,0.0006599198392582545,0.9991696851825609,0.07772344989055427,-0.8630949877324197,0.10974577987229094,0.3638456467021495,0.7345930796777093,10.036525039447037
126038,1729159830,132530501,0.04301650943663266,0.0039986084992264335,-0.00017216692477699147,0.999066344846281,0.173489708250018,-0.5506351273720281,-0.10485424672290011,-0.08408028165644466,0.9028367682167818,10.464835044420173
126039,1729159830,140541819,0.05428073481133933,0.011493164248696418,-0.0006248200156031084,0.9984593725354285,0.24116602474078497,-0.2639734268351399,-0.27958878931791414,-0.21014141972628866,0.9894177713792878,9.072934364054447
126040,1729159830,148539206,0.021258928069383308,0.005086765752032376,-0.00010816503250572391,0.9997610569990464,0.3230637505970622,-0.11666643007780483,-0.3656991521705932,-0.09998805374007008,0.41767684080608825,9.81676995070806
126041,1729159830,156537410,0.023517626625445112,-0.040421184234865716,0.0009516519275746432,0.998905472735817,0.3862501581390756,-0.0942641915500187,-0.38331016496523806,0.7430224045723642,0.43136832982544976,9.15575303487796
126042,1729159830,164540860,0.0018858990966156444,-0.04829607662052146,9.118810071041601e-05,0.9988312790718923,0.4518318566593157,-0.21023262711780463,-0.3645041584011448,1.0510676224309186,0.040948646821051114,10.843295430545918
126043,1729159830,172530945,-0.003122246773946935,-0.037927500398803236,-0.0001185048596472975,0.9992756087512492,0.509059858352865,-0.2853476592574826,-0.37705919790456266,0.9272821591519104,-0.07622670179994745,12.197712865017003
126044,1729159830,180536805,-0.04751858278987939,-0.020950162435479393,-0.0009968676703684366,0.9986501295440842,0.5778775543474193,-0.22612261348309165,-0.41268776566310744,0.55397509383099,-1.2531319182967653,13.137974274185984
126045,1729159830,188756385,-0.09641631543233592,-0.018994631432762768,-0.0018403028759311978,0.995158133856379,0.6251278328046201,-0.06543470794861976,-0.37659674802086,0.5054858363278909,-2.541066051612825,12.990574386288932
126046,1729159830,196519229,-0.10907298500607653,-0.015553550501277075,-0.0017068659902779043,0.9939105883414059,0.669654222214498,0.10249396569768468,-0.30896761079761215,0.3882856607322814,-2.6898975789657418,12.107977762876876
126047,1729159830,204673754,-0.12727175341690825,-0.002343128199166273,-0.0003006598810120752,0.9918650715374869,0.7495813135431786,0.3092479951895132,-0.2164559409652956,0.0529274315956188,-2.828277629410695,10.839329736339408
126048,1729159830,212523052,-0.13231085006414764,-0.011759008673724165,-0.0015697567538682483,0.9911372763316126,0.7924292876028426,0.4362802433148445,-0.16775998004929818,0.23693954123276192,-2.618973636972589,9.634495352789973
126049,1729159830,220519158,-0.13739230779628106,-0.02127287537819053,-0.00295140573631066,0.9902838521028886,0.7823801068758303,0.506965621391037,-0.13087998239338317,0.4000192435384852,-2.53361382940035,8.954929772709141
126050,1729159830,228544367,-0.12839137944496581,0.006692817646807078,0.0008664914363926896,0.9917006146356652,0.7150512295890904,0.5604447898347651,-0.060223316793162535,-0.1284560893749557,-2.4235005840171633,9.202722839211422
126051,1729159830,236552979,-0.12447928840132173,0.02924258727805371,0.003670249738726571,0.9917844055616328,0.6367674877469257,0.59210660083954,-0.0033558553433210847,-0.5726733972773171,-2.3978946448438916,9.401916334142086
126052,1729159830,244535678,-0.12425477233702695,0.05073139442306759,0.006361300913658719,0.9909321929486651,0.5553163476632023,0.6089752371350949,0.04906929416945114,-0.9507735793820153,-2.286763014933679,8.9745967719208
126053,1729159830,252535166,-0.1327442882968272,0.07897290435757397,0.010611149927549366,0.98794212269703,0.5200677455797532,0.6267588400187444,0.08903818510635511,-1.4472207955784282,-2.374510044067629,8.675348824871229
126054,1729159830,260534592,-0.13600249233368253,0.09469408315925806,0.013060351859307874,0.9860860915269849,0.5657519239792228,0.6272124402738453,0.08790380604223762,-1.7972827214876816,-2.510237059155421,8.92531983447352
126055,1729159830,268535267,-0.16393805234389716,0.1011641129364306,0.01690372144300937,0.9811240499798443,0.6531847296850509,0.5721448924368416,0.027200879937620676,-1.9991795913887027,-3.1188764737745025,9.070035196582548
126056,1729159830,276534997,-0.16472498640269131,0.10972513952276375,0.0184425137009863,0.9800438491719297,0.7269289161816495,0.5263336618907786,-0.043701770703574054,-2.155512477733612,-3.108409882067436,8.983045373320623
126057,1729159830,284542536,-0.17020963109003281,0.1061662047760634,0.018448739732218482,0.9794983728674258,0.7988452820746406,0.48096794098173534,-0.13945461877104484,-2.2086107813179012,-3.397574411906477,9.478165978875186
126058,1729159830,292523475,-0.16157729079901706,0.0983426948114586,0.016184266405704546,0.9818144239092128,0.8551914935157583,0.4179905432734988,-0.20414305865638183,-2.093705201700897,-3.3163300731692766,9.80061687980558
126059,1729159830,300526051,-0.15408339551104108,0.08665487423378139,0.0135670183220654,0.9841570890935879,0.9285883960963979,0.33763509850235374,-0.2076238474862354,-1.808565444018585,-3.115072824175004,9.7027130783228
126060,1729159830,308526217,-0.15231847101579646,0.09065062912780625,0.014031349476279284,0.9840653779388935,1.004127602192972,0.29453011237721105,-0.13691932027414017,-1.9029985535205258,-3.096790305833127,9.762004939278837
126061,1729159830,316531844,-0.14649022557925548,0.08844021538232609,0.013150745625988301,0.9851629306882934,1.0660530382479356,0.2465312375060998,-0.07236072075085738,-1.8447367395341903,-2.965871291654173,9.750653703313395
126062,1729159830,324522150,-0.12794256574397753,0.07491055831900086,0.009691818581105406,0.988900994425516,1.1457773060271168,0.15345271330266627,-0.013192438086710188,-1.546656888691217,-2.583495692472973,9.815908431704836
126063,1729159830,332555324,-0.11282685208775423,0.0676691267183737,0.007702073608566789,0.9912777959781349,1.2140449896448033,0.07674678576896662,0.03167371286394283,-1.3819347679803553,-2.264287770708393,9.816993462343214
126064,1729159830,340561328,-0.10393201312510567,0.0731056103479002,0.007660334526299234,0.9918644189899993,1.2758644128270547,0.006458895745411031,0.053059432635328224,-1.3829397047823537,-1.934378161692614,9.127874982435225
126065,1729159830,348560465,-0.08564649389718955,0.07740483810754627,0.006674224950123374,0.9932918120280557,1.3146588269822534,-0.061680932017906254,0.0475861918552921,-1.3485873226252718,-1.4723519531679121,8.473307787312697
126066,1729159830,356554270,-0.07572713113849566,0.07176694697388371,0.005464609816412435,0.9945275486235338,1.3434694462743793,-0.12555209199484635,0.05579587904674528,-1.2104205918173505,-1.263370975367544,8.24696448562004
126067,1729159830,364565401,-0.06358637057700893,0.05663037554754294,0.0036140689760325822,0.9963617377978863,1.3556475371121102,-0.2439045195358723,0.13308900181016256,-0.9529832523072072,-1.0623256162263857,8.288568847622024
126068,1729159830,372571503,-0.05705591719553999,0.05399562764728523,0.0030903346996215,0.9969049826033551,1.3433726487874953,-0.3579106722681531,0.233953203335353,-0.9110483266284649,-0.9567818712006751,8.33076971677634
126069,1729159830,380529109,-0.02699746788986595,0.04014152899035631,0.0010849905734866586,0.9988286225240581,1.2610862649754089,-0.4944247737414466,0.3928061284481965,-0.6989002215630165,-0.46896366983954574,8.66853355491932
126070,1729159830,388527652,-0.0023624059733760097,0.022330013574877978,5.276586175550939e-05,0.9997478615868736,1.1133800304904278,-0.6678565978397596,0.546863111997663,-0.3877366710237474,-0.041000355224039935,8.675346162004326
126071,1729159830,396526849,0.015214233590853825,0.007521139210194855,-0.00011444485312274318,0.9998559628584506,0.9775046929771536,-0.7983084761093933,0.667392846183837,-0.13831045720409219,0.2797028178714354,9.188680419370565
126072,1729159830,404531362,0.018932314965964186,-0.030004409331604642,0.0005684108609140239,0.9993702916235725,0.8121185483611688,-0.8212398950811093,0.8516671728600556,0.5447734009705134,0.3433166724123144,9.057823809483667
126073,1729159830,412527876,0.0362184914007776,-0.06902443383268397,0.0025075986537487294,0.996954141555027,0.6911766684570144,-0.7562460850936631,1.0286394184538636,1.223971402642855,0.6383828232716073,8.773647920944107
126074,1729159830,420528026,0.0959573526530131,-0.07130472567916157,0.0068918042458427755,0.9928042735614516,0.608820669100895,-0.5576160260529336,1.2518875327122072,1.420561037386494,1.8844335550469489,9.656351698123105
126075,1729159830,428551670,0.10035256501812796,-0.030377874088657598,0.003065408342859182,0.994483358700299,0.499810460882539,-0.4192819378627044,1.4492642204250563,0.7137123463088495,2.33183110592856,11.436226071364098
126076,1729159830,436557346,0.07660264412071757,-0.03150179626683835,0.002421448271536253,0.9965609907747471,0.3377726919996442,-0.33670717501002895,1.555345221270367,0.7744289678439034,1.870277550275886,12.093545110591895
126077,1729159830,444554806,0.14303159748318203,-0.050937809159666024,0.00737137932562972,0.9883789579337776,0.09964662032597486,-0.1918077435309286,1.647940745956971,1.236547995940717,3.3921091241596724,11.473992131052404
126078,1729159830,452563385,0.2039584258578024,-0.018886077620932504,0.003935447668904598,0.9787894507223445,-0.08239250833273364,-0.03675767480954335,1.7660744998038522,0.5195074633359147,5.374937370247757,12.336950139471284
126079,1729159830,460563458,0.20038165284437393,0.02142618665708247,-0.004383389078391316,0.9794737860856104,-0.2448272432107127,0.13119381724060536,1.8148188689159555,-0.6035988166761855,5.415656941191623,12.681863584659334
126080,1729159830,468559394,0.22886858251142886,0.02923619265599049,-0.006876966021373472,0.9729938973685971,-0.38017449960762095,0.23792437333116306,1.5567246988963461,-0.81753644576743,6.058989812908332,12.166481010903023
126081,1729159830,476533700,0.23391831102410202,0.059015187707316744,-0.014226414886270211,0.9703592327107448,-0.47032234473646856,0.3385720522712324,1.2822492896137494,-1.5748557993452237,5.878042582813358,11.482319486668768
126082,1729159830,484511469,0.24025389839362607,0.06220980236722102,-0.015430802707660275,0.9685917071314898,-0.522708291567929,0.4815445315589081,1.0328517218132471,-1.6181629864430718,5.863326949834499,11.090736765243449
126083,1729159830,492526021,0.24577906133236757,0.07095233082248742,-0.018041970474654334,0.9665572445865938,-0.5724445323096725,0.5630711185168932,0.8512864265232934,-1.7104666846881085,5.535829329080387,10.179904003726147
126084,1729159830,500532357,0.24212643146673898,0.08337951538076956,-0.0208896576190329,0.9664296507271546,-0.6572002946833208,0.5664382341152469,0.5082177155452038,-1.7948187437230214,4.868391290075185,9.104285779921234
126085,1729159830,508529344,0.24090134896908816,0.1032445063723133,-0.025781890832165144,0.9646980906345411,-0.7280611849962253,0.5565391817533222,0.07505799613762518,-1.948859490862719,4.232339023312689,7.943443228206646
126086,1729159830,516527451,0.2378492907775018,0.10379821536478448,-0.025573129056006394,0.9654012950239967,-0.7697263390610438,0.5476199199059332,-0.25507669564815716,-1.8126376806016156,3.871537217698551,7.377900527988441
126087,1729159830,524526245,0.2362950699372905,0.08553316097761146,-0.020886014890471902,0.9676840872301786,-0.7853602501477703,0.48820572499182174,-0.5702222776216852,-1.4699366134879224,3.8030177969277243,7.32133012392197
126088,1729159830,532556793,0.22004856017957852,0.07460747196114431,-0.016881766086131924,0.9724851475802982,-0.8019773278446607,0.4108395820200758,-0.8074126037510116,-1.2477959817646285,3.4808268695628843,7.296725267956697
126089,1729159830,540557060,0.2276394350775768,0.07271387284610294,-0.01704906340027685,0.9708770827094725,-0.8519624402402259,0.3116343286157363,-0.9927214956362727,-1.1473121654747926,3.3859140013764017,6.82251505579355
126090,1729159830,548556637,0.2112851212976742,0.0771558303262642,-0.016733077612886997,0.9742307629501816,-0.9040893908735907,0.21763028159470807,-1.1085894214435117,-1.329793924040735,3.456577228950841,7.593113600126521
126091,1729159830,556557251,0.21976981520848615,0.06472474568240384,-0.014614871704264436,0.9732925259882785,-0.9532445438350149,0.13568644969436922,-1.1661908552069182,-1.1684987714166284,3.758746045622458,7.897934257488021
126092,1729159830,564611957,0.21386130582605184,0.06256683967019268,-0.01372707456568694,0.9747616631094641,-1.0176442206517562,0.06821547791129855,-1.1096540423120873,-1.2364427540609144,4.0159435282523805,8.71074110869203
126093,1729159830,572565767,0.18755325718431448,0.058647749987528704,-0.011219045342158635,0.9804378359501256,-1.0792712900607504,0.03709807619362084,-1.0127298254788082,-1.2362682952588142,3.8005972815022098,9.569526476738655
126094,1729159830,580527230,0.16354605360864485,0.06954137155784368,-0.01155798549878847,0.9840137697014723,-1.2043653744287877,0.022258845716172506,-0.9026411078804728,-1.515088113385757,3.4504047202196846,10.092219722713116
126095,1729159830,588748459,0.14591860820088637,0.051581806840549714,-0.007618768210052756,0.9879215714593653,-1.3547689659283897,0.021869108658944137,-0.8399933978131678,-1.1652324456681729,3.21730484751267,10.652917281625916
126096,1729159830,596521617,0.12374933695531956,0.03550518527721848,-0.004430658420863613,0.9916682170401081,-1.478640635683651,0.0348316583299301,-0.7679238767943602,-0.8047237606137944,2.7582978425896334,10.879441960772423
126097,1729159830,604531767,0.10844260294133293,0.024515601482616788,-0.0026751300700591507,0.993796775417571,-1.6249052579238914,0.08560388434018686,-0.5884613445152256,-0.5237751047569484,2.288245044665108,10.360063773875563
126098,1729159830,612524131,0.1028778287079004,0.026339371617921045,-0.002725157742369881,0.9943414722208865,-1.7373540548328332,0.13650034289651844,-0.3960715029168005,-0.5457843633912786,2.107727516301018,10.07668844132729
126099,1729159830,620518909,0.0962316813381524,0.03898397476235879,-0.0037719066232428967,0.9945880986312804,-1.8354730174034648,0.17640339938248206,-0.13718004724504082,-0.8010437064136734,1.9560819492337356,10.013444635841296
126100,1729159830,628550024,0.08912033747811776,0.04665425373526008,-0.004179077434094476,0.9949188315475751,-1.9075407868511665,0.17097261903318006,0.11606354029428224,-0.9415100434282822,1.780339870223835,9.857464210703997
126101,1729159830,636564019,0.07729583991756288,0.0562082913962752,-0.004364688159474443,0.9954129447656487,-1.952058518704174,0.1451525775661112,0.3016392076733766,-1.1131782062327504,1.5168773132475821,9.707612216607945
126102,1729159830,644536064,0.05756188380798749,0.05359613543700705,-0.003094695999396309,0.9968974403896145,-1.9762150174472062,0.07389515463434372,0.4444856726490235,-0.9829838622162127,1.0492295044036275,9.054824209847578
126103,1729159830,652534477,0.039763119941885514,0.05096221057313674,-0.002030667448584082,0.9979066207695486,-1.9804923552179365,-0.0016374338572931815,0.5408358031709624,-0.8782916173785555,0.6824495593316297,8.549426826933939
126104,1729159830,660534770,0.020647227700178097,0.04970178026283319,-0.001027693993408147,0.9985501333794202,-1.9447466523487922,-0.10953342598719397,0.6437690279991011,-0.7977591781908052,0.33046108081382153,7.987135777556847
126105,1729159830,668534093,-0.026690038470919747,0.06592689449354257,0.0017640617007481038,0.9974658763662916,-1.810491364339867,-0.2525979925741483,0.7659769516235928,-0.8617277725394831,-0.3471224896953008,6.481151317608326
126106,1729159830,676546754,0.004795867051341164,0.0869186899541874,-0.00041843896880942237,0.9962037772989536,-1.6933288462487772,-0.3507817443087197,0.8618632790557755,-1.4256361935529867,0.07807302473750703,8.107274115760308
126107,1729159830,684543087,-0.03035519016892437,0.07385206880186529,0.0022489800221122927,0.996804582880894,-1.6000440720751736,-0.5131346802847363,0.8431965545133815,-1.3806695603700732,-0.5639170286633551,9.249344810032357
126108,1729159830,692538708,-0.06194768504516327,0.07837653712207926,0.004879715236894909,0.9949853220653576,-1.525768534928144,-0.7037725653305311,0.763034729831096,-1.4817793692786845,-1.1595613866316068,9.274984669222539
126109,1729159830,700528490,-0.08375808607499192,0.054366108033295724,0.004576522948110646,0.9949914395370805,-1.4011734810850645,-0.9152126303713513,0.6370363537741729,-0.9391064362644763,-1.4324326828090421,8.447370180195632
126110,1729159830,708527055,-0.100046141932297,0.018930607193092634,0.0019038324808675195,0.9948008730482941,-1.1791276875133538,-0.9373569142761836,0.506097620149955,-0.33553586371181077,-1.7548910305838628,8.636500842248239
126111,1729159830,716547915,-0.0949998979069225,0.003150663618705053,0.0003006740989972219,0.995472250899804,-0.9935403338104976,-0.8182538755043911,0.3836883036448349,-0.05838767911575831,-1.7446194779694582,9.057394732643864
126112,1729159830,724528451,-0.1212241112895509,-0.0025922332025748777,-0.0003165769571279905,0.9926217280253905,-0.8472813365488971,-0.5565085947677876,0.2549030057516988,0.04660966914187314,-2.1476256101215188,8.661581257310928
126113,1729159830,732533034,-0.18142427657396565,0.005052206447425986,0.0009320732401083511,0.9833914979900431,-0.7608030083763231,-0.3688117419005591,0.13676558111546205,-0.10323644949143862,-3.5850935984947863,9.385604558829916
126114,1729159830,740534055,-0.18883710242217633,-0.029502114342777584,-0.005675819726353293,0.9815487553191314,-0.5990879756155745,-0.3136617884775963,-0.10098737775939635,0.5892809818676368,-3.6340246673976533,9.09481485687998
126115,1729159830,748544987,-0.16907383318629965,-0.06441947132811378,-0.011075122611119816,0.983433532225054,-0.2913423755354196,-0.27120663507165393,-0.3802856628136235,1.3002359255463631,-3.3006617572257015,9.314666049137754
126116,1729159830,756539120,-0.22188040991736152,-0.040998324384390494,-0.009337953918463605,0.9741668356648119,-0.013894582088603807,-0.20061039651311316,-0.6057584822049962,0.9628191419977399,-4.945136970106906,10.292208790859604
126117,1729159830,764532315,-0.20893979614463976,-0.013722883086592964,-0.002932271239941056,0.9778278201463709,0.278152662110785,-0.13483969999757697,-0.7350825129793512,0.34689044515958134,-5.050037626400081,11.277369012308732
126118,1729159830,772534448,-0.23083294646172053,-0.0010275735236887943,-0.00024378167889470802,0.9729928239668302,0.5065922663131722,-0.08771486098193869,-0.7569115333924381,0.026653781255905076,-5.668432805332235,11.274224293127427
126119,1729159830,780535329,-0.21673079043636193,0.011497047063936202,0.002552617557829887,0.9761603692679,0.7390106026020996,-0.0011204191522573848,-0.7597923841652016,-0.2861559807581757,-5.140207769136841,11.005144556345206
126120,1729159830,788530590,-0.20364943602536795,0.016069667166005115,0.0033430970221938524,0.9789062757516797,0.9320985521196721,0.06616108815818453,-0.7896164386853537,-0.3694546455838117,-4.486647994001635,10.316493508709467
126121,1729159830,796529244,-0.19050388555500292,-0.001231585419305651,-0.00023899892004618012,0.9816856399404635,1.161184878179116,0.13717967696971595,-0.8228357136100781,0.02445114331377553,-3.6448810571431687,9.037559559815524
126122,1729159830,804524181,-0.19582920422719466,-0.007920042291359218,-0.0015816521025001703,0.980604759359485,1.3318404986088208,0.2564150413198005,-0.7955156817426272,0.14252105464060907,-3.388578447518323,8.145700704151032
126123,1729159830,812525197,-0.1734225053317252,-0.0002216827993781281,-3.903628403391416e-05,0.9848474927507166,1.4218888590842447,0.36626836546143404,-0.7357032763530295,0.0038703561730373173,-2.9367187750539623,8.080088336308979
126124,1729159830,820526898,-0.16436162495917775,0.021913207114938438,0.0036522745054734162,0.9861499523326324,1.4026991847980295,0.4658098748019147,-0.5963731481839971,-0.3924816400559432,-2.862885188372221,8.349812349929918
126125,1729159830,828555765,-0.16232665150796188,0.04022552023420333,0.006623095625988684,0.9858945685703058,1.3205208300236033,0.5195751195457347,-0.4663748545832163,-0.7437779964847377,-2.9174655649276295,8.619146412643497
126126,1729159830,836556436,-0.14153172893732746,0.037846360454670595,0.005414968599230752,0.9891951783239824,1.1601087111173571,0.5135221608604438,-0.30621769656057574,-0.7151356443263895,-2.6169409197671247,8.957678352957192
126127,1729159830,844533310,-0.12612978731625674,0.03743587012117513,0.004763239048255233,0.9912956894557726,1.0532191882370587,0.46434154907283187,-0.1160458981638824,-0.7051328380118493,-2.3346331419481654,9.025525123346581
126128,1729159830,852532755,-0.13378152396771378,0.04470128356465438,0.006040711161687293,0.9899837417357971,0.9933423751235001,0.43227904163149256,0.03977480689741267,-0.8413467328364065,-2.46787556510054,8.964000774691542
126129,1729159830,860534200,-0.12810117235377144,0.06674405781645204,0.008640938459801132,0.9894749388288303,0.9612474978085231,0.4126158471052269,0.17328209571162068,-1.2872331422409065,-2.419012969675558,9.184941684297346
126130,1729159830,868534389,-0.1364885309915608,0.07363888994415516,0.010174499260744829,0.987848507798818,0.9488016124029295,0.38336463786952424,0.260623200045,-1.4700102491140752,-2.659043099188147,9.437695153400673
126131,1729159830,876531921,-0.13165999366197847,0.08383102400987635,0.011174858737151691,0.9876806811994391,0.9690039351546054,0.33942112851745665,0.30238561110847684,-1.755650335259461,-2.6900548585363255,9.909212576659543
126132,1729159830,884531852,-0.1374638477948522,0.09260530424311174,0.012909532882688337,0.9860838159792631,1.0428503877176054,0.32071744401253266,0.2712519696335748,-1.9976633359213016,-2.883678055502655,10.139929434423461
126133,1729159830,892532393,-0.13614634240321183,0.09554793309900649,0.013193446040314515,0.9859820986774133,1.120362084049444,0.30608971281788205,0.21553674940143677,-2.057876977382859,-2.8509326304207336,10.124412382333762
126134,1729159830,900531465,-0.12089013706388477,0.08096034418850427,0.009893069779110872,0.9893094180285052,1.2247629502073831,0.22324300340669817,0.12932204964086205,-1.7363114342324497,-2.5377562518364245,10.227390208941271
126135,1729159830,908532952,-0.11842047701014763,0.06458392872620387,0.007718834199349259,0.9908309272391433,1.3065595226679383,0.11606681946261357,0.07376201923135894,-1.417676521184001,-2.552160464969042,10.523569247435075
126136,1729159830,916528651,-0.10460940956424647,0.07579846043954958,0.007996495652918802,0.9915883827893944,1.3530833257754993,-0.0005987684636670765,0.014884597297935183,-1.6507481075346193,-2.240219390553691,10.498008949584094
126137,1729159830,924528807,-0.10815980134973785,0.08643108135450098,0.009439705307489209,0.9903241981854147,1.3716324262878712,-0.047610857900485755,-0.10600555821598745,-1.7994496054875686,-2.208677853814636,9.989227808715299
126138,1729159830,932529267,-0.09580500914857366,0.09043279279677913,0.008740435889257065,0.9912451336523587,1.404472079729858,-0.08220346248450744,-0.19301311361405007,-1.8233087989370724,-1.8981391695641725,9.726097073412772
126139,1729159830,940533780,-0.06843048712735245,0.07316388322725781,0.005032017743532953,0.9949567796743988,1.4795155797851143,-0.1387169903977311,-0.23840660586949514,-1.4471300242352902,-1.3399964411916283,9.694393059721492
126140,1729159830,948534155,-0.06572364567970194,0.06474817096022539,0.00427375284331156,0.9957257713811111,1.5381637617850528,-0.20157203132508345,-0.26947391177592045,-1.2393792718653929,-1.2474040121759142,9.407220065569224
126141,1729159830,956532142,-0.050848860047093124,0.05893814790569895,0.0030060724610897417,0.9969612087146199,1.550365407666066,-0.29717890424033117,-0.2919455058729339,-1.0335653841641577,-0.8863484229305486,8.665814534458722
126142,1729159830,964539180,-0.04789746912226532,0.06164164660431088,0.0029615292536203596,0.996944015078114,1.4742511431481158,-0.3728477006323471,-0.31223950331453454,-1.0515743696586508,-0.8121700681626259,8.432139802218202
126143,1729159830,972538253,-0.0265835910572049,0.06986177674940314,0.0018623903487270553,0.9972006700449558,1.3830337478609085,-0.4301683001884936,-0.33505815331604566,-1.2156086672053465,-0.4600081419717943,8.620898270979358
126144,1729159830,980533745,-0.016240313420328133,0.051378317753050656,0.0008356142516543564,0.9985468554022383,1.2393340878430195,-0.537779350493651,-0.3474722731325663,-0.9235349549618799,-0.2910883556420609,8.946040199159881
126145,1729159830,988532002,-0.005342384287364521,0.039747656881830046,0.00021251824017333188,0.9991954451149825,1.110970975747545,-0.6534287880521892,-0.34300142330154176,-0.7109411817173622,-0.09540493843406468,8.92133764366585
126146,1729159830,996529890,-0.0015418132534819348,0.0141540193481178,2.1825066855603338e-05,0.9998986378987876,0.9241250726330561,-0.7819893691305344,-0.30668939854742655,-0.23981697953822978,-0.026118341478407553,8.469095467058885
126147,1729159831,4695925,0.012464707526500769,-0.016317026809920324,0.0002034298600878764,0.9997891499304516,0.7115546762593233,-0.7999547992343192,-0.22913678564343126,0.30023422023604646,0.22925582494693986,9.192780371055642
126148,1729159831,12527874,0.012472572208977944,-0.024558304688790753,0.0003064215022328729,0.9996205433659151,0.5495315434566591,-0.7575227996138362,-0.16472623531962877,0.4894713866338154,0.24840503183339832,9.952602739234948
126149,1729159831,20525156,0.02503309620923372,-0.02529379978146186,0.0006335835731017165,0.9993663824437214,0.40421468682985096,-0.6086134820175572,-0.08649072940937834,0.5208925695291173,0.514877032771914,10.270829564683547
126150,1729159831,28558560,0.012230796314550811,-0.01306357691324652,0.0001598035409508542,0.9998398496972263,0.288929028797272,-0.4622254232238775,-0.01060250168380994,0.26943991183465793,0.2521836403174453,10.30614255204255
126151,1729159831,36530737,0.040919147359394586,0.010345587957763216,-0.0004237102448273371,0.9991088092189042,0.18229690856906589,-0.3028766576220484,0.06941132992995566,-0.23146396549686155,0.9138634129502328,11.138007026586857
126152,1729159831,44552602,0.034868387126177486,-0.020863701041667317,0.0007280851163591985,0.9991738444585738,0.08809364206833795,-0.2992164515367498,0.04803214887990387,0.47355840536985183,0.7901324154459209,11.306965302377897
126153,1729159831,52551326,0.11264004578662443,-0.03762852500248832,0.004268727236673618,0.9929139399560786,-0.00631473330221962,-0.35533986630586895,0.03520464024987279,0.9001631303801142,2.65663368266599,11.557977871612284
126154,1729159831,60539257,0.15469211732821783,-0.04748416148283657,0.007443735768153039,0.9867928830522638,-0.12596188762093485,-0.3387824879148207,0.20416951057859725,1.137451192437053,3.608461486455063,11.225914358465417
126155,1729159831,68533218,0.16405615724680928,-0.05057573510518965,0.008422609193219199,0.9851176234046156,-0.18795930879853726,-0.2743597330130517,0.4319783810300553,1.0904426783528567,3.432806670925772,10.02015387264761
126156,1729159831,76536316,0.18816838979448647,-0.04416058901634745,0.00846964470571178,0.9811069078232191,-0.18386582554328162,-0.23485469994906627,0.729148856472116,0.9042202603320266,3.708810106071088,9.312738732279971
126157,1729159831,84536623,0.20721513169612713,-0.05956690808295868,0.012641524725448583,0.9763984148441704,-0.21503925044562874,-0.24478119496617545,0.9466146273918593,1.2366112174785129,4.10138248454109,9.226829762805481
126158,1729159831,92537512,0.19563563128805755,-0.06879059527739738,0.013758314922109927,0.9781642308643312,-0.2431084867392017,-0.2303039690262635,1.1166832656596744,1.4240747834656233,3.875323831544967,9.299543447282899
126159,1729159831,100530223,0.1947770169916273,-0.07584537693572228,0.015108433993340267,0.9777940108589285,-0.23994259562663,-0.17819724719318905,1.242137402000775,1.5375106037219521,3.7753622444836203,9.098963088633411
126160,1729159831,108526230,0.20346748481612167,-0.07333700904283635,0.015285310343358966,0.9762115677530969,-0.23932013114347306,-0.14778459421626847,1.3357145564483028,1.4635959374284837,3.870050719492906,8.87949492471325
126161,1729159831,116531420,0.18867225916735397,-0.07651740132502138,0.014747236084303224,0.9789435044695002,-0.254271494666212,-0.13379390304473643,1.4769988614092258,1.498255792437559,3.5406790767152745,8.843103252435371
126162,1729159831,124526910,0.19043834643196547,-0.07617223456313352,0.014822920874380844,0.9786272568790783,-0.25941110222669717,-0.10837188588333595,1.6413734858791795,1.4833781007066758,3.5520698959803365,8.779848560347942
126163,1729159831,132529654,0.19748613602468185,-0.06348189853772504,0.012816658105393902,0.9781641007065718,-0.259515036332754,-0.07736814331240048,1.7651139741874116,1.230482336498224,3.6628127395901546,8.70047605637478
126164,1729159831,140543507,0.1969205490419324,-0.05051431107221687,0.01016001034837122,0.9790645412492703,-0.26383429741100844,-0.02087948229971839,1.8104113429929327,1.038043449750497,3.879135469681827,9.252600069860025
126165,1729159831,148540465,0.19590893655152147,-0.03632531498441569,0.007262264487294392,0.9799221497573425,-0.27749379565597393,0.0377037378726887,1.7907638575154219,0.7873077239030325,4.077403275217299,9.789536400558593
126166,1729159831,156533863,0.1979709559344136,-0.027038144834972862,0.005463012754475111,0.9798196746452593,-0.34996869388372,0.1311732083964313,1.6342407453318246,0.6086147088047101,4.278245655315927,10.154793828860546
126167,1729159831,164550811,0.19779271313171118,-0.020483254358792235,0.004134031793145768,0.9800211164582133,-0.4573071420396724,0.25621668066752595,1.3849500055880246,0.45590906820274796,4.228283925171978,10.048336860060468
126168,1729159831,172533127,0.20279782419565073,-0.016216846419955775,0.003359009719283239,0.9790805755643441,-0.5425690239448833,0.3623181385169111,1.211962608361333,0.371707708988055,4.455922985718421,10.29475121393667
126169,1729159831,180535172,0.19625660296980577,0.0005065863730112399,-0.00010139276296969433,0.9805524355589079,-0.6584310424302386,0.4604599082049667,1.039208380068469,-0.01184655746849515,4.412701877368553,10.581942362883488
126170,1729159831,188532912,0.18646910417324455,0.01014108077219421,-0.0019248631351501456,0.9824065994136595,-0.7781796807739716,0.5206220402021862,0.8159369358219197,-0.237669554354144,4.217738575151601,10.710203741704701
126171,1729159831,196529133,0.1753024026164702,0.02711239355032384,-0.004829515067232205,0.9841293926801906,-0.9594312095759535,0.6120590273905819,0.41676916098314437,-0.6164142411574083,3.860143326975726,10.491237243802118
126172,1729159831,204532706,0.1527824435629067,0.03370708716373981,-0.005214135784810596,0.9876710839150353,-1.1426778876129982,0.7614244133481904,0.026148524260858008,-0.78165123024132,3.4562048267518417,10.903819962248068
126173,1729159831,212528959,0.14105596159784145,0.03552578088814153,-0.00506506081625719,0.9893510396966911,-1.2636938360332377,0.8467867443081352,-0.2801654781595972,-0.8163893990334637,3.1729008782288393,10.900696679497276
126174,1729159831,220768730,0.13818743578024145,0.027865948899676057,-0.0038895952391991635,0.9900063598448635,-1.3209785628727482,0.8639489379671395,-0.6014517694641064,-0.5990092351232033,2.911460005697069,10.225812623176882
126175,1729159831,228556432,0.12439665532076255,0.02569293119474083,-0.0032222320801039263,0.9918946328376073,-1.3442814573784418,0.8887197162522511,-0.8333870299013189,-0.5219718337985313,2.486444896240507,9.756957005058473
126176,1729159831,236551749,0.11172380314361294,0.03650246311367439,-0.004106693768419515,0.9930601678972198,-1.332296100332674,0.9269951366037299,-1.0010694202816026,-0.7508431637556813,2.266391174804851,9.944667739412035
126177,1729159831,244542899,0.09763843813897707,0.03592368462496947,-0.0035266925020004188,0.9945671353512257,-1.3119084941998904,0.9193107043893509,-1.1050843750014692,-0.7251208286733306,1.949526573779395,9.83319690463355
126178,1729159831,252537983,0.088091169846123,0.03195818178359892,-0.002827687851128161,0.9955956129843304,-1.296696100089986,0.8840503606354573,-1.1577024764197623,-0.613440520885639,1.6760895953906838,9.397128507770363
126179,1729159831,260538263,0.09174637308084352,0.035907738557540154,-0.0033105294504747005,0.9951292768946914,-1.267561230735328,0.7794589023365628,-1.135636389526522,-0.6369331589669304,1.611626197419957,8.665745103929796
126180,1729159831,268542900,0.08563030648136807,0.04926769436772633,-0.004239585655939134,0.9950990758799152,-1.2385866774630583,0.660087249182776,-1.1049434448706346,-0.8255660428410956,1.4209163532175992,8.194593339213347
126181,1729159831,276535604,0.08283692606203172,0.057794837905839336,-0.004812213231517195,0.9948741845056819,-1.1811870797222654,0.44160118608610294,-1.1303737544076915,-0.9262959245327823,1.3141518920086845,7.836245507922539
126182,1729159831,284535792,0.046709770592291325,0.042461430826340116,-0.001987331112012735,0.9980036446518854,-1.125037127943226,0.19131633101873025,-1.1626595425884068,-0.6429264951493568,0.7044546569337263,7.508948751286726
126183,1729159831,292536215,0.013953339317253649,0.03142366980981539,-0.00043872456390106455,0.9994086575662322,-1.0926242270601887,-0.02015395087222588,-1.1462730503340253,-0.4968468541208641,0.22036275387703264,7.8900521377349255
126184,1729159831,300532887,0.0012939518022781233,0.02249936051458105,-2.9120484121447167e-05,0.9997460195555498,-1.0616828548708914,-0.2849596999204978,-1.0708848855162434,-0.3467104061736903,0.019929594464891433,7.699010618578455
126185,1729159831,308527469,0.009002848225199946,0.018346664095729253,-0.0001652067375597752,0.9997911388620757,-1.0184280079925152,-0.5213187405355507,-1.004793173613935,-0.27721867168272984,0.1359774026750286,7.549669783012306
126186,1729159831,316557015,-0.020814448603965394,0.018891467816496064,0.00039337095394239755,0.9996047801167939,-0.9298986608305707,-0.7997806746338946,-0.9229948303878088,-0.2929844708319035,-0.3225547986293579,7.741862817073009
126187,1729159831,324528893,-0.03338954655407139,0.0032861288842709903,0.0001097841612692523,0.9994370052611157,-0.8239954849121123,-1.061361028737472,-0.8496514909487973,-0.0512921961710171,-0.5205808259549585,7.782479545712555
126188,1729159831,332530400,-0.03652108540609631,-0.05695925128868379,-0.0020849964074016224,0.9977061224646134,-0.7298038949357708,-1.2664122181448279,-0.787766504703985,0.7901964315649679,-0.5043634687175064,6.879575279917767
126189,1729159831,340547795,-0.03496056516787637,-0.10931494926362767,-0.0038471624680446554,0.99338471907493,-0.6298685546808387,-1.2685469543340244,-0.7067894366265084,1.6065752441928869,-0.5070829030078475,7.193520393780739
126190,1729159831,348537164,-0.027791344465582745,-0.05909937766577877,-0.0016459672511179666,0.9978638161212787,-0.5677789002205693,-1.0378267125507352,-0.625850751108908,0.9718460119942478,-0.45508444639455226,8.163115463807506
126191,1729159831,356540065,-0.11253902843871116,-0.06706571634627875,-0.00761334924528906,0.9913522046590206,-0.5577692714779777,-0.6129051561168143,-0.512582650456119,1.1696870139348299,-1.9291199561668095,8.386460517298175
126192,1729159831,364537027,-0.034760309816332824,-0.09078663200026967,-0.003170805875408167,0.9952584861741299,-0.5245193302988527,-0.4575636966385772,-0.43525660871228083,1.797398888048398,-0.6817441038270388,9.746298799392576
126193,1729159831,372532091,-0.10593801357099294,-0.12554040422455226,-0.013483907682592073,0.9863239469978287,-0.4113432421311928,-0.39330574513105315,-0.39056374391182613,3.07472467706732,-2.5243236290442703,11.611580356295702
126194,1729159831,380534148,-0.15922186945925185,-0.12446630770608211,-0.020239628680934443,0.9791562142798124,-0.12080168708595432,-0.16829872730616885,-0.4250473938820858,3.1087338626368757,-3.8130277711765617,11.41010765469539
126195,1729159831,388532091,-0.14629505903317686,-0.10927344481161512,-0.01626175783036736,0.9830527072307713,0.13185021725020257,0.1676311923988406,-0.4989488415469956,2.869607914017672,-3.713084910996953,12.195668782270358
126196,1729159831,396535514,-0.16062266776858217,-0.07498291937912188,-0.012238705402434887,0.9840874628255154,0.35793712060775223,0.5556413911422162,-0.523282277257226,2.008590107297322,-4.167154291324734,12.423754570143464
126197,1729159831,404528129,-0.16458060883861267,-0.04872214145641095,-0.008139791441770123,0.9851259411473731,0.532752748276789,0.7228912409230885,-0.41060101030621676,1.2336450641342525,-4.044313225429606,11.765491671529437
126198,1729159831,412531151,-0.1662030548029378,-0.04268377415092703,-0.007201175952803431,0.9851409965397344,0.6614807683200847,0.849208244540796,-0.30425445454256633,1.0025915404336765,-3.78888867988667,10.908931852282896
126199,1729159831,420525014,-0.1635394238052097,-0.025950640148487206,-0.004303399736950997,0.9861860381733498,0.8106592007331455,1.0037511080818964,-0.17531594168068526,0.5189549669848152,-3.18073563713122,9.326463759807238
126200,1729159831,428556663,-0.18125192539501256,0.016100427950646406,0.0029677944995032263,0.9833004159239512,0.9350728452208685,1.1318091013079052,-0.09029041285724004,-0.28693801468215774,-3.123259304642013,8.184010250513248
126201,1729159831,436545703,-0.14536111775350755,0.03543932272480856,0.005210218620660568,0.9887300205173213,1.0799598920547375,1.165649201035845,-0.08014134146352796,-0.6007249059772634,-2.408820233664114,8.014967443032559
126202,1729159831,444560957,-0.13505358143614524,0.02941750353895499,0.004011475931642326,0.9903933807773838,1.179237131937458,1.022488277271189,-0.10001899237648464,-0.528986740461358,-2.382143249817609,8.571947215087112
126203,1729159831,452540704,-0.12174476544481468,0.0324726424598022,0.00398516748496409,0.9920221056098406,1.2226272535315328,0.8846575355140275,-0.10172902144916987,-0.614751890468221,-2.268214211609315,9.101741353954612
126204,1729159831,460554177,-0.11659725861776164,0.06613879855618918,0.007782076429272808,0.9909440841413887,1.2035381799730027,0.8036618507055787,-0.04826671102564097,-1.2712257399938232,-2.2008144693484013,9.221856780146204
126205,1729159831,468538712,-0.11410231602543615,0.09837339018490025,0.011354971730188929,0.9885213210640261,1.1810167942398717,0.7946536155364785,0.006797938547426073,-1.8801093587912159,-2.131165363737947,9.106699466036941
126206,1729159831,476536744,-0.11463014409920647,0.11901988386714567,0.013834801467688248,0.9861555635782805,1.1849572553199366,0.8420342420563102,0.04494500902881068,-2.2882957397864483,-2.1434848578912056,9.092671715754976
126207,1729159831,484536778,-0.12665094704152652,0.12424106933105714,0.015991007858605397,0.984006088381889,1.2128629356556972,0.8521579453253418,0.03207528615483078,-2.4525229724363222,-2.4209425016487858,9.24562425748033
126208,1729159831,492536334,-0.13703203130397867,0.1356256570382447,0.018943951306512642,0.9810550597487107,1.2402485953937044,0.8458871555043619,0.003494639418803302,-2.680825042006715,-2.607049541516615,9.146338490035072
126209,1729159831,500530204,-0.13175364125907035,0.13048795172623942,0.01749847336654994,0.9825007256481325,1.301377447690022,0.8238200089689065,-0.04770895353977571,-2.6889982344325443,-2.621030337702938,9.593140680690965
126210,1729159831,508770098,-0.12628059886102205,0.1214620773646669,0.015581260430173102,0.9844071304277353,1.3687044434930788,0.778652966437981,-0.08183662980661938,-2.6730725954446832,-2.693343999740903,10.321626974332547
126211,1729159831,516539240,-0.11341190277904975,0.11067276509572906,0.012713284162709223,0.9872829643926301,1.4716770800098316,0.6187374417432718,-0.10742151630426995,-2.5576934986730597,-2.5550122909578232,10.971323857939371
126212,1729159831,524530435,-0.10149525425298336,0.12728224678147454,0.013094360676359598,0.9865730995404545,1.568792937021232,0.4653199686290721,-0.19599113877432972,-2.8408925249850854,-2.2050597805805534,10.59978586017378
126213,1729159831,532531468,-0.08452905503989476,0.13567100031599583,0.011618330877173693,0.9870730636153273,1.638556082887547,0.3805062158054068,-0.3048983103078917,-2.886552874610192,-1.7523162260143479,10.152047525625752
126214,1729159831,540724948,-0.08638964733579421,0.13385688557571881,0.01171427783189973,0.9871585175198779,1.6663661983790887,0.30577932066933383,-0.4362245727546438,-2.68386630484424,-1.6880079570441555,9.566651645258263
126215,1729159831,548538127,-0.07520724082819785,0.12750101240025175,0.009696284266672205,0.9889354603993833,1.6600650043550642,0.23540177989996816,-0.5252368916977839,-2.556508279000294,-1.4748856946366493,9.637511869723317
126216,1729159831,556534693,-0.057189011309563775,0.11473556409392478,0.006616354076931218,0.9917264699382649,1.6175464923476044,0.15103193935360762,-0.5905636047846048,-2.1721991299978325,-1.0649753816257397,9.20070883203907
126217,1729159831,564564799,-0.04371543633441475,0.11191144906111675,0.004928015873769024,0.9927439261232882,1.570750882070027,0.08210536238292394,-0.6365706736200898,-1.9935678166217465,-0.7675538581258343,8.696094381254692
126218,1729159831,572531568,-0.03049264876584493,0.10985919139307279,0.003371904144269054,0.9934735963779535,1.4903136383436508,0.004991451037703071,-0.678222686949628,-1.9299634988109384,-0.5287670621899537,8.603536616545783
126219,1729159831,580533251,-0.020001647956873234,0.09542190618536643,0.0019177351063358245,0.9952341011998245,1.3492508587091023,-0.04979069699867008,-0.7032138949473508,-1.7735273461127348,-0.3682567326753004,9.156368599566143
126220,1729159831,588534664,-0.010162979028306506,0.08230103949452579,0.0008393148917208767,0.9965553413162278,1.2020367518934545,-0.09798482803312711,-0.6930929061197246,-1.5848552687516253,-0.19437840117744587,9.52781153693695
126221,1729159831,596530641,0.00034905885139819795,0.07225936748813655,-2.5288881666689545e-05,0.9973858136792427,0.9970692109634691,-0.1741529034760868,-0.621464043357996,-1.3888126448935534,0.006674344791579354,9.534480889447325
126222,1729159831,604523323,0.012605035587886889,0.07497026574857772,-0.0009477459778636218,0.9971056484189512,0.8272627796446546,-0.23262445058572356,-0.5665674039800219,-1.4045441030494135,0.23480564691401012,9.284457704810974
126223,1729159831,612527548,0.015425800860305785,0.08195090006875116,-0.001268577768798374,0.9965161741568394,0.6555657507735926,-0.3077222446289366,-0.5412918414595541,-1.513102926673398,0.2828595465956717,9.133007273033067
126224,1729159831,620720506,0.020084864939799187,0.06832791301569889,-0.001375851878710507,0.9974597743943747,0.48954540435457466,-0.39832975763130185,-0.5125044219804884,-1.2449653497540387,0.36412490276209053,9.037109190479997
126225,1729159831,628544873,0.01875971763647039,0.04761043638975495,-0.0008943304518865732,0.9986894009220383,0.33799900900479607,-0.4492887449410247,-0.46117676537608643,-0.8446626375867982,0.3319601003486605,8.83256635901456
126226,1729159831,636590025,-0.0010000812045292068,0.03351786202063145,3.353944581411179e-05,0.9994376176821922,0.14873676759719962,-0.393023364788604,-0.3235319659864753,-0.5791024726887977,-0.017259769868928708,8.624128240701705
126227,1729159831,644564143,0.03636996263224457,0.04062735929285298,-0.0014798188142851679,0.9985111184314852,-0.0010042324716309364,-0.3192492709197206,-0.19411917959188518,-0.7700380766308567,0.6873145018481741,9.422030109704226
126228,1729159831,652565809,0.07976388783279983,0.04787336647440177,-0.003835225506864453,0.9956561424636096,-0.13256645853620835,-0.24561220035751039,-0.12626237916875782,-1.0629674626777328,1.7557752526225763,10.887421735256131
126229,1729159831,660567568,0.05745203072433823,-0.0053860903085223765,0.00030995831228655105,0.9983336907681133,-0.30047301702051943,-0.31168368393885043,-0.13407696592155302,0.11136522185625101,1.1839491420520614,10.252563580704459
126230,1729159831,668560782,0.12595566755988283,-0.0335133430610583,0.004257552922497875,0.9914604878105472,-0.426758355798828,-0.39900386097140195,-0.08768291059778634,0.770714421199688,2.8474338870867055,11.025653888168769
126231,1729159831,676576354,0.16173195012918917,-0.0011791936894350377,0.00019325772570874522,0.986834002485273,-0.4578321026122998,-0.29431633451144323,0.12703145957830553,0.03195119422371906,4.267622486793039,12.670088911270403
126232,1729159831,684514676,0.17783592535779333,0.02752027064573237,-0.00497537713498986,0.9836626779430475,-0.47179376002430046,-0.15487960757230235,0.32567325176373385,-0.8142508813661592,5.091244646860979,13.620118639730991
126233,1729159831,692527754,0.2106564329868172,0.04782692632969473,-0.01031925522986762,0.9763349657420989,-0.45548073090670305,-0.00651268206658899,0.4703997307627127,-1.4380909072376644,6.03816147683729,13.340434307617892
126234,1729159831,700531189,0.20479381932737087,0.05404013489666685,-0.01132476254448568,0.9772465938231605,-0.43164514140789756,0.0863386837899973,0.5559585479777139,-1.481755673492989,5.363002652703937,12.232899556738705
126235,1729159831,708527757,0.2002302851507499,0.048261573237031806,-0.009875660013457124,0.9785096447130374,-0.4339457001056335,0.13523846232055659,0.5664275924063596,-1.1933564351016528,4.740753267647753,11.098157500156502
126236,1729159831,716526183,0.22159071281851084,0.06753090978722215,-0.015384575992099508,0.9726769489596419,-0.4161699825584837,0.15904435863988575,0.4705434043126595,-1.458455795875445,4.528054568010527,9.421084955416166
126237,1729159831,724525157,0.2238461142766029,0.05095390531090149,-0.011719673950243249,0.9732210776074127,-0.3889026396331745,0.15544891385007792,0.3887485579531036,-0.9873615353865951,4.108582165855144,8.458415898786809
126238,1729159831,732556274,0.21071357523389997,0.054595848838547144,-0.011787567021339566,0.97595088798846,-0.38871845621354617,0.12179058242800286,0.31838714706426846,-0.9750103465249258,3.584438575636133,7.9133756073873185
126239,1729159831,740609551,0.21403075670679744,0.06188645482405324,-0.013588443247731922,0.9747698477604492,-0.4209603908328836,0.07562848982557391,0.24041233536815676,-1.0715079852587055,3.5213435958211323,7.631362423758562
126240,1729159831,748560757,0.21443776790819583,0.08387671731093432,-0.018486317847866647,0.9729539537101023,-0.4535019435098091,0.04282295352657215,0.1719172552159261,-1.470580305071239,3.5593828005590855,7.681223965485606
126241,1729159831,756554373,0.2192861612273907,0.08862962719008952,-0.020007038801259393,0.9714206540303256,-0.5155958812621675,0.0231396317471711,0.056324446368732184,-1.588158832456806,3.708380750892092,7.793740847797222
126242,1729159831,764591880,0.2350809344079486,0.08503844648607939,-0.02065116876330662,0.9680283808472918,-0.5690284662491398,0.01941774984730907,-0.05176903453262905,-1.5435448490346304,3.998892460545021,7.746329297496692
126243,1729159831,772560849,0.2261575921340653,0.08955645763986092,-0.02088587401459512,0.9697402562963796,-0.6147100992081083,0.08018674980377252,-0.1574913689738008,-1.6630621804168721,3.9498204714441996,8.005904827033172
126244,1729159831,780528919,0.21845829713036893,0.08421275770373154,-0.018926509284401313,0.9720215898328285,-0.6395649386147171,0.1140940094088784,-0.26732498633786533,-1.7101123021466076,4.191879746245426,8.853095584208184
126245,1729159831,788576934,0.2156724431004149,0.07479329495037335,-0.01657070380995407,0.9734560966437097,-0.6680999242254673,0.10123454037790347,-0.3562124200752537,-1.6097737460340584,4.399125134124208,9.43922159246827
126246,1729159831,796523319,0.18016304249160434,0.07056253165515597,-0.012958756977371802,0.981016961048169,-0.7844066999125708,0.04584157207557097,-0.4555194069555861,-1.616368838684888,3.9720877245174933,10.448344973303225
126247,1729159831,804547808,0.15577982586113873,0.0676884037029186,-0.010700590047847427,0.9854118038827483,-0.9218754850972959,0.005794750110778967,-0.5427734530788177,-1.5662169367558547,3.500387129339402,10.7933298611792
126248,1729159831,812524592,0.1359676565011089,0.06299408695279317,-0.008663308759452613,0.9886705662028776,-1.110353581512177,0.0034768500664673803,-0.626626945300947,-1.415936872258591,2.9875234128575476,10.65531633467627
126249,1729159831,820518584,0.12622846093476664,0.05867233454572912,-0.007479142344280448,0.990236333022975,-1.270266346121929,0.05529736772263438,-0.6556545375611229,-1.2874616069977327,2.7161970482028095,10.480092034692479
126250,1729159831,828543215,0.11782075444142535,0.05801773811967189,-0.006895584493190917,0.9913146134304829,-1.3815388471004133,0.11831643292598695,-0.6488067594138927,-1.240782808925202,2.476307935952936,10.269612581655332
126251,1729159831,836556234,0.10085447022664647,0.058137077114430544,-0.005903625765915252,0.9931835697909573,-1.4917227339566312,0.19954825831712575,-0.5982978758261931,-1.2515615969762148,2.141796016454574,10.436375193036168
126252,1729159831,844603229,0.09532619590203224,0.056991878929116585,-0.005466722273254343,0.9937982476632585,-1.5803946393278496,0.25339563428935336,-0.5518163233380162,-1.2003286097970571,1.9829873938082911,10.240748854835372
126253,1729159831,852561020,0.08493352123228029,0.053571410224096255,-0.004573172008079895,0.9949349159997712,-1.6463684843944417,0.2618654164308162,-0.4924263272969197,-1.084834078720031,1.7026304318904435,9.89927577652427
126254,1729159831,860558521,0.07409068702056437,0.05392623003303448,-0.004012346156852647,0.9957843305101575,-1.6527489666403583,0.20862774729539554,-0.39889848131342553,-0.9982991081206906,1.3601183738803597,9.088898329684094
126255,1729159831,868559373,0.06185792762536569,0.06147989006637787,-0.0038175928783166983,0.9961823356654828,-1.6335899926689588,0.14646115145033892,-0.33001107187946804,-1.0292175032024926,1.0277184510860284,8.242823352058503
126256,1729159831,876533872,0.03395416838258765,0.08793230967360445,-0.002999034899994579,0.9955430825205812,-1.5778228418940676,0.06446373748979162,-0.34784954476231594,-1.3733799660328236,0.5256514075656796,7.695913458256586
126257,1729159831,884523111,0.011160672911412374,0.09944979520208654,-0.0011155272927238088,0.9949793632097536,-1.5137128670038669,-0.005593523898176321,-0.416872166912323,-1.567188174932194,0.17413294659018896,7.7594589135769985
126258,1729159831,892525492,-0.027549121147167593,0.0948207402584346,0.0026250655941623814,0.995109633242231,-1.419907174079682,-0.1046703489668693,-0.522564939483094,-1.5814801095491602,-0.45504516002440226,8.2105859731462
126259,1729159831,900526503,-0.04485419140207897,0.08901507921993762,0.004012715967216013,0.995011716160016,-1.3172235416258098,-0.2931005326310807,-0.5459657372481257,-1.5132013970283242,-0.7549798902040945,8.355566621729517
126260,1729159831,908526193,-0.04470929092949813,0.06878896463926407,0.0030859235432178045,0.9966241190761566,-1.2104902156385111,-0.5040673569658748,-0.5600062159071446,-1.1459044832365257,-0.7398132930091754,8.228273962295523
126261,1729159831,916753723,-0.07743892649720664,0.05692467396312681,0.004428731283334562,0.9953608292957745,-1.0766370499663587,-0.8302960903924441,-0.610148129125835,-0.8805153437505092,-1.1868087509519896,7.580641850521845
126262,1729159831,924522872,-0.09360310743655602,0.04515342096132271,0.00424954975419146,0.9945760746069638,-0.966101156199263,-1.08562993905307,-0.6530039789009103,-0.6757920285159306,-1.3858135977391624,7.296928616172481
126263,1729159831,932530580,-0.10375879195387255,0.010993895701522309,0.0011469745955668656,0.9945410659187754,-0.824432479060226,-1.2805478742727248,-0.6506219447094614,-0.16844925275408956,-1.5724935724618567,7.45422746267224
126264,1729159831,940528913,-0.11439776796146583,-0.044931878823067276,-0.0051794451434567035,0.9924048822425602,-0.7032476175525311,-1.281710938686845,-0.608326478294237,0.6815949710526245,-1.7091618343950827,7.314693268374829
126265,1729159831,948539735,-0.10936534068790853,-0.07015013724974119,-0.007737819533887935,0.9914929685322641,-0.6113806478821227,-1.1308631154548339,-0.5782666077690201,1.1712707912253246,-1.7952329343772837,8.037818711269038
126266,1729159831,956533626,-0.19617466128194003,-0.050063656571876496,-0.010029444609304024,0.9792387567914161,-0.5898899809353781,-0.7444998287995152,-0.5691701767445926,1.0532735977820697,-3.95784319812637,9.481089396927437
126267,1729159831,964561982,-0.16734882543921176,-0.03027894834016664,-0.005142122399117422,0.985419258229086,-0.5667790192922427,-0.485863382934216,-0.6135180553209937,0.8029101572043981,-4.309220860282072,12.321071077121305
126268,1729159831,972533914,-0.16688896339934167,-0.0568547804912086,-0.009639898378308347,0.9842879051324595,-0.3928529791966376,-0.45923991397657005,-0.7095142624851456,1.5735020513538887,-4.475036466364555,12.816227667024735
126269,1729159831,980530159,-0.21761037911682163,-0.07104838274878877,-0.015884721248985916,0.9733167654162014,-0.05266506108930896,-0.29725414152050567,-0.7918020103484344,1.9851001126482706,-5.7603739122894355,12.23680439318359
126270,1729159831,988822710,-0.16807924321181786,-0.05981621482541976,-0.010218339061980775,0.9839039455110017,0.26297848587814054,-0.04681425592053565,-0.8496884602956485,1.7110806681748998,-4.654761698447881,13.225354375412108
126271,1729159831,996524751,-0.1993766829941985,-0.04759903696644599,-0.009696497353936354,0.9787181657132777,0.5285631350603138,0.19241889828501096,-0.7630986627472978,1.3237688269303305,-5.311557165553103,12.495209107180859
126272,1729159832,4817236,-0.21181245977318525,-0.033682389079666426,-0.007304527475804468,0.9767024226595703,0.6879139245696178,0.33468172062395285,-0.6464398948760586,0.9048734128574168,-5.428385893570144,11.926637955763594
126273,1729159832,12526266,-0.1925920904912509,-0.0412799735010878,-0.008109328106696565,0.9803767078351144,0.8431210068798846,0.5056031163811863,-0.5262132069007954,1.0040472874605437,-4.502495239755367,11.01711179079214
126274,1729159832,20519307,-0.19602023998027884,-0.006519789640010555,-0.0013033248046226144,0.98057730914272,1.0149979176365203,0.6915912058820846,-0.3880952345890226,0.134601368081795,-3.891175948784861,9.343727109875674
126275,1729159832,28549076,-0.1938739358760561,0.012981575924168556,0.0025656986145445346,0.9809372012851135,1.1692068714659456,0.834685124130814,-0.2979877201571044,-0.23575263862357929,-3.387914879573651,8.236027369441029
126276,1729159832,36561035,-0.15427807954474615,0.023780870841813746,0.003714427322639773,0.9877342493726006,1.3221802324912095,0.9162845744654313,-0.264356334448131,-0.4139117320999288,-2.6198071748145026,8.18168952835407
126277,1729159832,44536886,-0.13308303209565425,0.009261906294826852,0.0012437203956939965,0.9910608340659973,1.4109844186761336,0.9124586770449097,-0.2326838713632721,-0.15952215766816039,-2.2513587360410456,8.231686780977286
126278,1729159832,52536323,-0.12006123663187969,0.014693502427755776,0.001777171342767121,0.9926561550239075,1.4025418714750932,0.7624486872652718,-0.1485498141086659,-0.2736024779505056,-2.202911612474237,8.973481286115668
126279,1729159832,60538472,-0.11052091871896697,0.02993979884749584,0.0033309008854602875,0.993417153098223,1.3042502196942842,0.646049909586843,-0.02910758979905309,-0.5728517101589752,-2.0869338180704795,9.262934881288542
126280,1729159832,68535668,-0.10856969075950344,0.05408120440418017,0.005915358973516287,0.9925990399485553,1.2120714038317604,0.617928269003065,0.06469362798274025,-1.0375506672086663,-2.052302485666506,9.268773502015312
126281,1729159832,76531442,-0.1108073818998541,0.08934835445446225,0.010002816944056397,0.9897669116140241,1.1410135820401508,0.6836391565764321,0.12054866859035422,-1.6711907274736373,-2.0305660055600603,8.953608433484577
126282,1729159832,84523276,-0.11018463295183054,0.1138309100134338,0.012703890319173093,0.987289461990526,1.111575280870508,0.7243427593048386,0.15193324264761243,-2.0650217130955104,-1.9485711096836924,8.61870251126262
126283,1729159832,92527298,-0.12674347166213973,0.11544420528493281,0.014853370187574983,0.9850827910644006,1.140738206929546,0.7066216048571413,0.1754465777580497,-2.147373137720588,-2.287953101601231,8.741455022382572
126284,1729159832,100547824,-0.14067116589952489,0.11972125056646873,0.017138828875142672,0.9826416975643043,1.216555500985267,0.6661906078861808,0.18231784777945753,-2.313860453677275,-2.625418169554489,8.978869922609231
126285,1729159832,108527558,-0.13946473951472113,0.1277337621473469,0.018144839621545603,0.98178635009603,1.2956753922742001,0.6393778693348322,0.17154145764113113,-2.5803892787981617,-2.7158485726311308,9.362893810254992
126286,1729159832,116527731,-0.1279907591348818,0.11282678059360546,0.01465730724795166,0.9852277130192787,1.408277906451251,0.593917611963143,0.12378368759631823,-2.5315321891050693,-2.7878239067622723,10.545721563252606
126287,1729159832,124521436,-0.1144093922593757,0.09641403620382412,0.011156955585876559,0.988681114883754,1.508191859628596,0.508747609181293,0.08065556347972141,-2.308527020982573,-2.6780196211569725,11.413914364953516
126288,1729159832,132528763,-0.0993789463814269,0.10850753252703635,0.010902687119243039,0.9890556464702032,1.6298652904469975,0.35547999276129555,0.019446413908414697,-2.523798522159856,-2.2613865065809025,11.13660321247797
126289,1729159832,140550869,-0.08577086773112802,0.12108927757065521,0.010502793669360543,0.9888733166746916,1.7586347469895645,0.25755976204882863,-0.12157314089256709,-2.5155342475732576,-1.7425377913997133,9.966327764889126
126290,1729159832,148543650,-0.05766421958174597,0.12606171058250573,0.007340320396538084,0.9903178290839345,1.8597350643569783,0.19071951245356986,-0.271741143238309,-2.3666841630459077,-1.0618032461288904,9.083639691160037
126291,1729159832,156538477,-0.04919235668143142,0.12837569582490216,0.006375772981358577,0.9904842968389197,1.9276319858222815,0.10464083605851518,-0.4563451382903252,-2.3568616074466853,-0.8860789203335843,8.895440003660866
126292,1729159832,164536627,-0.04083930993488857,0.12841972473774452,0.005292926328213813,0.9908645265591095,1.943254425075203,0.02872929671814658,-0.581580997411244,-2.2891976712551205,-0.7148037792021036,8.653712141844958
126293,1729159832,172533500,-0.02425366626097312,0.11636524449441005,0.0028424474319168444,0.9929062443349091,1.8730238471335563,-0.039804890205024285,-0.6460802613472445,-2.070710126190572,-0.4255303851970434,8.702605759228067
126294,1729159832,180538022,-0.00685894624202636,0.10433997177914661,0.0007196073055768446,0.9945177762669211,1.748727318506396,-0.1039126656778765,-0.673711878110832,-1.9271677505190306,-0.12531308097174165,9.082453052704809
126295,1729159832,188530842,0.010404036267464464,0.09730771223190365,-0.001017276461328188,0.995199442482832,1.637114365982903,-0.15216820237521456,-0.6749660059563514,-1.824282913495012,0.19320215752047062,9.237577698322104
126296,1729159832,196537205,0.020587669801454715,0.07591826393072473,-0.0015678400631353442,0.9969002492383215,1.4871370324837112,-0.21602810943350398,-0.6225072249809089,-1.4436443501477882,0.3890997039361105,9.415407224462012
126297,1729159832,204526988,0.024051063818589628,0.0613820495507965,-0.0014795238754713796,0.9978234319413629,1.3452164448858284,-0.27818269711035143,-0.5744300439986243,-1.1525331286433604,0.4496562322737756,9.321470841024864
126298,1729159832,212527028,0.04839762140035504,0.06536420946277441,-0.003174003435830364,0.9966820536491483,1.1553443372074388,-0.3461251341417262,-0.5357928639956269,-1.192865704822735,0.8774421207119215,9.012760155982106
126299,1729159832,220528475,0.05375331601043238,0.06433718192755579,-0.0034705761595739105,0.9964734131629522,0.9677766919674737,-0.41413476029412105,-0.47302138027785934,-1.1799551247979376,0.9789693861966842,9.046842617026762
126300,1729159832,228525812,0.058670131378854046,0.05723101977950336,-0.0033691058121647745,0.9966298586662014,0.820329519783608,-0.4745222788128114,-0.39789776463854004,-1.0505833324471219,1.0698132662394948,9.054363404688713
126301,1729159832,236556538,0.08147254113261385,0.03373399489509302,-0.0027591530171661963,0.996100712631228,0.6237359408619325,-0.49926115826455075,-0.2549148811186812,-0.6621928815483512,1.5868793550073688,9.635639057217524
126302,1729159832,244545955,0.11195045468336783,0.033345770560530084,-0.003758833341984623,0.9931470316392326,0.44746025508862897,-0.5060163747678158,-0.14571219762635418,-0.7320251210188545,2.424082793668484,10.615516006352
126303,1729159832,252708063,0.16538055232751006,0.00011211803798469768,-1.8801036686841287e-05,0.9862298210802157,0.26847615305317735,-0.5024070835634582,-0.05464918384323606,-0.002752109964828274,3.948489545585856,11.44214408135026
126304,1729159832,260537623,0.18887019456678483,-0.005752835449619836,0.001106472712957166,0.9819845875606856,0.08786700126043696,-0.41382642636405126,0.14131772483202928,0.16139386707774367,5.109496947566357,12.791414398028907
126305,1729159832,268535620,0.19787982809612792,0.021445385374344858,-0.004330292531264815,0.9799821006760207,-0.04859403387170134,-0.2810739905510072,0.29848704575315743,-0.6365076482592131,5.640422633871845,13.397230026756798
126306,1729159832,276535168,0.21406827089676,0.06499152053766753,-0.014275949947343427,0.974549678008553,-0.14026152636461106,-0.06945861000995093,0.3306378893323777,-2.092322254971153,6.545796872559435,14.17946527435486
126307,1729159832,284536063,0.21547061661558653,0.08336910147148097,-0.01846643730578397,0.9727697553832398,-0.20037030259790126,0.08730892261702501,0.2941629974283837,-2.6593532064983165,6.504596790527848,13.959994605286745
126308,1729159832,292544675,0.2257890016524516,0.09738719003789884,-0.02269170677502501,0.9690305198459683,-0.2436722993827299,0.2324522495686544,0.1547876053224666,-2.754405527414615,5.997205686621395,12.167454512195484
126309,1729159832,300539370,0.22793853325039187,0.07906733572690086,-0.018574487128348936,0.9702821084141603,-0.2696534974536271,0.24589386510670053,0.02646491360540304,-1.9715509775815816,5.351357867539243,10.759375845745025
126310,1729159832,308527344,0.23123290593105122,0.07250773646552094,-0.017284025091312542,0.9700387795567613,-0.2916275672180959,0.20457878729993254,-0.033075408904891815,-1.6150839862071522,4.847012135074327,9.58772011926342
126311,1729159832,316878454,0.22976397104470767,0.09091611297786917,-0.021563079481749934,0.9687506447037988,-0.3341846233176574,0.1938375126441188,-0.072630812964227,-1.8201890819098383,4.317434378212565,8.587845677515084
126312,1729159832,324527197,0.2226855106472155,0.10359805021657914,-0.023805914701155607,0.9690778533040332,-0.3575904066700841,0.21421122172273854,-0.1419128919762655,-2.0423720880619185,4.12322852975957,8.495491764419207
126313,1729159832,332557226,0.24276259324911575,0.09823618548548486,-0.024718602446564486,0.9647823411906514,-0.3456667829323562,0.20387387391242273,-0.2601063504466543,-1.9127985494680104,4.400311773617461,8.187969981747226
126314,1729159832,340603103,0.21992965741146595,0.1116358962320728,-0.025343377172492392,0.9687755600224595,-0.35298607077942856,0.1729814416614354,-0.35145554847906507,-2.056278659710103,3.8023325500103202,7.940249988315913
126315,1729159832,348571403,0.22094742384123553,0.10937485966368847,-0.024944042088898683,0.9688122474121275,-0.35993178385644414,0.12592474819288688,-0.4488340734447147,-1.9254520554452021,3.6511222997815826,7.585956069649704
126316,1729159832,356559962,0.2376967479018474,0.09177620216591507,-0.022565648952245273,0.9667306637529662,-0.3564367905963369,-0.020651104974687015,-0.6013386920072135,-1.5400194400542306,3.7279902658552775,7.121030863469509
126317,1729159832,364587328,0.2251793181985852,0.0786077100600565,-0.01823004861426275,0.9709700139047838,-0.3675361865455956,-0.16265925468090936,-0.7039094047427256,-1.2405251235051946,3.350576771817854,6.834174874282878
126318,1729159832,372558207,0.22794115064010012,0.07847848976104936,-0.018435420219976528,0.9703319502989711,-0.39462894706532825,-0.30150109224885874,-0.714794715070051,-1.3222753548648354,3.616376536723525,7.271385603280663
126319,1729159832,380530997,0.21672361074230556,0.07277739515272737,-0.01620390161234631,0.9733816111238894,-0.4385544573721999,-0.40736776804711605,-0.6566210119242175,-1.3512141997353075,3.812727101233334,8.13657201870668
126320,1729159832,388772187,0.21215517449975446,0.07488237206594123,-0.016306973665317213,0.9742263057917474,-0.4849171964450384,-0.48025295487823516,-0.5876615851197549,-1.466739774723997,3.944423809568125,8.625756347210336
126321,1729159832,396526864,0.22037721277378886,0.06714460117307135,-0.015208028782229861,0.9729821182755232,-0.5489184951130142,-0.5401602893124637,-0.46795895772806345,-1.2901706092191636,4.009076624608062,8.395176200904327
126322,1729159832,404885428,0.2182531797730584,0.05726252248423685,-0.012829679525264164,0.9741262507298375,-0.606049637018129,-0.5871726315710137,-0.3663390769907064,-1.1382604380412635,4.1170607416105405,8.725852218345329
126323,1729159832,412526744,0.20115757336495332,0.028913926060935454,-0.005940324507765263,0.9791140526529116,-0.7131213226712054,-0.645604031289948,-0.27684591443033607,-0.5850334149243674,3.901969037739762,9.095203827345088
126324,1729159832,420527662,0.18258138143567998,0.01898424779245017,-0.003526110106231987,0.9830011210758166,-0.815250749533172,-0.67257475995353,-0.19548016289908182,-0.39938292248977675,3.7116224529172945,9.646735781514474
126325,1729159832,428542680,0.164614647582303,0.01706832016584732,-0.002848994101614035,0.9862061516136873,-0.9557067570822898,-0.5908484830154119,-0.01554817305002354,-0.37753576911886605,3.5413901831761576,10.312603766271964
126326,1729159832,436552175,0.14594449528369127,0.030601068401959523,-0.004516602459784945,0.9888090711614995,-1.1723699707264523,-0.40218637669299473,0.20521888714684983,-0.713502079147101,3.3272021836361634,11.025525554440913
126327,1729159832,444533015,0.13411254166822684,0.03557540205048771,-0.004817764705431204,0.9903156093283986,-1.3730324491156471,-0.24897424712211338,0.3623691468297716,-0.8343972692167763,3.0849648050547445,11.1808184784165
126328,1729159832,452536079,0.12457889342825162,0.0372095684303448,-0.00467526320396654,0.9915007257906538,-1.6070891825595264,-0.14299919735133756,0.5149788410598231,-0.8025471908757689,2.6415442712164405,10.345522828993259
126329,1729159832,460536125,0.12224311623267571,0.026068041342105622,-0.003211843258690815,0.9921525899866372,-1.7722132461906517,-0.09005641902542286,0.6482622836211329,-0.5253422049063207,2.425051925278692,9.691595373421345
126330,1729159832,468534947,0.1275945258691653,0.019071699205850483,-0.002453959524586026,0.9916399978521824,-1.858516982525466,-0.12640116186379907,0.7673958348124258,-0.3590192133246518,2.361954744034403,9.026299910820386
126331,1729159832,476534357,0.09711862966988119,0.010736042821490892,-0.0010476836091912723,0.9952143545561603,-1.901785423097114,-0.2103587565402814,0.8226997431916443,-0.17997734342447858,1.6125397018893917,8.183477065632855
126332,1729159832,484547216,0.11926183773753135,0.007535627598890557,-0.000905199612537266,0.9928338274806208,-1.927746487440103,-0.24625985125646177,0.8350232752075359,-0.118281473193359,1.8452381497469164,7.569804863647292
126333,1729159832,492542827,0.0803590281621442,0.03496298279956704,-0.002820453975966499,0.9961486141464849,-1.8956458391621487,-0.18138542560937757,0.7645161131695191,-0.5818915181933592,1.327170022416509,8.172210895483296
126334,1729159832,500539111,0.06919060563184111,0.047438229740612715,-0.003293909057590303,0.9964694800215892,-1.8402017949711034,-0.13479834911481045,0.6732574588785754,-0.8195955371367186,1.1870357243874055,8.506121195493103
126335,1729159832,508536210,0.05669184340243433,0.04768801366968001,-0.002710980709951213,0.9972484839935655,-1.7294597772703864,-0.2430669228859203,0.495903528602944,-0.7850470256511717,0.9281784243785369,8.136886800547815
126336,1729159832,516604388,0.03647708377494237,0.01503518813647327,-0.0005488672592025836,0.9992212288686168,-1.5736196537429297,-0.4357350855871957,0.2737034737198926,-0.235438772031328,0.5703145839239971,7.800903324225174
126337,1729159832,524774140,0.01561055565694281,-0.025185872116332816,0.0003933382057362327,0.9995608174007607,-1.446486064770955,-0.5509102931464989,0.1012199551355549,0.41299442110737505,0.2557580704227577,8.186132065335885
126338,1729159832,532532164,-0.004238501922590961,-0.04309465059283353,-0.0001828282547717623,0.9990619864480698,-1.3408332971468901,-0.48634873838300285,-0.06016400437388403,0.7390868333284875,-0.07255779446509539,8.550865762639031
126339,1729159832,540543670,-0.006490600312871299,-0.0401582109332288,-0.00026086683719869644,0.9991722184642216,-1.2731847359578308,-0.34459481065109365,-0.18083302352142117,0.7312351395478738,-0.1179943483099166,9.081431037173262
126340,1729159832,548546549,-0.008281440514417673,0.0026548285162909225,2.1986635883397755e-05,0.9999621838575412,-1.2228047278307685,-0.1263014647743322,-0.2996346517093049,-0.0487183742790883,-0.1519600452652468,9.17375756517505
126341,1729159832,556536381,-0.03306147882474964,-0.00682696278795728,-0.00022583821848696915,0.9994299776343071,-1.136385634841543,0.005100232813186695,-0.4070992838463079,0.11729411703410951,-0.5673827373642262,8.566438462444875
126342,1729159832,564566339,-0.07487711558735814,0.004213774001612507,0.0003164063015535221,0.9971838153304701,-1.0423908629632666,0.08011004081253975,-0.4728551333128957,-0.07399388988695617,-1.3074476929556453,8.656945316236454
126343,1729159832,572532847,-0.10513171583460756,-0.02454543433227688,-0.0025956833042344502,0.9941519533790071,-0.9421479235057114,0.057856895901150576,-0.5144370933001585,0.46628688017915443,-1.9739080005390122,9.228396987105155
126344,1729159832,580537340,-0.11610138654544847,-0.017977641855458883,-0.002101789435772347,0.9930724318581746,-0.8343248729474309,-0.025308161125456113,-0.575995614578251,0.39613032879108634,-2.5229429485167665,10.642433812380279
126345,1729159832,588534130,-0.16022168864102335,-0.03882749578525716,-0.00630743814883377,0.9862969392044484,-0.6568231763250241,-0.1667305585557569,-0.7534084476275769,0.9499531911711361,-3.813396463690138,11.427170143385199
126346,1729159832,596540182,-0.19399412695606227,-0.028897753642899558,-0.005717133823304612,0.9805603056017492,-0.39579666604086255,-0.17325702570492357,-0.829206463031906,0.7306228460991661,-4.715997781778536,11.451972172701042
126347,1729159832,604702716,-0.18826936859814064,-0.014421884705324475,-0.0027649470442411,0.9820076421072529,-0.14254911591848446,-0.15078012218377762,-0.8325419561897625,0.4072490860774684,-5.126835161987042,12.879192949616717
126348,1729159832,612523311,-0.18847385314101453,-0.018786315465204075,-0.0036060276179266416,0.981891886919451,0.16775611701881812,-0.07216340066739921,-0.8072990881509063,0.5218374240585903,-5.047486744164882,12.663401912348155
126349,1729159832,620530043,-0.19635206003600833,-0.011008140734013475,-0.002204527317987941,0.9804691884075196,0.40800189458687774,0.0218325390032513,-0.7589495425335542,0.29538536214999794,-5.064999978627836,12.138644595895219
126350,1729159832,628551181,-0.19277760877578903,-0.013825652646176904,-0.002716506008104704,0.9811413075998299,0.653889285817139,0.15272586356149714,-0.6448018028707365,0.3393186696825769,-4.554529638055607,11.142639833709007
126351,1729159832,636552976,-0.17796994414403242,-0.02719764082307013,-0.004920829561817427,0.9836476873105802,0.8835799024174679,0.3044805488679141,-0.5158651703454374,0.5821144842802493,-3.6856100435755517,9.85167617561603
126352,1729159832,644546917,-0.16100583649601644,-0.02295516672416665,-0.0037458124578608224,0.9866793551219739,1.0746055300604191,0.4078783718341632,-0.4172186877571565,0.428756185685337,-2.9277111628640813,8.731854101365712
126353,1729159832,652546311,-0.14741469391025416,-0.0050696053903333,-0.0007555994570971362,0.98906149262318,1.2407294040830956,0.462254644507596,-0.33206370445500394,0.08942017503424907,-2.543600783411808,8.34343433337802
126354,1729159832,660537520,-0.1370698668019188,0.0025975939321309597,0.0003594457732874474,0.9905579109367629,1.3276330266528407,0.47700142553025043,-0.27203122318300976,-0.04474958321187244,-2.3169652783966943,8.211657202810015
126355,1729159832,668543114,-0.12280102098603621,-0.0028437551888645927,-0.00035188077199177183,0.9924271754043896,1.3231584220202375,0.4300840960923169,-0.2096189506091673,0.05072238386193903,-2.1572813789520793,8.58365851724265
126356,1729159832,676535282,-0.1284605166537313,0.004924133957146883,0.0006378495439384548,0.9917021940652283,1.2242677053502564,0.3853317860325376,-0.10150703686216457,-0.08496708970236784,-2.1799840214630444,8.273431176019418
126357,1729159832,684542229,-0.12776027483337696,0.024893632303692417,0.0032077232639880233,0.9914874329797077,1.126195479755223,0.38402180368439187,-0.005564514127234639,-0.43070063712220197,-2.1730154726922795,8.291759593062823
126358,1729159832,692552346,-0.12937744321665284,0.04405880841464063,0.005754309905334385,0.9905994076847195,1.0443648810792532,0.43219017134363813,0.03965598773132441,-0.828000957224493,-2.3859884340059927,8.978160931618943
126359,1729159832,700538324,-0.12148092194384981,0.05592614704147717,0.006855707444661525,0.9909932648389698,1.0033546330414498,0.4598141217547998,0.03103032368364918,-1.114025762322977,-2.3765844556672677,9.547300783824882
126360,1729159832,708534918,-0.12354157756180047,0.0678497979091272,0.008467103790650922,0.9899809047101013,1.005992648152338,0.4580838193586294,-0.08056759011046385,-1.449404038936755,-2.5866596382441105,10.201467431964852
126361,1729159832,716534431,-0.12845439224830296,0.06133935838613564,0.007960630926263887,0.9897846132266112,1.0544013639796943,0.4208619826966545,-0.2220220991427872,-1.3736218728249436,-2.818289041003107,10.67417317646407
126362,1729159832,724530445,-0.1262630895237698,0.05839878108172759,0.007446223589063581,0.9902483367046585,1.1157990381472225,0.37213609688882354,-0.30817187474656726,-1.3281525731578567,-2.8160087847092865,10.862267976923363
126363,1729159832,732532317,-0.11570073871087727,0.06857392490834492,0.008007063364282389,0.990881851090584,1.1994635494085628,0.31352795116324483,-0.395194015210184,-1.558008251658386,-2.5812059690677596,10.901144025900111
126364,1729159832,740695505,-0.11189476407675568,0.07340991764770377,0.008289034153287028,0.9909701497401272,1.263710028193614,0.2758089233591254,-0.49338182612625336,-1.69831586041886,-2.542317270405499,11.112893325940457
126365,1729159832,748548107,-0.11814635085472316,0.0737004294022531,0.008793451337844345,0.9902183404175087,1.317157067615816,0.21869661169822918,-0.6195535423868961,-1.6383694857337376,-2.5754872103878306,10.638040608601383
126366,1729159832,756534291,-0.10889134273118899,0.06575606387255217,0.007219100748559494,0.9918501399538994,1.3683813440349284,0.151225399907653,-0.6816344901764967,-1.3795014863621178,-2.2475116731565263,10.111554030688174
126367,1729159832,764536253,-0.0897276087881791,0.06316634993887403,0.005702293527655883,0.9939448939981933,1.4097581614229466,0.09839766105090836,-0.6946187253469212,-1.2701493586141457,-1.782575764880244,9.791831361283998
126368,1729159832,772533096,-0.0808890363651019,0.06587400502818143,0.005357794747375843,0.9945294733153549,1.425219070503593,0.02966598238966483,-0.649198008766422,-1.2306348800610654,-1.4947556737718963,9.127382351926649
126369,1729159832,780538986,-0.0707696612978845,0.07681154544760295,0.005465902915339336,0.9945158447360473,1.4144881830632654,-0.02051251609778395,-0.602363835990869,-1.3342977212495297,-1.216000485561966,8.499827267601303
126370,1729159832,788534513,-0.06455807639839561,0.07710634254405901,0.0050032637205338175,0.9949180036884245,1.3582439134080109,-0.04976823506732915,-0.5321200162407961,-1.332330821470421,-1.1042928511516328,8.472368819056875
126371,1729159832,796539846,-0.044870055112640105,0.04782394519590593,0.002150497076385419,0.9978451401807859,1.2167977660649645,-0.1013768713660188,-0.43037711578606785,-0.8827167106556901,-0.8246631630835577,9.150691071707563
126372,1729159832,804852993,-0.038525159767851154,0.024779977905391326,0.0009556561668941933,0.9989498743586489,1.0667994982554458,-0.16937708849242933,-0.3242082289982556,-0.47911237136411716,-0.7433160301743532,9.62256728828821
126373,1729159832,812528124,-0.028248246021419184,0.017651007911007308,0.0004988869158008277,0.9994449607798742,0.876763373126157,-0.3191538745025557,-0.10385295430754062,-0.32721117037706404,-0.5230829115616432,9.24609046086355
126374,1729159832,820816040,-0.025789442996425656,0.011566687702253536,0.00029841767076059554,0.999600433829651,0.7274094229472352,-0.4498861920089866,0.11222115261490861,-0.20159394587858218,-0.4491221407358141,8.698184241117739
126375,1729159832,828554004,-0.011161998364745471,0.00841861725454934,9.397777749697762e-05,0.9999022591454647,0.5718150933132672,-0.566211997982966,0.36276159422359505,-0.14729258578886806,-0.1952530329766447,8.744372489250722
126376,1729159832,836556690,-0.014167018039300615,-0.012971880445267717,-0.00018380678047491702,0.9998154790423357,0.39800307391656237,-0.587478814560682,0.621211134800163,0.23603877347785104,-0.2576914572371587,9.09123251942934
126377,1729159832,844546925,-0.01839111406219144,-0.03443382474903436,-0.000633759609949355,0.9992375478260718,0.2617891076688871,-0.5508588573777159,0.831194877074706,0.62213953728007,-0.33178579719385765,9.010128976989634
126378,1729159832,852543750,-0.025476665603859427,-0.022722753552141824,-0.0005792377066503287,0.9994169702703657,0.1328091310979964,-0.4258698881941246,1.0363634738713694,0.42404079756335444,-0.4748835095663146,9.308386672082452
126379,1729159832,860531256,-0.032704913761885196,-0.008295160821329617,-0.0002714470838492048,0.9994305905060424,0.04392751349598718,-0.3142671613982351,1.1739380940390767,0.16105061379191893,-0.6342441279565856,9.680553363112754
126380,1729159832,868537292,0.04835949624653974,0.010478452320467728,-0.0005073542346021691,0.9987749014424768,-0.0115299073725285,-0.2626303675333346,1.2449892344802262,-0.2438251077990674,1.1225333254721426,11.564711069381325
126381,1729159832,876536009,0.07804262000456624,-0.035772866779293234,0.002802164854470171,0.9963040697183476,-0.04352728970925182,-0.33849649664136416,1.2284490002016935,0.8635791955744657,1.8701419850293792,11.863699456570199
126382,1729159832,884539589,0.09959641139958558,-0.06152096301835516,0.006169807598091216,0.9931050596084088,-0.05889450855812753,-0.40104377656466317,1.260668175719315,1.4609841311142107,2.332832970558643,11.512776821158914
