Time,Accel_x,Accel_y,Accel_z,Orientation_x,Orientation_y,Orientation_z,Orientation_w,Gyro_x,Gyro_y,Gyro_z
1730090308.478717,-9.753376839353896,0.1998820909849294,-0.21108548091599025,0.7140603766128277,0.06873050553094255,-0.6930944369888054,0.07080958675333815,-1.3013851545218997e-15,0.019569824443482882,0.009258676066466708
1730090308.4866786,-9.749786406346713,0.19941674970814516,-0.20853298532693793,0.7139969225819345,0.06864190012953392,-0.6931794290548121,0.07070334663492776,-7.808310927131398e-16,0.018978625710944268,0.008960726131576276
1730090308.4947383,-9.755293591854901,0.20536246925848087,-0.2168177147801471,0.7141606209127511,0.07043192335723822,-0.6926327579089744,0.07262103263602056,-4.684986556278838e-16,0.01904959653288313,0.008781956170642018
1730090308.5027177,-9.748542256187159,0.22616815294180728,-0.219633770957932,0.7139991834015842,0.07725161840681995,-0.6912820435250382,0.0797902867224157,-2.810991933767303e-16,0.019092179026046444,0.008674694194081463
1730090308.5107446,-9.747364496778701,0.22787765568109997,-0.21509848034819667,0.7138584153630667,0.0779042537783205,-0.691277837995714,0.08044899473918746,-1.6865951602603818e-16,0.019117728521944433,0.00861033700814513
1730090308.5187,-9.754079866280112,0.21597466835983187,-0.22051759162688675,0.7141443476998267,0.07386346157500547,-0.6919030539128637,0.07623781003281505,-1.011957096156229e-16,0.019133058219483228,0.009423102819507395
1730090308.5267818,-9.75356010482666,0.22008562376980537,-0.22999398271050706,0.7143532917704278,0.07503166327821156,-0.6914189776623928,0.07752045775632765,-6.071742576937373e-17,0.019142256038006504,0.010336452367786785
1730090308.534803,-9.760191432769043,0.22614349950602386,-0.22730011155013236,0.7142011378692459,0.07701171310451776,-0.6911240462519589,0.07958318543073062,-3.643045546162424e-17,0.01914777472912047,0.010458772035292387
1730090308.542672,-9.768719212688769,0.22163793930322367,-0.22568378885390752,0.7142112115470741,0.07551626726751917,-0.6914589398787633,0.07800110986504002,-2.1858273276974542e-17,0.01915108594378885,0.01053216383579575
1730090308.5507114,-9.778863704126932,0.2134279393631842,-0.23117833971859453,0.7144567330942749,0.0726627138801216,-0.6918388322220518,0.0750382354367373,-1.3114963966184724e-17,0.01957876273405191,0.010150508854635733
1730090308.5586991,-9.772021710024989,0.203713536078848,-0.21077247380185982,0.7140071019251523,0.069882484902343,-0.692910407855715,0.07201016171031467,-7.868978379710834e-18,0.019835368808209745,0.009495825804477692
1730090308.5667088,-9.776775059706399,0.20698286041684005,-0.21600662637095963,0.7141133675661594,0.07083897900042935,-0.6925959329363119,0.0730397905088432,-4.7213870278265e-18,0.01998933245270445,0.009103015974382869
1730090308.5746553,-9.785851993831653,0.20702909369151026,-0.216274075920232,0.7141167096475454,0.0707898255885315,-0.6926028968184786,0.07298871771692103,-2.8328322166959e-18,0.02008171063940127,0.008867330076325973
1730090308.5829287,-9.773581062021648,0.1905368422012343,-0.21068846166542046,0.7141275101991696,0.06550827386652315,-0.6936731380879658,0.06743991938723895,-1.69969933001754e-18,0.01971144748995733,0.008300228476029806
1730090308.5906794,-9.776513570074316,0.18997887778167807,-0.20973129477268979,0.7141047212616732,0.06532005734149872,-0.6937339354719984,0.06723811385832118,-1.0198195980105239e-18,0.019914979661753,0.008385657577314135
1730090308.5986986,-9.781385537064121,0.1944325024502568,-0.20580511231283263,0.7139565251910934,0.0668318864873765,-0.6935898767616931,0.06879434525669569,-6.118917588063144e-19,0.0200370989648304,0.008862605099546766
1730090308.6067033,-9.78071741476777,0.1935133747611697,-0.20201288184082455,0.7138624511983254,0.06659071732032101,-0.6937367927018857,0.0685225480231473,-0.0017027602458481268,0.01968468048521481,0.009148773612886345
1730090308.6147892,-9.76978205408527,0.19583494013990493,-0.19901928305957287,0.7137665582678906,0.06747811533440129,-0.6936590691451224,0.06943414176073136,-0.0010216561475088761,0.019047539335983424,0.009320474720890091
1730090308.622821,-9.760108375517568,0.20273454318550546,-0.19985674561699374,0.7137300036350659,0.06981749212925875,-0.6932155113582062,0.07188361785727249,-0.0006129936885053256,0.01909094470790662,0.00942349538569234
1730090308.6307752,-9.764599235515618,0.2032830025226314,-0.20227458447957122,0.7137870572584399,0.0699303152891317,-0.6931318336702776,0.07201422808569043,-0.00036779621310319534,0.019542677992522572,0.009059617723111656
1730090308.6387339,-9.764660129688277,0.1906833891600632,-0.1977397836467271,0.7137775229425777,0.06581451756438456,-0.6939797410932971,0.0676920672738366,-0.00022067772786191718,0.019388027901830113,0.008415601064101216
1730090308.6466894,-9.766612027519997,0.1824053606444754,-0.19334296198491124,0.7137216618688552,0.06309975275002933,-0.6945613932790603,0.06484043143205688,-0.0001324066367171503,0.019720927908876668,0.009306261253081045
1730090308.6546798,-9.775205191365513,0.19395853499020088,-0.1895077681577436,0.7135298954236547,0.0669645929143875,-0.6940106525142685,0.06884799074219998,-7.944398203029018e-05,0.02034635797456663,0.009840657366468945
1730090308.6626635,-9.771023703198214,0.19945391860154238,-0.1953469375059743,0.7136377120463554,0.06873002886499498,-0.6935386202146564,0.07072185905510793,-4.766638921817411e-05,0.020721616013980614,0.00973560497303965
1730090308.6706645,-9.768514810297836,0.20083578744022232,-0.20244174160514705,0.713813134773693,0.06909151435627178,-0.6932795793616227,0.07113786691124639,-2.8599833530904463e-05,0.020521080776166968,0.009246883475520043
1730090308.678668,-9.767009474557607,0.212678236380149,-0.209092825724807,0.7138712575336551,0.07289876198303984,-0.6924050500531085,0.07515879741993171,-1.7159900118542676e-05,0.02040075963347878,0.008953650577008278
1730090308.6866977,-9.770176415935737,0.21427704192574565,-0.19273276208527484,0.7134310971023237,0.07368086846703596,-0.6926965124643711,0.07588636853227006,-1.0295940071125606e-05,0.02032856694786587,0.009203400899363251
1730090308.694809,-9.760584412793863,0.2118844429288849,-0.19393005153827425,0.71348808640375,0.07293794419763981,-0.6928004058183568,0.07511594074533762,-6.177564042675364e-06,0.02028525133649812,0.009778941154238267
1730090308.7028468,-9.75482921090874,0.20877294236865906,-0.20302813102062084,0.7137562767034143,0.07179805673755482,-0.6927661530444306,0.07397346626467032,-3.706538425605218e-06,0.01940788184675341,0.010124265307163278
1730090308.7108102,-9.74946072844954,0.2124127058508829,-0.20657161738190372,0.713813356147554,0.0729745911036803,-0.6924494514993733,0.07522605105169994,-2.223923055363131e-06,0.01845577009144455,0.00990576973745625
1730090308.7187927,-9.749112680966206,0.21076584128396725,-0.21731683517523598,0.7141184605219484,0.07224467102544738,-0.692287420085321,0.07452288133048658,-1.3343538332178785e-06,0.017884503038259236,0.009348982334170003
1730090308.7267692,-9.746988491148084,0.2150449661961616,-0.22232744485514158,0.7142068256296806,0.07357338636633957,-0.6919016493790485,0.07594520807211212,-8.00612299930727e-07,0.01796743286781008,0.01029198007658435
1730090308.7346778,-9.743319775597053,0.2109086764950407,-0.2200665670107412,0.7141937913924642,0.07228084593404299,-0.6922000490955714,0.07457747434450306,-4.803673799584362e-07,0.018017190765540585,0.010857778722032956
1730090308.7426908,-9.757399117555499,0.22805935628764942,-0.21655525880996035,0.7138914628684015,0.07786350015669118,-0.6912524208266533,0.08041358895270141,-2.8822042797506175e-07,0.018047045504178887,0.010771567847840089
1730090308.7506788,-9.762494840406346,0.222787453372199,-0.20606876807894495,0.7136809113571746,0.07630011426613756,-0.6918401315594979,0.0787088412511823,-1.7293225678503705e-07,0.01806495834736187,0.010294151261862339
1730090308.7586641,-9.766749374946933,0.20597736216003815,-0.20504411729267946,0.7138334165115076,0.0707612789260126,-0.6929073044319896,0.0728983013592075,-1.0375935407102223e-07,0.01892708617619572,0.010007701310275688
1730090308.766673,-9.771456877165424,0.20163739141711662,-0.20395048648888892,0.7138446933813353,0.0693133556718192,-0.6932002965675782,0.07137759659333562,-6.225561244261333e-08,0.019444362873496032,0.009410141277861665
1730090308.7746565,-9.773084277666442,0.20262471146159808,-0.20856155165895832,0.7139579419044042,0.06955309293739088,-0.6930311873746051,0.07165331660582779,-3.7353367465568e-08,0.01932903883041419,0.009051605258413252
1730090308.7826676,-9.760653188670178,0.20872376730664635,-0.2144406529192031,0.7140585888913638,0.07154631747774359,-0.6925019371795152,0.07377345788606458,-2.2412020479340798e-08,0.01925984440456508,0.009262173708206235
1730090308.7907934,-9.75415221593648,0.20927073865547216,-0.2019269625523031,0.7137226042878042,0.07198557973546053,-0.6927610433652646,0.07416371912366743,-1.3447212287604478e-08,0.019218327749055616,0.008962824716619994
1730090308.7988713,-9.753603514620483,0.21127486262687706,-0.18795440384974124,0.7133451695926528,0.07288109607798197,-0.692963424870455,0.07502470689786483,-8.068327372562687e-09,0.01919341775574994,0.008783215321668248
1730090308.8068006,-9.742021546028148,0.2091254546855012,-0.21356853220242286,0.7140375364834454,0.07181846220136211,-0.6924653368607111,0.0740558048100611,-4.840996423537612e-09,0.019604161821228563,0.009526829807621266
1730090308.8147914,-9.735311785038764,0.21358189390505072,-0.21026223626481308,0.7139029420032306,0.07339163939457331,-0.6922628896060186,0.07568585297421462,-2.904597854122567e-09,0.01985060826051574,0.009547308437731043
1730090308.8227785,-9.731764768777163,0.20955199278834294,-0.20564483687607538,0.7138249015826932,0.0721663502492995,-0.6926140186082214,0.07437640082394502,-1.7427587124735402e-09,0.019998476124088043,0.00955959561579691
1730090308.8307815,-9.749508432799502,0.2018668084659745,-0.19712831325845773,0.7136700114170506,0.06964305064808336,-0.6933151056604893,0.07168768766950047,-1.045655227484124e-09,0.019661506780769396,0.009566967922636432
1730090308.838662,-9.741719278429702,0.21042380700341282,-0.20039810489843402,0.7136749669637797,0.07247644363833528,-0.6927044940295494,0.07467054705875013,-6.273931364904745e-10,0.019033635113316176,0.009145701245278111
1730090308.8466494,-9.756917659587117,0.2186704682840789,-0.2004446185542948,0.713584432233418,0.07508858224951234,-0.692219072350742,0.07740619331647218,-3.7643588189428465e-10,0.019082602174306275,0.009744321361787184
1730090308.8546407,-9.761248284961255,0.21188687691771296,-0.21028875355445187,0.7139133812144864,0.07265655367634737,-0.692413762161974,0.07491255768879285,-2.2586152913657078e-10,0.019111982410900334,0.010529183493154657
1730090308.8627074,-9.76097361819355,0.2171541085725028,-0.21547697405649927,0.7139929942850015,0.07429540486391924,-0.691966316778647,0.07666037680469234,-1.3551691748194247e-10,0.018703920491394736,0.010148720649051078
1730090308.8706887,-9.749316650164177,0.20834343926459542,-0.22194178868194644,0.714271320046163,0.07136252542134332,-0.6923172369235363,0.07362550362177452,-8.131015048916548e-11,0.01845908333969138,0.009920442942588932
1730090308.8786664,-9.732266822373896,0.206887760336101,-0.218638072476746,0.7142031077206753,0.07105485859279642,-0.6924552120795097,0.07328647389804231,-4.8786090293499286e-11,0.018737871110131397,0.009783476318711643
1730090308.886718,-9.734247354166525,0.20577493281298873,-0.21617700242159443,0.7141468836391833,0.0707177913622657,-0.6925864599301759,0.07291925736506534,-2.927165417609957e-11,0.01933083383385744,0.010552676467309334
1730090308.894803,-9.72250698427726,0.20175535397490263,-0.22547426785920666,0.7144519317797904,0.0692996711220034,-0.6925642208198239,0.07148980905512335,-1.7562992505659742e-11,0.020112301529555097,0.011014196556467949
1730090308.9028654,-9.730067392470652,0.21083577464080094,-0.2197998793190396,0.7141922845549277,0.07235074935656152,-0.6921863843159667,0.07465091504694556,-1.0537795503395845e-11,0.020155492085511657,0.010439728487039054
1730090308.9107904,-9.737476679378876,0.21269272455010554,-0.21615582602892375,0.7140698562600118,0.07297838983354246,-0.6921779650577476,0.07528651729642556,-6.3226773020375065e-12,0.020181406419085595,0.009669357583919685
1730090308.9187937,-9.737612688535528,0.21045501217146956,-0.2070262092404011,0.7138500460132444,0.07240134805096157,-0.6925363386408161,0.07462959379003156,-3.793606381222504e-12,0.019771264957767924,0.008781444980586032
1730090308.9267929,-9.745595159508035,0.21174600657045986,-0.20633684248760004,0.7138155253161315,0.07278517705947889,-0.6924887717427618,0.07502676074759419,-2.2761638287335024e-12,0.019099490019515292,0.008674387480047872
1730090308.93468,-9.747990440431384,0.21491480487001027,-0.20640206276795062,0.7137823880966232,0.07381167314013633,-0.6922968726871725,0.07610242715509248,-1.3656982972401013e-12,0.019122115118025744,0.008610152979724976
1730090308.9427013,-9.756849634131877,0.2213650670040374,-0.20620177477014537,0.7137023408234411,0.07587184747835436,-0.6919159444375346,0.0782608286211985,-8.194189783440608e-13,0.019561380238594047,0.008571612279531238
1730090308.9506805,-9.76072862935608,0.21015175382546933,-0.20919406412966535,0.7139029301266596,0.0721078302473756,-0.6925444891063927,0.07433167415006155,-4.916513870064364e-13,0.019824939310935027,0.008122797797952963
1730090308.9586682,-9.760422404664428,0.2034237659183285,-0.19997611010865857,0.7137265518807889,0.07004188906430285,-0.6931719965034948,0.07211883374003203,-2.9499083220386184e-13,0.019557384692877586,0.007853509109005999
1730090308.9667497,-9.758323308521314,0.2104003008107627,-0.2018673628425389,0.7137082226299566,0.072331338443638,-0.6927010837509279,0.07452488845768401,-1.769944993223171e-13,0.01897116186058109,0.008543316018561883
1730090308.974662,-9.747247624028804,0.20716419659973886,-0.19390414817427334,0.7135374111660359,0.07146741349136594,-0.6930678339005394,0.07357818486304185,-1.0619669959339025e-13,0.01861942816120319,0.008531510102833383
1730090308.9827204,-9.745630036819625,0.21240513905359332,-0.19152042103347025,0.7134260620449944,0.07325208211064314,-0.6927966528852502,0.07543330970083176,-6.371801975603415e-14,0.018834078003038483,0.008950116614858315
1730090308.990796,-9.748729627316385,0.2110007213716091,-0.20182177288375402,0.7137039274108244,0.07259533531927435,-0.6926480030758415,0.07480217325249221,-3.823081185362049e-14,0.01938855796960169,0.008775590460611242
1730090308.9987874,-9.74627981862616,0.20201778511788734,-0.20441128150368992,0.7138624532784001,0.06959569783978325,-0.6931227011903168,0.0716781538279012,-2.2938487112172293e-14,0.019721245949539615,0.008245184706600966
1730090309.0067887,-9.746007034242101,0.1937549813734668,-0.2095562891658858,0.7140791043819454,0.06676788641406348,-0.6934740654887992,0.06875174560194129,-1.3763092267303375e-14,0.01949516867604034,0.007501251192732769
1730090309.014786,-9.757335531580416,0.1950222234432207,-0.21455865509132835,0.7142005421407704,0.06703570598021989,-0.6932927860040444,0.06905731390890751,-8.257855360382025e-15,0.019359522311940772,0.007054891084411851
1730090309.0227904,-9.75240104184864,0.19697966951515114,-0.21420819232237515,0.7141743077001937,0.06772208057883616,-0.6931814352091273,0.06977303135479329,-4.954713216229215e-15,0.019278134493481033,0.007638455142343363
1730090309.0308127,-9.748722087511528,0.19767529682627819,-0.20873067100865944,0.7140191990631253,0.06806744355556743,-0.6932739708479821,0.07010426407668759,-2.972827929737529e-15,0.018803611740943155,0.007988593577102271
1730090309.0387216,-9.747711815739338,0.19809267321295443,-0.21861226735128939,0.714287262431231,0.06804609020752,-0.692996599971146,0.07013664352105302,-1.783696757842517e-15,0.018944588150882465,0.008198676637957616
1730090309.0466876,-9.734655804043213,0.21055352751175702,-0.22932962847717986,0.7144567001059781,0.07205065177380499,-0.691972681663666,0.07439176758110536,-1.0702180547055102e-15,0.019029173996846047,0.00789903641300879
1730090309.0546749,-9.728498138187646,0.21467815776681984,-0.23001396116833916,0.714429447899592,0.07343347090672109,-0.6916974432768507,0.07584679484819384,-6.421308328233061e-16,0.019079925504424194,0.008144942339501526
1730090309.0626936,-9.746111933449697,0.20518192761907628,-0.21701703148615972,0.7141715165950081,0.07042905102372675,-0.6926218903684116,0.07262031836043759,-3.8527849969398364e-16,0.019536066470433117,0.008718175956859201
1730090309.07069,-9.740878479649895,0.19565346687418014,-0.22454176430185208,0.7144807324475351,0.06717851048539089,-0.6929695864882304,0.06926386426217525,-2.3116709981639016e-16,0.01980975105003847,0.009062116127273805
1730090309.0786786,-9.738217247702046,0.2026256592260706,-0.224268200670955,0.7144021853933664,0.06950760189188558,-0.6925731375636404,0.07169839544701118,-1.387002598898341e-16,0.01954827173633965,0.009268480229522567
1730090309.086835,-9.748830937000134,0.20178115115087672,-0.21428783568577614,0.7141307671304266,0.06933442788153084,-0.6928950439904171,0.07145937700237275,-8.322015593390045e-17,0.01939138414812036,0.009392298690871825
1730090309.0948486,-9.738679159123908,0.2086964714522448,-0.20686309569857506,0.71386375693745,0.07181600657137656,-0.6926490355773954,0.07401561487276337,-4.9932093560340265e-17,0.019297251595188785,0.00946658976768138
1730090309.1028342,-9.743840840200907,0.20326885699244063,-0.2110273776828169,0.7140290145803615,0.06991507691752878,-0.6928804949227895,0.07204906739551993,-2.995925613620416e-17,0.01966646212489187,0.009511164413767113
1730090309.1108007,-9.750529151337341,0.20240648997671437,-0.21615956869953384,0.714175017707281,0.0694980701688984,-0.6928143005527582,0.07164082129063276,-1.7975553681722496e-17,0.020313678504175755,0.00911221913995652
1730090309.1187897,-9.740655768390294,0.19566414545087238,-0.22091482447167343,0.7143785980995644,0.06724599966539609,-0.693063302202467,0.06931416339042519,-1.0785332209033497e-17,0.020702008331746086,0.008021471852746102
1730090309.1267912,-9.750054629247067,0.19305525973146093,-0.2213737762748009,0.7144127057901779,0.06631388475310308,-0.6932145136244978,0.06834173391756894,-6.471199325420098e-18,0.020509316166826254,0.008644093664805945
1730090309.1346805,-9.742046996298239,0.1912505081337984,-0.2185366851984743,0.7143535191551951,0.06581126676402538,-0.6933763590744887,0.067802297262766,-3.882719595252059e-18,0.01996801080641232,0.009443356813503882
1730090309.142655,-9.754241248316053,0.1939983798314509,-0.21922863221283456,0.7143415554791389,0.0666371124308016,-0.693224697206883,0.06866699749482677,-2.3296317571512354e-18,0.02006891765162599,0.009071534579798582
1730090309.1506443,-9.755332875210334,0.19421058185394866,-0.22562930457184138,0.7145193055853398,0.06659157238146284,-0.6930470775320775,0.06865473587346084,-1.3977790542907412e-18,0.02055515182021623,0.00842275117811337
1730090309.158664,-9.750241767362528,0.18332457543072858,-0.21989290134662046,0.7144595695175857,0.0630990649397548,-0.6937894229239774,0.06497898250426234,-8.386674325744447e-19,0.02084689232137037,0.00931055132148834
1730090309.1666791,-9.756045648796423,0.18684861854945276,-0.22267598372789413,0.7145049051177557,0.06419319363446632,-0.6935331459333007,0.06613433257797195,-5.032004595446668e-19,0.02059624656060082,0.008991851284589257
1730090309.1746824,-9.751387692012228,0.2006946325554529,-0.22434583315665835,0.7144190843002496,0.0687836503445953,-0.6927061011346343,0.07093968482957451,-3.0192027572680007e-19,0.020445859104139093,0.007949251139525743
1730090309.182676,-9.755536102756166,0.19056688817584985,-0.2320515074623544,0.714738867993742,0.06527215836841364,-0.693077898416106,0.06731212853614796,-1.8115216543608004e-19,0.019929936568800023,0.008175071175411698
1730090309.190784,-9.74581472073573,0.18951806503441615,-0.22733752557116263,0.7146182079792062,0.06506410585229887,-0.6932453304342676,0.06707004387438549,-1.0869129926164803e-19,0.020046073109058614,0.00831056319694327
1730090309.1986718,-9.756741303144564,0.2075635440987747,-0.22043899361418193,0.7142356856431773,0.07108372179131955,-0.6924146868801005,0.07332387907664858,-6.521477955698881e-20,0.0205414450946758,0.007966168348400183
1730090309.2066815,-9.75300218545119,0.21599662987723356,-0.21175089128569663,0.7139097472856268,0.07403796817259095,-0.6921119204706383,0.07636976850751703,-3.912886773419329e-20,0.02041297822458408,0.008185221500736362
1730090309.2147756,-9.747406832510949,0.22081706117829328,-0.21611483652923047,0.7139715503966043,0.07557774669813598,-0.6916985275736931,0.07801138622461659,-2.3477320640515973e-20,0.020761588163991082,0.008316653392138069
1730090309.2227156,-9.741655419086648,0.21987859730267906,-0.2149024810191008,0.7139523050282214,0.07533303832194196,-0.6917747224139896,0.07774813766979889,-1.4086392384309582e-20,0.02011937400471122,0.007969822465517062
1730090309.2307165,-9.749696739000816,0.20495030901637307,-0.21178086605286672,0.7140301692415549,0.07042000510602808,-0.6927726646184446,0.07258082013317023,-8.451835430585749e-21,0.01930835544768127,0.007761723909544459
1730090309.238735,-9.75547921161338,0.20700666368130818,-0.21134441806922002,0.7139951201249517,0.07106854485405886,-0.6926714480743382,0.07325636759136853,-5.071101258351449e-21,0.0188217443134633,0.007636864775960896
1730090309.2467318,-9.757033333852794,0.1960300480134724,-0.21251907027512576,0.7141349361295838,0.06740592092953221,-0.6932869589364987,0.06943289848060785,-3.042660755010869e-21,0.018955467694394545,0.00756194929581076
1730090309.2548175,-9.741445815741363,0.20380928857370842,-0.20795661794632544,0.71394166681115,0.07016189035888777,-0.6929204160609235,0.0722904041912965,-1.8255964530065216e-21,0.019887081845877362,0.007517000007720678
1730090309.2626634,-9.750289237491693,0.19722408510711567,-0.20234610455685775,0.7138503488511982,0.06801139974566,-0.6934627610255012,0.07001091358172054,-1.095357871803913e-21,0.020020360275305016,0.007490030434866627
1730090309.2708158,-9.739314719252826,0.19734310584942566,-0.19083951087864587,0.7135491117729943,0.06830232396131086,-0.693719491706362,0.07025471127349284,-6.572147230823478e-22,0.02010032733296161,0.007473848691154198
1730090309.2786622,-9.747334638436461,0.20579422410535853,-0.19183642015023442,0.713497198626287,0.07104573411371,-0.6932004388475869,0.073125937930379,-3.9432883384940866e-22,0.019722617506093533,0.00746413964492674
1730090309.2868717,-9.739457321147814,0.2010486682522776,-0.20249021268584375,0.7138228766255407,0.06935012798915938,-0.6932155714770891,0.07141170783294684,-2.3659730030964517e-22,0.019495991609972688,0.007884004278652296
1730090309.2947273,-9.751011502063688,0.20945408254316342,-0.193799017748225,0.7135114896366543,0.07220200473111664,-0.6929364450715028,0.07434586579601232,-1.419583801857871e-22,0.01936001607230018,0.007710232997425598
1730090309.3026748,-9.751719086296806,0.20851182696730428,-0.19217560327588812,0.7134789061180157,0.07191161094686775,-0.6930336743540585,0.07403308008572103,-8.517502811147226e-23,0.01927843074969668,0.0076059702286895795
1730090309.3107996,-9.738496687373786,0.21345313744014818,-0.1938351764186579,0.713476198831402,0.07360960660078604,-0.6926647666119161,0.07582124116387852,-5.110501686688335e-23,0.019655169617596606,0.00796910262891
1730090309.318743,-9.748280340305131,0.21115068007151078,-0.20392888661291347,0.7137576127990153,0.07261199629421211,-0.692587769416787,0.07483147613070104,-0.0017027602458481264,0.019455522876874534,0.008612672130504283
1730090309.326718,-9.73763054060886,0.21240282747650024,-0.2056755497411856,0.7137937131883866,0.07306758937842704,-0.6924497001900803,0.07531981878515498,-0.002724416393357002,0.01933573483244129,0.008998813831460853
1730090309.3346848,-9.734831963281332,0.2189001999038689,-0.20385050562596135,0.7136758247982085,0.07525947444359303,-0.6920837445111574,0.07760746863856599,-0.0033374100818623275,0.019689552067243373,0.008804808790572764
1730090309.342682,-9.745842085683643,0.2211226821981807,-0.2008401178287018,0.7135703813513765,0.07596527506661453,-0.6920340324343659,0.07832934185052154,-0.0020024460491173965,0.019901842408124624,0.009539785888963974
1730090309.3506708,-9.744547293646512,0.21263994476812717,-0.21028663295308042,0.7139108180615912,0.07301785386768651,-0.6923371142935443,0.07529314074253127,-0.001201467629470438,0.020029216612653375,0.00955508208653667
1730090309.3586688,-9.754544325894937,0.2061137813140013,-0.21020845804333263,0.7139741281826268,0.07079949307663258,-0.6927510182603331,0.07296850529660938,-0.0007208805776822627,0.020105641135370625,0.009138569743618255
1730090309.3666766,-9.755035881425634,0.2098595285540258,-0.21087981359553085,0.7139529120126556,0.0720204494812563,-0.6925107730043119,0.07425041116477064,-0.00043252834660935765,0.020151495849000976,0.008888662337867205
1730090309.374659,-9.752457772751864,0.21713480038436858,-0.20673364377255285,0.7137652375678764,0.07450501608643897,-0.6921598365684056,0.07683065051937599,-0.00025951700796561457,0.019753318615717157,0.008738717894416576
1730090309.3826616,-9.758811773026117,0.2162327198302305,-0.20879492503306293,0.7138272605613806,0.0741282117623197,-0.6921788522962973,0.07644662670213977,-0.00015571020477936874,0.019514412275746865,0.008648751228346198
1730090309.3906643,-9.747061862399654,0.21257900933954454,-0.20452502997100963,0.7137586148000171,0.07308119924253403,-0.6924837219139336,0.07532644290194337,-9.342612286762124e-05,0.020222448594688754,0.00859477122870397
1730090309.3987484,-9.743363798347996,0.21780880819161738,-0.20004773160565265,0.7135874939394323,0.07490703639000189,-0.6922569208530738,0.07721515345791138,-5.605567372057274e-05,0.01979589026312982,0.008988073290380667
1730090309.4066892,-9.728216270952156,0.21496118335247044,-0.1990372937485478,0.7135965463233345,0.07409131012419604,-0.6924306412132705,0.07635609961534459,-3.3633404232343644e-05,0.019539955264194463,0.009224054527386685
1730090309.4146814,-9.740675569456059,0.2209140537614823,-0.2058530561807693,0.7137031280137717,0.0758443809764786,-0.6919214077159128,0.07823196585847748,-2.0180042539406185e-05,0.019812084326295276,0.009365643269590294
1730090309.4227085,-9.75365781237676,0.2153878096982956,-0.20706947164791467,0.7137929267388676,0.07391653918862122,-0.692262381681759,0.07621547008473593,-1.210802552364371e-05,0.019549671702093735,0.009450596514912462
1730090309.4307046,-9.756179914476839,0.21159322292835234,-0.20636279993210818,0.7138143548068813,0.07266248906606464,-0.6925168947417015,0.07489712979594644,-7.264815314186226e-06,0.01939222412757281,0.009501568462105762
1730090309.4387336,-9.756974915238837,0.19902140372771454,-0.1992350322541868,0.7137488074169446,0.06861565897587894,-0.6934455209786994,0.07062464646832108,-4.358889188511735e-06,0.019723445644322286,0.010383531753345804
1730090309.446719,-9.758170176194085,0.20680120283233183,-0.19759199347360584,0.7136327547022911,0.07121404008932869,-0.6930218401694908,0.07333199136985052,-2.615333513107041e-06,0.01992217855437197,0.01091270972808983
1730090309.4546778,-9.768464139407856,0.21099024196307098,-0.1990003718654135,0.7136246488483331,0.07250533345635327,-0.692751210721044,0.07469000750437754,-1.5692001078642246e-06,0.01961572823893975,0.00995314632855015
1730090309.4626985,-9.7559657443869,0.2194891695919051,-0.21061930637120121,0.713839259770009,0.07518373414355786,-0.6919282172609933,0.07756455046772383,-9.415200647185347e-07,0.01985754811114245,0.00895171822736431
1730090309.4706502,-9.744875404884095,0.21189925737037743,-0.21064748226022073,0.7139283519879331,0.07276524181114895,-0.6923741429491566,0.07503048705279541,-5.649120388311208e-07,0.02000264003446407,0.008350861366652808
1730090309.4786599,-9.745403806162878,0.21740095701011708,-0.20611540463933556,0.7137482934993019,0.07465245728724605,-0.6921445430334898,0.07698256748622992,-3.389472232986725e-07,0.02008969518845704,0.008416037311687937
1730090309.4866846,-9.744284325934055,0.2096886491572421,-0.20100195640664822,0.7136973773315483,0.07220586925756248,-0.6927398109065777,0.07439032477377966,-2.0336833397920348e-07,0.020567618342314856,0.00930652300163308
1730090309.4947095,-9.757259587259652,0.20506126444551714,-0.19649736647094204,0.7136212216918946,0.0706617474031858,-0.6931517371724387,0.07274846156260999,-1.2202100038752208e-07,0.02042868217316751,0.009840814415600165
1730090309.5027614,-9.757862139074541,0.21210106042512278,-0.1849360663669402,0.7132609581977963,0.07317310481530255,-0.6929879813755386,0.07531374317816236,-7.321260023251324e-08,0.020345320471679106,0.009310009141056352
1730090309.5106907,-9.759899611325585,0.19908668605976118,-0.19667405925375786,0.7136796070664273,0.06865908046936033,-0.6935092498320804,0.07065599425354431,-4.392756013950795e-08,0.020295303450786062,0.009417216037792095
1730090309.5187187,-9.758009632518007,0.20612211173351294,-0.19868903149952036,0.7136679045770856,0.07097241321113301,-0.6930364978579672,0.0730852322723541,-2.635653608370477e-08,0.020265293238250236,0.00905585011437151
1730090309.526719,-9.759030426727602,0.20316076215729528,-0.2006162753450247,0.7137463687796232,0.06995346075890695,-0.6931697563987582,0.07203001593669522,-1.581392165022286e-08,0.019821597049266712,0.008413340498857128
1730090309.5346832,-9.75078435711078,0.20497525490179905,-0.19961784015818668,0.7137056246397592,0.07062540468069216,-0.6930706670548914,0.07272815162883961,-9.488352990133716e-09,0.019555379335876595,0.008879214852472561
1730090309.5427165,-9.751582799325062,0.2060639505485013,-0.20931384618475574,0.7139517008541553,0.07081793908750354,-0.6927707039098184,0.07298314980289763,-5.6930117940802295e-09,0.018969958646380493,0.00915873946464182
1730090309.5507274,-9.751104183989566,0.20097108395214763,-0.20986420614835344,0.7140174932195931,0.06912650771476618,-0.6930574807706954,0.07121708822569164,-3.4158070764481376e-09,0.018618706232682834,0.009326454231943376
1730090309.558701,-9.759436140764835,0.19887304465839795,-0.1972657331616683,0.7136972393248996,0.06858173565272113,-0.6935066578845033,0.070578407354827,-2.0494842458688825e-09,0.01883364484592627,0.009001393030862278
1730090309.5667,-9.75318256702726,0.19833248158019504,-0.19784693501418846,0.713719591071896,0.0684331540135761,-0.6935137259966228,0.07042698776890172,-1.2296905475213294e-09,0.019388298075334362,0.00880635631021362
1730090309.5746562,-9.765710994073778,0.20830321087194512,-0.19987159728780993,0.7136749209761785,0.07162262033549052,-0.6928896919210726,0.07377114785229133,-7.378143285127976e-10,0.01972109001297922,0.008689334277824425
1730090309.5827758,-9.770355008309501,0.20399058130832332,-0.2159304449449516,0.7141447844792864,0.06989645021931407,-0.69276255726058,0.07205381534349213,-4.4268859710767853e-10,0.019495075114104102,0.008619121058390907
1730090309.5906916,-9.763325190044293,0.2023606842342127,-0.21814372839275217,0.7142248615488953,0.06936579878061988,-0.692789479932239,0.07151202416520887,-2.656131582646071e-10,0.01935946617477903,0.009002683188192829
1730090309.5987046,-9.760064979749233,0.2042557879819339,-0.19552968185987005,0.7136027283633035,0.07039179730635708,-0.6932283861200081,0.07246064878179581,-1.5936789495876427e-10,0.019278100811183987,0.009658510527536013
1730090309.606664,-9.755235811580008,0.20539285023056655,-0.19081980008271887,0.7134724531376729,0.0708759117274803,-0.6932626622078467,0.07294206563430032,-9.562073697525856e-11,0.01922928159302696,0.009626316869679893
1730090309.6147113,-9.747789327524176,0.19769538176919932,-0.1978100978230688,0.7137261870818814,0.06825647868761263,-0.6935430235241359,0.0702428466943552,-5.737244218515513e-11,0.019199990062132744,0.009181310613504188
1730090309.6227047,-9.741406075762553,0.20744211065331647,-0.20463789829345067,0.7138166872614041,0.07142091445852307,-0.6927838136080227,0.07358924899594779,-3.4423465311093076e-11,0.020033795266520278,0.008488616798336734
1730090309.6306772,-9.722253234080577,0.21257188748573988,-0.20969225923974227,0.7139032293748265,0.07315798978175642,-0.6923142309394708,0.07543933495183744,-2.0654079186655845e-11,0.020108388327690768,0.008498690570698294
1730090309.6387012,-9.73661890700108,0.20846714860472518,-0.214161396803611,0.7140625667142793,0.07162688517783242,-0.692480362107465,0.0738592460877536,-1.2392447511993506e-11,0.01972745410293103,0.008504734834115228
1730090309.6466734,-9.735900924278774,0.21246864975853821,-0.21588519867786968,0.7140656193715677,0.0729202049226372,-0.6921952466934106,0.07522416766298239,-7.435468507196103e-12,0.019498893568075187,0.00850836139216539
1730090309.6546617,-9.739300857301638,0.20433506314613858,-0.21715889996844054,0.7141869349595796,0.0701913896682246,-0.6926559762883794,0.07237326344359998,-4.461281104317662e-12,0.01936175724716168,0.008510537326995487
1730090309.6626647,-9.73679183396106,0.20424331449901126,-0.22103558290098616,0.7142956951606172,0.07010894965013503,-0.6925588381427698,0.07230940992915366,-2.676768662590597e-12,0.01970516551607561,0.008086152826431513
1730090309.6706986,-9.742708445103199,0.20873724846503178,-0.21474246668395108,0.7140731617297131,0.07166507383945381,-0.6924609460482467,0.07390179352954675,-1.6060611975543581e-12,0.019911210477423967,0.00783152212609313
1730090309.678713,-9.750328554610748,0.2078423063544097,-0.1999532693170113,0.713686577787864,0.07157210807031311,-0.6928882983122224,0.07372047269118079,-9.63636718532615e-13,0.02003483745423298,0.007678743705890098
1730090309.6868172,-9.752266998489105,0.20658708058998956,-0.20520554069176924,0.7138366257676086,0.07105611018520848,-0.6928410274476876,0.0732093682754813,-5.781820311195689e-13,0.02010901364031839,0.008012766715230312
1730090309.694908,-9.75390890514815,0.21038292828563435,-0.20141371870217092,0.7136979792002718,0.07236313821036615,-0.6927049507397327,0.0745561663074252,-3.4690921867174135e-13,0.019727829290507603,0.008638870582296471
1730090309.7026706,-9.761358393625999,0.21313927723505247,-0.20584239015684944,0.7137826139397828,0.07314542161001826,-0.6924442556490741,0.07539947051129256,-2.081455312030448e-13,0.01992480874208316,0.008588842841074135
1730090309.7106757,-9.759363742230285,0.20976526311837523,-0.1994016267210628,0.7136501814364646,0.07215601305111626,-0.692800363762115,0.07432754729808778,-1.2488731872182686e-13,0.019617306351566464,0.008984516257802767
1730090309.718709,-9.760561153053015,0.21612056045891578,-0.19529774849357517,0.7134796475940552,0.07431215336370418,-0.6925045904374078,0.07656297117164493,-7.493239123309611e-14,0.01985849497871848,0.008796230246377913
1730090309.726709,-9.759603658384544,0.22400388168550572,-0.19786324504341074,0.7134588479043752,0.07686443313849435,-0.691944418413112,0.07925435692881351,-4.4959434739857667e-14,0.020003208155009687,0.008257568578060969
1730090309.734697,-9.768605968224085,0.21125620230231906,-0.20059964380339018,0.7136632856403266,0.07256529595521302,-0.6926974022561438,0.07476163093175611,-2.69756608439146e-14,0.01966434599932238,0.008360061638532833
1730090309.7427127,-9.767303589479374,0.21150846015092267,-0.1967348192410185,0.713561495501658,0.07272177360318703,-0.6927704436495937,0.07490426013912056,-1.618539650634876e-14,0.019886718767372028,0.008847247536277983
1730090309.7506762,-9.761733758912232,0.2047166300456317,-0.19321882367351736,0.7135381962996505,0.07057039557297609,-0.6932584298696112,0.0726347788930096,-9.711237903809255e-15,0.02002014242820182,0.009139559074925075
1730090309.7587714,-9.755997658911792,0.21045775878909775,-0.18392662135254792,0.7132519251172825,0.07265790292093793,-0.6931104317903576,0.07476931056928376,-5.8267427422855525e-15,0.01967450656323766,0.00931494599811333
1730090309.76677,-9.762372225718169,0.20983229321291175,-0.17906956045801312,0.7131365558143474,0.07248201054322966,-0.6932701911969416,0.07455905650299949,-3.4960456453713315e-15,0.019467125044259164,0.009420178152026282
1730090309.7746878,-9.76260566331176,0.20706281220704392,-0.18932343305215163,0.7134167774151966,0.07140376578492612,-0.6932084183328767,0.0734853229337586,-2.097627387222799e-15,0.018917006071410034,0.009483317444374053
1730090309.782656,-9.761069784705805,0.2020492412793045,-0.197869958268791,0.7136838419694373,0.06961602228563328,-0.6933062210422457,0.07166217284586188,-1.2585764323336792e-15,0.019012624749162592,0.009946891081244748
1730090309.790785,-9.762303039036373,0.19928051888867643,-0.20084309190463398,0.713787200756717,0.068641629354256,-0.6933998463614021,0.07065983173959037,-7.551458594002075e-16,0.019495686017276154,0.009799345201905132
1730090309.798676,-9.770225596615184,0.20097116777851834,-0.199275089761921,0.7137274978345808,0.06917634793666097,-0.6933519573236926,0.07120923392607878,-4.530875156401244e-16,0.019785522778144292,0.008859437551377301
1730090309.8066847,-9.758698559873407,0.2000701957842985,-0.2115023976071526,0.714067821054702,0.06875161942837794,-0.6930822476722998,0.07083332352557392,-2.718525093840746e-16,0.019959424834665174,0.008721183022522633
1730090309.814695,-9.747233354674043,0.19545946976550096,-0.20423415218733842,0.7139182132092887,0.06741347950458601,-0.6935129890891776,0.06939698548017591,-1.6311150563044477e-16,0.020063766068577703,0.008638230305209833
1730090309.8227155,-9.763338567491925,0.20394578195695684,-0.20178856626357494,0.7137683262785101,0.07016596969132567,-0.69310192337983,0.07225812692030346,-9.786690337826685e-17,0.020126370808925223,0.008588458674822153
1730090309.8307185,-9.7706074935225,0.20185496429136163,-0.20726439952376996,0.7139314930541187,0.06933625151946238,-0.6931042683176095,0.07141975000416836,-5.872014202696011e-17,0.0197382435916717,0.008984285758051576
1730090309.8386943,-9.763476681172094,0.19844569219786384,-0.19977599200918383,0.7137659822588569,0.0683739400515476,-0.6934771663570293,0.0703743322050136,-3.523208521617606e-17,0.01993105732278162,0.008370401885065167
1730090309.8467321,-9.762789496252084,0.19376650711559332,-0.2034232331449634,0.7139052334590242,0.06676497050906585,-0.6936570915742031,0.06871386804392057,-2.1139251129705635e-17,0.020898125684371636,0.00757638149981129
1730090309.854662,-9.759743563473908,0.19957812204279346,-0.20944230048268117,0.7140161912228317,0.0686163245512274,-0.6931644497536029,0.07068043770737596,-1.2683550677823381e-17,0.020626986578401584,0.007525659330120995
1730090309.8627305,-9.772520633933953,0.19684016668270735,-0.21496910221343682,0.7141883066587904,0.06753603362047855,-0.6932045262971769,0.06958039605930537,-7.610130406694029e-18,0.020038613053357517,0.007495226028306818
1730090309.8706536,-9.763666884754903,0.19878869595689003,-0.21110257827142148,0.7140673363618314,0.06830202534062449,-0.6931753428616447,0.07036061770713158,-4.566078244016417e-18,0.019685588938331076,0.007476966047218312
1730090309.8786612,-9.760988257073645,0.19325404887296213,-0.20758556307613413,0.7140235392997557,0.06653941649831259,-0.6935780564086045,0.06850088354449892,-2.73964694640985e-18,0.019473774469315214,0.007466010058565209
1730090309.886705,-9.762972382955125,0.20549557141362101,-0.21361563960349297,0.7140692460810463,0.07048120127059367,-0.6927185390326219,0.07265354601951717,-1.64378816784591e-18,0.019346685787905698,0.007885126526835377
1730090309.8947184,-9.758656194665653,0.20565787995754758,-0.21148760153553328,0.7140117018093232,0.07059984319032009,-0.6927539412101946,0.0727662611283459,-9.86272900707546e-19,0.019270432579059988,0.00813659640779748
1730090309.9026837,-9.75774242285408,0.1985726601034348,-0.2027887535482731,0.713847177841458,0.06840465305035656,-0.693385589422219,0.07042325262616193,-5.917637404245275e-19,0.019650370715214593,0.00828747833637474
1730090309.9107256,-9.754321117774948,0.18857544420659214,-0.20547031023443257,0.7140087818440637,0.06505556420364533,-0.6938861425950332,0.06694217004465017,-3.550582442547165e-19,0.019878333596907355,0.008378007493521095
1730090309.9187512,-9.756338477549733,0.20675855143606464,-0.19750243760550332,0.7136314292355337,0.07121362916067901,-0.6930233230709805,0.07333127510598884,-2.1303494655282988e-19,0.020015111325923013,0.008432324987808909
1730090309.92672,-9.759224834576715,0.2013878444846857,-0.21115706681134883,0.7140453594213171,0.0691902526489701,-0.6930149210678377,0.0712899207784149,-1.2782096793169793e-19,0.020097177963332408,0.00889060554584363
1730090309.9347982,-9.757125926136654,0.20654512612440515,-0.22413824765516868,0.7143485178043986,0.07067938561713724,-0.6923821478643313,0.07292174489285172,-7.669258075901876e-20,0.01929503782285398,0.009165573880664461
1730090309.9427195,-9.746289774431993,0.20245689012776807,-0.2280962335052106,0.7145078258605231,0.0693310693374827,-0.6924987922905192,0.07153455308284173,-4.6015548455411255e-20,0.019665133861490987,0.00933055488155696
1730090309.9507813,-9.747928369053726,0.203116410687989,-0.2228095797027357,0.7143522812798003,0.06963286399430355,-0.6925994442432103,0.07181986018012092,-2.7609329073246754e-20,0.019887191484673192,0.009429543482092462
1730090309.9587777,-9.756572971139267,0.20446980368818402,-0.21125788161070394,0.7140183665624175,0.07022502237463217,-0.692826356483987,0.07237304888660509,-1.6565597443948053e-20,0.020020426058582515,0.009488936642413761
1730090309.9667277,-9.764393354216763,0.20552125965431664,-0.2134248290640786,0.7140632836423237,0.0704836439570662,-0.6927242995626446,0.07265485313397424,-9.939358466368832e-21,0.020100366802928107,0.009098882477144509
1730090309.9746873,-9.767888483233182,0.19513880559727748,-0.2080212328876659,0.7140157291262791,0.06711542870401478,-0.6934707791049366,0.06910380827231424,-5.9636150798212995e-21,0.01972264118807343,0.008864849977982958
1730090309.9827006,-9.75992991367038,0.18890933316305397,-0.21411646165642767,0.7142429430177494,0.06499522944424692,-0.6936524649731899,0.0669245570433705,-3.5781690478927795e-21,0.019496005819160625,0.008724430478486027
1730090309.9906693,-9.749408687948321,0.20001569999548863,-0.21442171659346598,0.7141518090761187,0.0687438891852321,-0.692995529507065,0.07084255342813325,-2.1469014287356677e-21,0.01936002459781294,0.008214488717325837
1730090309.99868,-9.7555458011479,0.20189111677463692,-0.2129289283935796,0.7140899647665941,0.06935055608451468,-0.692934608148119,0.07146783487013979,-1.2881408572414005e-21,0.019278435865004336,0.008759903783553787
1730090310.0066817,-9.757073287573505,0.19080593837532903,-0.2031747093310696,0.7139261778517594,0.06581848233133922,-0.693823171583438,0.06772552351570701,-7.728845143448403e-22,0.0196551726867812,0.009087152823290557
1730090310.014761,-9.74577935096207,0.19971714212675992,-0.19899811905567302,0.7137402165811266,0.0689230988069494,-0.6933910893240725,0.07094580277613413,-4.637307086069041e-22,0.01988121477984732,0.008857812185670586
1730090310.0227928,-9.754325879620213,0.19692357873308722,-0.20008346738066943,0.713791054391576,0.06792176825752697,-0.6935432891742412,0.06990472164816831,-2.7823842516414245e-22,0.01959114997422496,0.008294517741636573
1730090310.030712,-9.744849166688143,0.19955700368516482,-0.20265003770379228,0.7138391424758846,0.06881695341093962,-0.6933091025329732,0.07085473828512402,-1.6694305509848547e-22,0.020268491213775608,0.008807921198140228
1730090310.0387406,-9.757119651380071,0.20329184015055202,-0.2108937445461035,0.7140201693600409,0.06983824867151958,-0.6929059532383753,0.071966358365364,-1.0016583305909128e-22,0.01982351583458193,0.009115963272042421
1730090310.0467696,-9.75682049688273,0.20218085970556557,-0.20075649819250582,0.7137600658371832,0.06964084170799846,-0.6932209092848677,0.07170420149867641,-6.009949983545477e-23,0.019556530607065727,0.009300788516383737
1730090310.0547574,-9.755683323520264,0.20654209492490186,-0.19682893187448786,0.7136162453463695,0.07115734079886948,-0.6930513483858041,0.07326879096042663,-3.605969990127286e-23,0.020247719593480068,0.009411683662988526
1730090310.062703,-9.753085658174658,0.20820115539244113,-0.20093673656609898,0.7137078054640996,0.07165589969509434,-0.6928478911373231,0.073813279327432,-2.1635819940763716e-23,0.020662432985328674,0.009052530689489368
1730090310.0707006,-9.763976907600107,0.21637919665343344,-0.20388025971309687,0.7136958245664917,0.07422693856193027,-0.6922955291134095,0.07652144769712196,-1.298149196445823e-23,0.020485570958975803,0.008837038905389873
1730090310.078658,-9.750400363310064,0.21841297941784132,-0.1989426089528581,0.7135506839401901,0.07507558443732257,-0.69225765987411,0.07738482031705214,-7.788895178674937e-24,0.01995376368170205,0.00955912395785424
1730090310.086705,-9.749915882048539,0.215802526420236,-0.19645885882874609,0.7135154222621762,0.0742618751602028,-0.692478102166208,0.07651793327061081,-4.673337107204962e-24,0.0196346793153378,0.00999237498933286
1730090310.0946825,-9.754413596611935,0.22357364109628225,-0.19999643224060704,0.7135188875949038,0.07672317634994372,-0.6919136898899945,0.07911887890332533,-2.8040022643229773e-24,0.019017538634057217,0.009826635546758
1730090310.1027317,-9.76118236817224,0.2217719654194881,-0.19206332931506734,0.7133383364489019,0.07622066920298484,-0.6922206013506637,0.07854595090956568,-1.6824013585937862e-24,0.0190729442867509,0.009727191881213085
1730090310.11072,-9.753990883305686,0.21350835503294285,-0.19304955154411854,0.7134513519641834,0.07353383087230494,-0.6927077485658254,0.07573585131618638,-1.0094408151562718e-24,0.01953187773982914,0.009241835620424103
1730090310.1187203,-9.756858597366225,0.22195771809789072,-0.1979508478698305,0.7134847521960368,0.07621160087652196,-0.6920679497865507,0.07857005252536148,-6.05664489093763e-25,0.019807237811676082,0.008950621863950715
1730090310.1267104,-9.768395452609187,0.21625342846615628,-0.20065220549924204,0.7136125938226,0.07421071893390313,-0.692387011128687,0.07648569770471884,-3.633986934562578e-25,0.01997245385478425,0.008775893610066681
1730090310.1348274,-9.758079313801842,0.2130702748531313,-0.2073008435632171,0.7138227166388376,0.07311974179623934,-0.6924076139051061,0.07538122296857808,-2.1803921607375467e-25,0.019220203357725087,0.00824536659627423
1730090310.142711,-9.754283832177588,0.20517487853492564,-0.20626220291527403,0.7138781199132277,0.07055794365601706,-0.6929034715755329,0.07269377947778131,-1.308235296442528e-25,0.01834316299802756,0.00792705038799876
1730090310.1507256,-9.749851761708896,0.2049866238982991,-0.1984564135460394,0.7136754172663966,0.07065435773562963,-0.693096298065191,0.07275219674297255,-7.849411778655167e-26,0.018668318905133104,0.00858744078595754
1730090310.1587045,-9.747671359759712,0.20559193161437012,-0.2035891667311393,0.7138053006945674,0.07078454006071995,-0.6929319460911506,0.07291679967649008,-4.7096470671931e-26,0.018863412449396433,0.00940936508619484
1730090310.1667092,-9.751869782408562,0.21696844388073144,-0.21576678495079293,0.7140059025619347,0.07429196930550702,-0.6919534474680048,0.07665964349362508,-2.82578824031586e-26,0.018554778514492398,0.009476829604875189
1730090310.1746573,-9.74457260919123,0.20895030094757946,-0.214214809740007,0.7140559313019761,0.07173221711075442,-0.6924646013997968,0.0739688570214765,-1.695472944189516e-26,0.01879528821501201,0.009517308316083398
1730090310.182698,-9.741391406090909,0.21778636465057893,-0.20657985996509795,0.7137573178435764,0.07479888698862769,-0.6921019781574129,0.07713928675196616,-1.0172837665137096e-26,0.019365284096785805,0.009967285604270355
1730090310.1906698,-9.737567322902592,0.20154018793097234,-0.2027171505981994,0.7138249504434279,0.06952199590551851,-0.6931775387491399,0.07159282075345019,-6.103702599082257e-27,0.01928159156438805,0.009385891854258466
1730090310.1987305,-9.7398218561439,0.2042423305320209,-0.19585054182376338,0.7136177888213753,0.07051631899285161,-0.6931861929189559,0.0725947806657841,-3.662221559449354e-27,0.018805685983487367,0.0086113655427893
1730090310.2067177,-9.7490754415672,0.19987811194225938,-0.20106796303371113,0.7137924720328854,0.06892192420687562,-0.6933364328810999,0.07095538085667788,-2.1973329356696126e-27,0.01894583269640899,0.008572339817369833
1730090310.214706,-9.743853685350475,0.2125824714134025,-0.20467725609171106,0.7137635893260569,0.07310162727873819,-0.6924739750689772,0.0753490842263789,-1.3183997614017676e-27,0.019455610785623995,0.008974614443580185
1730090310.2227192,-9.747424396268878,0.20440335613905714,-0.20827935292260474,0.7139422249687992,0.07031382095569864,-0.6928877274555583,0.07245041843000327,-7.910398568410605e-28,0.019761477639152997,0.008790289157844364
1730090310.2307532,-9.751242763982031,0.2071573322869499,-0.2169049555035628,0.7141455875598958,0.07104908104068645,-0.6925170742590208,0.07326806747643268,-4.746239141046363e-28,0.0199449977512704,0.008679693986402871
1730090310.2387424,-9.740605095645078,0.21120391963584184,-0.21705249356580958,0.7141095584092656,0.07245087239055066,-0.6922518086501015,0.07473849810529434,-2.8477434846278177e-28,0.02048079988000287,0.008613336883537975
1730090310.246703,-9.74116567945736,0.20788578806080193,-0.21283145341487636,0.71403116482167,0.07142800804531524,-0.6925563266085659,0.07364285304452121,-1.7086460907766905e-28,0.021227971218704386,0.008573522621819037
1730090310.2546954,-9.74748753389512,0.21068331243609054,-0.21891795530087893,0.7141634522837991,0.0721995554898106,-0.6922497813085322,0.07448508499994427,-1.0251876544660143e-28,0.02082489389900123,0.008549634064787676
1730090310.2626967,-9.750322965893712,0.21619254971751367,-0.22113333543638672,0.7141598065048563,0.0739491592286039,-0.6918675773462736,0.07633182848148538,-6.151125926796085e-29,0.02058304750717934,0.008535300930568857
1730090310.270813,-9.741729157954197,0.1979502771449613,-0.2174347400313633,0.7142584953347278,0.06805705338155195,-0.693024602237942,0.07014228410975337,-3.690675556077651e-29,0.020012249610624172,0.008952391111499598
1730090310.2786722,-9.745431419333066,0.21980547634557054,-0.21258196096217735,0.7138905274755525,0.07532534388614734,-0.6918418076429035,0.07772593226530589,-2.2144053336465905e-29,0.019669770872691072,0.009628335281520076
1730090310.2868147,-9.742385532508044,0.21184962125656107,-0.2094308733546502,0.7138973646303327,0.07278718706506175,-0.6924020150600729,0.07504683680057507,-1.3286432001879542e-29,0.01946428362993121,0.009608211722070329
1730090310.294709,-9.737684958420841,0.2080337888672179,-0.20442775863193072,0.7138063747397911,0.07164515387606127,-0.6927463921742025,0.07382321746265494,-7.971859201127725e-30,0.019340991284275293,0.00917044752493845
1730090310.3027287,-9.739892437454849,0.2126874742480651,-0.21148153677095533,0.7139436872588173,0.07304403461676573,-0.6922966646758788,0.07532800613876976,-4.783115520676635e-30,0.019267015876881746,0.008907789006659322
1730090310.3107288,-9.748878370187752,0.20686055950001095,-0.21092540033405757,0.7139877596726154,0.07107132298796619,-0.6926786070825319,0.07325771888765828,-2.8698693124059807e-30,0.019222630632445614,0.009175883957153876
1730090310.3187952,-9.755467030657572,0.2031249904851628,-0.21921084444848143,0.7142495244828746,0.06965036678391534,-0.6927039764884958,0.07181673996972579,-1.7219215874435882e-30,0.01919599948578394,0.008911050865988578
1730090310.3267877,-9.767321092417982,0.19944712808016019,-0.2136476236124482,0.714129016590849,0.06845404614282383,-0.6930792702350846,0.07053308727161633,-1.033152952466153e-30,0.019180020797786933,0.0087521510112894
1730090310.3347466,-9.76389904216954,0.204662435783643,-0.2083943297827033,0.7139367369373096,0.0702892831655535,-0.6928986930298413,0.07242343212605341,-6.198917714796917e-31,0.01959612364645076,0.008231121037007861
1730090310.3426929,-9.760169870858363,0.2053974187455764,-0.21410089962743448,0.7140844635367726,0.07045881304723701,-0.6927072636933933,0.07263319782156033,-3.71935062887815e-31,0.019845785355649057,0.007918503052438937
1730090310.3506808,-9.75889004873572,0.2139786941672677,-0.2132152785459919,0.7139692328031346,0.07330854529735166,-0.692211307285298,0.07561281546978808,-2.23161037732689e-31,0.02042127244263007,0.008156622323159616
1730090310.3587048,-9.760276936956275,0.20212862763317313,-0.19400913294790764,0.7135826763938695,0.06970900815645081,-0.6933930865711336,0.07173873171280776,-1.3389662263961338e-31,0.01991518457189461,0.009150874008516087
1730090310.3667068,-9.760869649722594,0.20435597418732573,-0.19541413455390083,0.713598538737714,0.07042153201528448,-0.693226502732244,0.07249102875281739,-8.033797358376802e-32,0.019185841787991303,0.009747425019729968
1730090310.3746638,-9.758591655556211,0.20234049979559857,-0.1957782951854655,0.7136273242902587,0.06976232040578348,-0.6933350066951622,0.07180410273059754,-4.820278415026081e-32,0.01874823611764932,0.009679665564996266
1730090310.3826797,-9.758182539720446,0.20184947565860914,-0.1876170857538574,0.7134213593556428,0.06972958474428136,-0.6935582483559897,0.07172660011396155,-2.8921670490156485e-32,0.01848567271544413,0.009639009892156044
1730090310.3906915,-9.761288952543204,0.19556935702602488,-0.1937336877316113,0.7136321446270211,0.06752566767554945,-0.6937904545679668,0.06945683199213447,-1.735300229409389e-32,0.018328134674121015,0.00961461648845191
1730090310.3987186,-9.756209615422407,0.1867734623601462,-0.20099495140849802,0.7139003400644219,0.06451124307938548,-0.6941052839450557,0.06635102690847329,-1.0411801376456335e-32,0.018233611849327147,0.009174290384767398
1730090310.4067764,-9.749091870327662,0.19586113552155643,-0.20870359193884883,0.7140352160986236,0.06746283290802335,-0.6933801634622692,0.06947247846487759,-6.2470808258738e-33,0.018602588215912857,0.008910094722556692
1730090310.4148166,-9.745060643436831,0.19365229410590262,-0.2154835577511999,0.7142442926191795,0.06664207876364435,-0.6933258425736909,0.068652748076604,-3.74824849552428e-33,0.019675354158788346,0.008751577325230268
1730090310.4227872,-9.743120747634364,0.19520003124869778,-0.21548139441634495,0.7142304142655554,0.06716854583831808,-0.6932346401043866,0.06920285794214354,-2.248949097314568e-33,0.02031901372451364,0.009082156948296446
1730090310.4306748,-9.734055944674369,0.18798838788984368,-0.2102128527630882,0.7141534822197543,0.06490856667261762,-0.6937631187727302,0.06681629170075308,-1.3493694583887409e-33,0.02070520946394882,0.00885481466067412
1730090310.4387004,-9.736996768708918,0.19659009083937495,-0.21231897142347791,0.714132318878448,0.0677219880389311,-0.6932255715935323,0.06976439176374952,-8.096216750332445e-34,0.02051123684614789,0.008718409288100724
1730090310.446699,-9.747619809272225,0.19863865045089057,-0.20927307963143046,0.714025266224978,0.06838533034263404,-0.6932024514072844,0.0704395283147858,-4.857730050199467e-34,0.020394853275467334,0.009062256126018717
1730090310.4546607,-9.730051617008646,0.20657155086623744,-0.2103185865483895,0.7139812417863992,0.07111133390015652,-0.6926769078482286,0.07329847134769162,-2.91463803011968e-34,0.020750713194521035,0.009694254290231547
1730090310.4626637,-9.736748953603625,0.2027121651388831,-0.20974878986848683,0.7140026459504197,0.06979877488095083,-0.6929326820901018,0.0719211421790268,-1.748782818071808e-34,0.020964229145953254,0.010073453188759244
1730090310.4706662,-9.741246195892645,0.19704465137825172,-0.21682893700702957,0.7142507912491135,0.06777003854398851,-0.6930912948605121,0.06983900102621893,-1.0492696908430848e-34,0.02024095859388852,0.0094495924049518
1730090310.4786592,-9.743465700934024,0.20968529424491977,-0.21150021864953025,0.7139754270665026,0.07202984410080973,-0.6924849967768198,0.07426520277374868,-6.295618145058508e-35,0.01980699626264968,0.009500965996129363
1730090310.4867165,-9.75198000893932,0.205538091830155,-0.21045776912917125,0.7139876441295432,0.07062195078872338,-0.6927745746803313,0.0727844267245807,-3.7773708870351047e-35,0.019972308925368408,0.009531790150835901
1730090310.4946826,-9.758285694572576,0.207598753535593,-0.20504389609664336,0.7138200959436665,0.07135306548550481,-0.692794801605409,0.07351852515739213,-2.2664225322210628e-35,0.019645806461537615,0.009124594582197793
1730090310.5027363,-9.753449979975969,0.21218703288307456,-0.19173992530447037,0.7134315774179132,0.073122628953234,-0.6928193553389457,0.07529811648164556,-1.3598535193326377e-35,0.01944990498323914,0.00888027724101493
1730090310.5107393,-9.7550975343723,0.20679971484703222,-0.19596797129596347,0.7135916656748101,0.07126056574851135,-0.693055115884133,0.0733721527248793,-8.159121115995826e-36,0.019758054157722083,0.009159376897767243
1730090310.5188122,-9.76255041149252,0.2078768870136881,-0.19611059723070307,0.7135826420821456,0.07156473073326591,-0.6929993052251274,0.07369033309485282,-4.8954726695974954e-36,0.02036863372387388,0.00932683669181863
1730090310.526796,-9.75792417145606,0.1922426190246191,-0.20601239959818746,0.7139907501595311,0.06624710788586112,-0.6936706449928298,0.06818772366504608,-2.937283601758497e-36,0.021160671525026993,0.009427312568249462
1730090310.534677,-9.758739729924416,0.20225509167844333,-0.21578420367492807,0.7141630200947545,0.06940134097087237,-0.6928471413991063,0.07153651693834925,-1.7623701610550984e-36,0.020358824021332766,0.00906190803264593
1730090310.5426977,-9.761383846499571,0.20515011311253475,-0.21853482396276933,0.7142074431815195,0.07029187092422327,-0.6926131191077226,0.07248343414850449,-1.057422096633059e-36,0.019452025457654197,0.009268355372745844
1730090310.5506778,-9.753154089638024,0.20664770580697397,-0.21060838949484909,0.7139798922499752,0.07097815171088759,-0.6927068194906193,0.07315789549741569,-6.344532579798354e-37,0.019333636380909087,0.009392223776805791
1730090310.5587747,-9.743427832200783,0.2108981437478563,-0.2077678901422219,0.713863060076715,0.07249537807039425,-0.6925020889336969,0.07473157591544098,-3.806719547879013e-37,0.01926260293486202,0.009040854757779727
1730090310.5667799,-9.754112069193516,0.2065052216979325,-0.21372503584314564,0.714065050670113,0.07087080300522067,-0.6926400435085661,0.07306300583288271,-2.2840317287274074e-37,0.01921998286723378,0.009681413469288153
1730090310.5746615,-9.754058266906735,0.20506656929805636,-0.20532831496291867,0.7138544138086573,0.07053929308787817,-0.692932379911879,0.0726691192063041,-1.3704190372364445e-37,0.019194410826656835,0.01049143875765524
1730090310.5826752,-9.762405691345212,0.21138598283859944,-0.2074728874152512,0.7138437561540125,0.0725328721299625,-0.692514249797346,0.07476689165752608,-8.222514223418667e-38,0.0196047576637727,0.010977453930675491
1730090310.5907242,-9.755443137707518,0.19578459751565966,-0.22097005935344757,0.7143724859163754,0.06719228759709497,-0.6930805781188302,0.06925648047363839,-4.9335085340512e-38,0.020702345888966286,0.010843372973025612
1730090310.5987654,-9.749829084528807,0.19169100997423955,-0.2185338752116779,0.7143458487043323,0.06590985425983607,-0.6933649192267679,0.06790425859982532,-2.96010512043072e-38,0.021360898824082437,0.010337234336973651
1730090310.6067398,-9.748854854281737,0.20264238674626248,-0.21659332439458487,0.7141851699966085,0.06957941169569883,-0.6927865921366341,0.07172855903128694,-1.776063072258432e-38,0.02090465046222806,0.010033551155342475
1730090310.614662,-9.753776979951855,0.2116074144696325,-0.22045681739065717,0.7141927002792682,0.07243329184958874,-0.6921679121118264,0.07473811974083017,-1.0656378433550592e-38,0.019779521322191376,0.00985134124636377
1730090310.6226664,-9.749787070539472,0.221774834423967,-0.2254085350144724,0.714208601811706,0.07569811094507431,-0.6914200724256704,0.07819304664991625,-6.393827060130355e-39,0.019530133899631395,0.009316325239514514
1730090310.6306646,-9.74859022572212,0.22260804274422394,-0.22790072525673033,0.7142663155594227,0.07593000174638748,-0.6913056959847248,0.07845189603212972,-3.8362962360782126e-39,0.019806191507557438,0.009421005696866994
1730090310.6386802,-9.739731833187179,0.22550216939653436,-0.2229316949196632,0.7140984012421716,0.07703338202285624,-0.6912279001296943,0.07958216810183404,-2.3017777416469276e-39,0.019971826072313063,0.009909504032740513
1730090310.646662,-9.752852150449417,0.2224502420676081,-0.21252825157093852,0.7138556912277404,0.07614040620718238,-0.691692020165112,0.07858014942895337,-1.3810666449881566e-39,0.020071206811166437,0.009351222911340561
1730090310.654686,-9.752105214830198,0.2086480773694711,-0.21562357203631308,0.7140945156953287,0.07155742599407194,-0.6924616690144991,0.073792915544862,-8.286399869928939e-40,0.020130835254478462,0.009441944299962621
1730090310.6626992,-9.761712700431321,0.20108503904863578,-0.21628366348545972,0.7141873217242564,0.06898686172323186,-0.692907853784721,0.07110547490429239,-4.971839921957363e-40,0.020166612320465675,0.00992206719459789
1730090310.6707132,-9.75957632631348,0.21258836717918145,-0.19992030673385397,0.7136348314954313,0.07307736170708405,-0.6926150939168507,0.07529514035428506,-2.983103953174418e-40,0.020188078560058005,0.01021014093137905
1730090310.6786594,-9.757097401012697,0.20704051542469637,-0.20542518330789047,0.7138362231275155,0.07117013486483291,-0.6928170506495646,0.07332934462821908,-1.7898623719046507e-40,0.020200958303813403,0.009531605050523683
1730090310.6868656,-9.75656772649629,0.20706368669622408,-0.21040405041442176,0.7139688879759547,0.07109637371520919,-0.6926931242320368,0.07328006747121563,-1.0739174231427904e-40,0.01978299608860461,0.009550173583472495
1730090310.694719,-9.755292241122383,0.21617555576773442,-0.20572992536584056,0.7137487664336429,0.07418778821843706,-0.6922484015008723,0.07649196763841583,-6.443504538856743e-41,0.019532218759479338,0.009561314703241782
1730090310.7027566,-9.75452694989804,0.20991108907587502,-0.19239096303200434,0.713470082353585,0.07235220766469969,-0.6929473936898817,0.07449502809458468,-3.8661027233140453e-41,0.019381752362004172,0.009567999375103354
1730090310.7107897,-9.76029269947984,0.2092648712189625,-0.19779511492857757,0.7136132734445456,0.07201109606258085,-0.6928706719616436,0.07416690598269789,-2.319661633988427e-41,0.0197171625849811,0.009572010178220297
1730090310.7187874,-9.755611863584388,0.20528583801458064,-0.20678369005089656,0.71389044608443,0.07057708481646918,-0.6928864339701056,0.07271654356728487,-1.3917969803930562e-41,0.01991840871876726,0.009574416660090464
1730090310.7267885,-9.756634084703366,0.21055986340445149,-0.2140921964524129,0.7140309455175645,0.07218390153103561,-0.6923929672569378,0.07443972122585954,-8.350781882358337e-42,0.019613466337576924,0.00915017048775053
1730090310.734842,-9.75748683754077,0.21779442146063965,-0.21297063647496337,0.7139202119378617,0.07457497105113989,-0.691980366677179,0.07693943600415382,-5.010469129415002e-42,0.019430500908862725,0.009321312845808602
1730090310.7426567,-9.766138774887743,0.21567081181193065,-0.20367857451193114,0.7136976041156186,0.07398270880432443,-0.6923482382848223,0.0762640519609557,-3.006281477649001e-42,0.019320721651634204,0.008998308199181414
1730090310.750657,-9.761034870157255,0.21200244436254903,-0.21390506829114306,0.7140086839641362,0.07263217142552682,-0.6923185692548842,0.07490771363942018,-1.8037688865894007e-42,0.01925485409729709,0.008804505411205102
1730090310.758747,-9.748874561010368,0.20309765924448253,-0.21836502339656083,0.7142291632865283,0.06969890490758811,-0.6927152315816546,0.07186357144258343,-1.0822613319536404e-42,0.019641023626156853,0.008688223738419314
1730090310.7666583,-9.756422425815204,0.20254319149395514,-0.21385839147934274,0.7141084128313353,0.06954466127838231,-0.6928746476309129,0.0716759198163837,-6.493567991721842e-43,0.01987272534347271,0.00861845473474784
1730090310.7746634,-9.754965640547717,0.20460471250379497,-0.21977353830557442,0.7142497383754726,0.0701320734065418,-0.6926023634198921,0.07232406028043485,-3.896140795033105e-43,0.020011746373862226,0.008576593332544957
1730090310.7827659,-9.748345485402849,0.199377280627277,-0.21398523992670404,0.7141465517067601,0.06854659870639632,-0.6930417762764056,0.07063400616397524,-2.337684477019863e-43,0.020520849053557968,0.008551476491223228
1730090310.7908127,-9.746288753644054,0.20485994747792868,-0.2085968995712568,0.7139465782137892,0.07046700040786837,-0.6928507048798498,0.0726125750668201,-1.4026106862119178e-43,0.02040062059991338,0.00853640638643019
1730090310.7988286,-9.7469700759169,0.19785448044964785,-0.21326476083650409,0.7141421459296484,0.06806259924775543,-0.6931457702170014,0.07012431262348272,-8.415664117271507e-44,0.0199027934662646,0.008527364323554366
1730090310.806797,-9.750491331438813,0.19963670438306996,-0.21055881377729307,0.7140495443465887,0.06867654231770157,-0.6931169676309713,0.07075061791787361,-5.049398470362904e-44,0.01960409718607533,0.008096249024366842
1730090310.8147902,-9.75092814358985,0.2042973412333576,-0.20510452288551645,0.7138571469850056,0.07030909337730988,-0.692978260459835,0.07242745071414522,-3.0296390822177426e-44,0.019850569479423798,0.008263269906316357
1730090310.8227835,-9.745683567062112,0.20110821919313956,-0.20135310801841924,0.713789842065187,0.06934789347560248,-0.6932507607091125,0.0714024776271018,-1.8177834493306455e-44,0.019998452855432877,0.008363482435486066
1730090310.830788,-9.729608132180626,0.20518025011939936,-0.1969474776040203,0.7136408102754968,0.07087793507568244,-0.6930851498371795,0.07298004730002759,-1.0906700695983872e-44,0.020087182881038328,0.008849300014449925
1730090310.8387303,-9.75084807266775,0.1997226031966396,-0.18855801537100592,0.7134660466043956,0.06905554591583904,-0.6936515942951191,0.07102814690528948,-6.544020417590323e-45,0.020140420896401598,0.00914079056182824
1730090310.8466775,-9.750902768161197,0.20937670400782749,-0.19573476649799418,0.7135619374034695,0.07214548144008603,-0.692895592918981,0.07429729678958044,-3.9264122505541934e-45,0.020172363705619558,0.009315684890255228
1730090310.854666,-9.766258476082266,0.21205670233633714,-0.20219559866832773,0.7136972306870683,0.07281808158355349,-0.6926062825869963,0.07503550642944005,-2.355847350332516e-45,0.020191529391150334,0.009420621487311421
1730090310.8626616,-9.763979732866154,0.20265137369672417,-0.21014224079279348,0.7140036489348954,0.069594519833757,-0.6929744413191617,0.0717064557425553,-1.4135084101995096e-45,0.020628718863930834,0.009057893384083105
1730090310.8706517,-9.75112031896774,0.19796585717701887,-0.2077276210870042,0.7139882991612583,0.06816512844930726,-0.6932864515374301,0.07020057007561756,-8.481050461197058e-46,0.02003965242467507,0.008840256522146116
1730090310.878659,-9.744841191624785,0.19946411025347693,-0.20244812660728065,0.7138346119286325,0.06878941788513596,-0.6933195515234669,0.07082487045538123,-5.088630276718234e-46,0.01926052249965958,0.008709674404983922
1730090310.8868766,-9.750889942025651,0.20395436458958616,-0.198322749255384,0.7136813823279908,0.07030744542177574,-0.6931635034831236,0.07238857006236528,-3.0531781660309404e-46,0.019218734606112314,0.008205635073224575
1730090310.8948977,-9.765532519902889,0.21574648349984543,-0.2023118673266679,0.7136616048064003,0.07403536574032976,-0.6923744792798608,0.07631159077617578,-1.831906899618564e-46,0.01961935193144599,0.008328901535630998
1730090310.9027832,-9.762586478494468,0.21755451119365726,-0.20853606082568824,0.7138045596897191,0.07454060141611273,-0.6921102970791515,0.07687708360557774,-1.0991441397711384e-46,0.01900834220372213,0.008828551474536882
1730090310.910797,-9.747411324352539,0.2236671512962725,-0.21131289626103794,0.7138109559561802,0.07659952164737786,-0.6916333013101273,0.07905573324668988,-6.59486483862683e-47,0.018641736367087814,0.009128341437880414
1730090310.918787,-9.742615794855663,0.21799734888323222,-0.20412045137966964,0.7136906273195479,0.07490321537147573,-0.6921488564936115,0.0772344305205294,-3.9569189031760977e-47,0.018847462926569258,0.009308215415886532
1730090310.9268425,-9.736626014999336,0.21052532461314247,-0.21321251374772365,0.7140147742243748,0.07232274656743004,-0.6923797749400095,0.07458263720384449,-2.3741513419056583e-47,0.019396588923720155,0.008990449741228172
1730090310.9348073,-9.746200256216397,0.21394297552960423,-0.21052746552402482,0.7139023945729037,0.07343132228364775,-0.6922546785910736,0.07572761649173017,-1.424490805143395e-47,0.01887468439908663,0.009225480397895187
1730090310.9426727,-9.74284683463804,0.20881096109901254,-0.20556455426558676,0.7138267327509209,0.07184809030033867,-0.6926811075659289,0.07404141240939277,-8.546944830860369e-48,0.018561541684306515,0.009366498791895397
1730090310.95063,-9.744904924513293,0.2138720380851888,-0.21360013514724266,0.7139854544301689,0.07336195324431946,-0.6921823634060201,0.07567278551751479,-5.1281668985162214e-48,0.01922503617836251,0.009451109828295522
1730090310.9586728,-9.738238912959929,0.21235970112259764,-0.21387250052193935,0.7140118443246605,0.07290465793790107,-0.6922554220373892,0.07519592857921699,-3.076900139109733e-48,0.019623132874796105,0.009501876450135598
1730090310.966759,-9.733042205197833,0.21001577794894918,-0.22169736505925733,0.7142523183181292,0.0720260184693172,-0.6921937739963089,0.07432131377594349,-1.8461400834658394e-48,0.020287680954118294,0.00910664636177761
1730090310.9746678,-9.739022146849168,0.20429986105647888,-0.21992793929922627,0.7142635903963722,0.0701327444535335,-0.6925876308076364,0.07232769346359477,-1.1076840500795036e-48,0.02111209986317364,0.009295198370224852
1730090310.9827025,-9.74093417067786,0.20781349573544983,-0.21623266201703578,0.7141241599004179,0.07134575089119924,-0.6924760045992154,0.07357615871055394,-6.6461043004770215e-49,0.021181061147144818,0.009408329575293195
1730090310.9907963,-9.739447763148902,0.21111877737291052,-0.22814128544264334,0.7144151613390666,0.07222672591067647,-0.6919781759450369,0.07456863502089262,-3.9876625802862126e-49,0.020371057794603457,0.00905051823687217
1730090310.998846,-9.741668380789733,0.2054405010428869,-0.22427313186128914,0.7143705956460275,0.07041419312852688,-0.6924152802007006,0.07264690789691973,-2.3925975481717274e-49,0.019885055783078642,0.009261521495281587
1730090311.006801,-9.733184524567589,0.20873729989331025,-0.2183609372222422,0.7141750703203292,0.07166412978732467,-0.6923536947822687,0.07392281620798326,-1.4355585289030365e-49,0.01874207445323969,0.008962433388865204
1730090311.014809,-9.742220000629224,0.208321177543408,-0.20834927595639222,0.713905988098846,0.07164265878992908,-0.6926419833999715,0.07384207763784667,-8.61335117341822e-50,0.018056285655336318,0.009208670586477407
1730090311.0227609,-9.75027490809238,0.2066349831373729,-0.20234227919688222,0.7137611786798963,0.07113326076521874,-0.6929039567021216,0.07327445536431512,-5.168010704050932e-50,0.01849619249951836,0.009356412905044728
1730090311.0308278,-9.74313684426949,0.212566451308205,-0.20783604744976994,0.7138471314819222,0.0730463191304845,-0.6923980362042765,0.07530914683476302,-3.100806422430559e-50,0.019185826667489615,0.00944505829618512
1730090311.0386884,-9.742205888299974,0.21468881121461048,-0.20323144292298695,0.7137038426465767,0.0738323786441482,-0.6923751591725809,0.07610679218046736,-1.8604838534583352e-50,0.01959960716827237,0.009498245530869358
1730090311.046684,-9.73877427272608,0.21548338682642254,-0.20214462136902653,0.7136681008470535,0.07413680771851087,-0.69234495958967,0.07642010537448023,-1.116290312075001e-50,0.020273565530204055,0.009104467810217867
1730090311.054661,-9.743419068030178,0.20542564488882226,-0.21059049474524402,0.7139955027720998,0.07063898550764273,-0.6927626781934937,0.0728040345712061,-6.697741872450006e-51,0.020677940547363063,0.009293891239289004
1730090311.0627108,-9.736868558738028,0.2166292516793871,-0.20895425412253704,0.7138339496001156,0.07440748206760875,-0.6921091817472358,0.07674307494380102,-4.0186451234700033e-51,0.02092056555765847,0.009407545296731688
1730090311.0708182,-9.734853614490865,0.2132957687810698,-0.20438120725867848,0.7137510826373538,0.07340369241945681,-0.6924204678178313,0.07566495701532383,-2.4111870740820018e-51,0.020640450502373682,0.009475737731197297
1730090311.078703,-9.725983202630065,0.20411307406161064,-0.2157631689352852,0.7141561983958044,0.07022967097641922,-0.692680252565654,0.07240708054450257,-1.446712244449201e-51,0.020046691407740777,0.009090963130414631
1730090311.086819,-9.732871383980383,0.20794084370454452,-0.21421264013070235,0.7140709577366949,0.0714772001678892,-0.692503794541954,0.07370326802899553,-8.680273466695205e-52,0.019690435950961035,0.008860098369945031
1730090311.0948095,-9.721920822331588,0.2099980853242892,-0.2089727598596714,0.7139119788928258,0.07232267208842051,-0.6924881962332857,0.07456014735024798,-5.2081640800171225e-52,0.01947668267689319,0.008721579513663272
1730090311.1027894,-9.726842653311062,0.20524692614574538,-0.2055894115310372,0.7138691531837531,0.07077481851856905,-0.6928668033061873,0.07292016231907343,-3.1248984480102735e-52,0.019348430712452482,0.008638468199894216
1730090311.1107953,-9.720697785590152,0.21101535661518162,-0.21217852851041918,0.7139872504629549,0.07261053486053475,-0.6923459201120472,0.07488019302739247,-1.874939068806164e-52,0.019271479533788057,0.008588601411632781
1730090311.118789,-9.724193469938076,0.22094075937926524,-0.22115982218437652,0.7141127068124468,0.07568586844107879,-0.6915244038634539,0.07815810993502072,-1.1249634412836984e-52,0.019650998888051434,0.008558681338675921
1730090311.1267812,-9.734191746025344,0.2094183289185748,-0.21936599340828214,0.7141946614054694,0.07186385314565108,-0.6922898036808384,0.07413770936934463,-6.74978064770219e-53,0.01987871050060946,0.008540729294901805
1730090311.1346638,-9.737557089851535,0.203462551306223,-0.22235983896489114,0.7143404028914537,0.06982243400596662,-0.6925721366461015,0.07201702609669215,-4.049868388621314e-53,0.020015337468144274,0.008529958068637336
1730090311.1426432,-9.735266733158968,0.20778995021732757,-0.22655034795901283,0.714410578245243,0.07118903014186344,-0.6922076610696907,0.07347245494187957,-2.429921033172788e-53,0.020097313648665165,0.008949185394340687
1730090311.1506722,-9.73317425864538,0.21134407022805277,-0.22499451053322023,0.7143279361142701,0.07240154710699485,-0.6920320937098963,0.07473417517266244,-1.4579526199036729e-53,0.02099787947990176,0.009200721789762696
1730090311.158665,-9.732637034435275,0.20485741625792542,-0.2216668064175884,0.7143082813195735,0.07032770376757899,-0.6924992942141958,0.0725425449918699,-8.747715719422037e-54,0.02153821897864372,0.008925953565553871
1730090311.1667821,-9.734230061237335,0.20048658354381774,-0.22038844444625616,0.7143181032396437,0.06889437425441199,-0.6927894341554943,0.0710352905443534,-5.248629431653222e-54,0.020585352493502802,0.008335402569566544
1730090311.1746683,-9.74188964196701,0.20600436955988438,-0.22010026759548806,0.7142490213362321,0.0706736808396749,-0.6924882332606642,0.07289453444758537,-3.149177658991933e-54,0.02043932266388028,0.008406762033436179
1730090311.1826775,-9.741457566918488,0.20117475552499314,-0.2177725799908866,0.7142355909866348,0.06912127108082196,-0.6928291431394746,0.07125692154987731,-1.8895065953951595e-54,0.020351704766106767,0.00844957771175796
1730090311.1906638,-9.743353103383514,0.20474133158648025,-0.20943278261367257,0.7139713088280762,0.07043285797433042,-0.6928319088671334,0.07258187613595958,-1.1337039572370957e-54,0.019873443965980626,0.009326647241675092
1730090311.1988184,-9.744251005096515,0.2056841763932944,-0.2077807865115629,0.7139171264152765,0.07076704483018949,-0.6928179526905188,0.07292219419816043,-6.802223743422574e-55,0.020012177547366977,0.009852888959625371
1730090311.2068152,-9.74670510745244,0.21462958908792976,-0.21038089134053148,0.7138907616516086,0.07365638167070795,-0.6922170179649365,0.07596260861368596,-4.081334246053544e-55,0.02052110775766082,0.009742943928933507
1730090311.2147787,-9.74841698903201,0.21784205521057035,-0.21409573573205323,0.7139524495352513,0.0746329448246495,-0.6919332307671453,0.07700797042875285,-2.448800547632126e-55,0.01997508576091306,0.009676976910518388
1730090311.222788,-9.755429622130144,0.21785417355602973,-0.2237466675134507,0.7142092402038335,0.07440933369206149,-0.6917121179197055,0.0768294096684449,-1.4692803285792755e-55,0.01922178250140237,0.009637396699469319
1730090311.2307928,-9.752933437340586,0.21259420091096157,-0.22187578126978916,0.7142205491075114,0.07273713915532025,-0.6920719370405369,0.07506497039913843,-8.815681971475653e-56,0.019195490607157993,0.009613648572839875
1730090311.238683,-9.751914566798881,0.2034527131735301,-0.21572542603726413,0.7141518879953356,0.06984242657082254,-0.6927664407449757,0.07199843679507835,-5.289409182885392e-56,0.019179715470611362,0.009173709635400177
1730090311.246678,-9.753458025968,0.204432165013493,-0.2101198515696241,0.7139892121015359,0.07025243629013121,-0.6928512513431437,0.07239574372964794,-3.173645509731235e-56,0.019170250388683384,0.008909746272936359
1730090311.2546353,-9.745286135160878,0.19951317229911142,-0.2050805657269307,0.7139045345508526,0.06875987598159822,-0.6932521791873454,0.07080826967750736,-1.904187305838741e-56,0.01959026140098863,0.008751368255458067
1730090311.262663,-9.739185899846525,0.20254728082087312,-0.19966279256115843,0.7137338618659497,0.06989582529446753,-0.6931950156716973,0.0719667859518409,-1.1425123835032447e-56,0.01984226800837178,0.008656341444971093
1730090311.27069,-9.75276401061104,0.1967063006214301,-0.2055100949702888,0.7139392811122269,0.06777244535152031,-0.6934180644476464,0.06977812288756031,-6.855074301019468e-57,0.019993471972801668,0.00902501542014094
1730090311.2787042,-9.752531171259202,0.19918721665215494,-0.20542717392553264,0.7139141992490717,0.06859928612955905,-0.6932751480394208,0.07064151162022811,-4.113044580611681e-57,0.019658504289997568,0.009246219805242848
1730090311.2866697,-9.759334652462552,0.19516910245223043,-0.21567248843735085,0.7142291521391303,0.06705335077555151,-0.6932591853717307,0.06908160596073472,-2.4678267483670083e-57,0.019457523680315107,0.009378942436303994
1730090311.294811,-9.747854430393547,0.19419475492836952,-0.2079333075155355,0.7140299059003878,0.06692899728657127,-0.6934933888044819,0.06891097508070279,-1.4806960490202048e-57,0.019762625375967666,0.00945857601494068
1730090311.3028576,-9.74503643997441,0.18762464226366232,-0.2023321182983838,0.7139345374071168,0.06484349273265538,-0.6940051619810153,0.06670556866724926,-8.884176294121229e-58,0.019519996331897167,0.009506356162122693
1730090311.3107803,-9.7490917297073,0.18248547383475988,-0.20878763157473337,0.7141530175772994,0.06300051383034508,-0.6941289779489992,0.06481793512468384,-5.3305057764727375e-58,0.01894872884399284,0.0095350242504319
1730090311.3187811,-9.74865186155485,0.18155675427155907,-0.20571775472609002,0.7140748528296141,0.06273909476633245,-0.6942599106307622,0.06452973760393158,-3.198303465883643e-58,0.019031658412712274,0.009126535041955392
1730090311.326785,-9.751739822987597,0.18746386701606044,-0.21010075293331024,0.7141471949599306,0.06462755247893556,-0.6938242406394574,0.06652057194977863,-1.9189820795301854e-58,0.01908141615394393,0.008881441516869489
1730090311.334684,-9.74401579320662,0.1953176976510425,-0.20698446787326738,0.713995361144427,0.06734224598553078,-0.6934464038589,0.06933780458756182,-1.1513892477181112e-58,0.019536960860144958,0.008734385401817946
1730090311.3426929,-9.743930358492332,0.18662246673515678,-0.20128397418099167,0.7139144658994854,0.06453110900927791,-0.6940866588316543,0.06637455371899602,-6.908335486308667e-59,0.019384597622403542,0.009071841794249053
1730090311.3506804,-9.738611854011413,0.1936157566524222,-0.2040886022820325,0.7139340432141432,0.0668561101337854,-0.6936086095336842,0.06881525454747904,-4.1450012917852e-59,0.01886748961829666,0.009274315629707715
1730090311.358693,-9.74260335630333,0.19541752894262518,-0.2028983371504695,0.7138843084222661,0.06745029457041803,-0.6935411292624392,0.06942876905294564,-2.48700077507112e-59,0.0181315347543705,0.009395799930982912
1730090311.3667383,-9.743801156848406,0.18931598733627822,-0.1993111360793442,0.7138390894065664,0.06546302574400563,-0.6939843093266905,0.06733591243905428,-1.4922004650426718e-59,0.01854134195893887,0.009894380573210064
1730090311.3746634,-9.744040996843419,0.19355592785098566,-0.20529910108120025,0.7139653226803249,0.06678268255388019,-0.6935905042616826,0.06874448137059491,-8.95320279025603e-60,0.018787226281679892,0.009342148835622292
1730090311.3826914,-9.747057942832614,0.20783148029457577,-0.21104666157645452,0.7139815680860273,0.07140193771646587,-0.6926142002350592,0.07360471015159911,-5.371921674153618e-60,0.018934756875324504,0.009010809793069627
1730090311.390736,-9.746473908765974,0.20801710595018297,-0.22072012219001333,0.7142424488572672,0.07129593719938385,-0.6923620059073358,0.07354907453670591,-3.223153004492171e-60,0.019448965292973304,0.009237696429000061
1730090311.3987086,-9.750193631148257,0.21052268300370355,-0.22293289606791425,0.7142739564165104,0.0720555538874728,-0.6921645189536229,0.0743571855355919,-1.9338918026953026e-60,0.01933180028210055,0.00937382841055832
1730090311.4067945,-9.753622565407703,0.20987124774167523,-0.20941651010168605,0.7139142472965211,0.07205928445349298,-0.6925431028227927,0.07428295742410247,-1.1603350816171815e-60,0.01883581121411487,0.009455507599493276
1730090311.4147847,-9.752088623473139,0.20995922691648952,-0.21184116582663662,0.7139786027591032,0.07205627014202341,-0.6924759106469506,0.07429375417257472,-6.962010489703089e-61,0.019389597896247522,0.00950451511285425
1730090311.4227834,-9.751886518810444,0.1978015859545812,-0.2109017576014507,0.7140759370849914,0.06805323273185945,-0.6932172624600933,0.0701009316505055,-4.177206293821853e-61,0.019296179844065082,0.010385299743794898
1730090311.430829,-9.753201777008924,0.205351051670405,-0.2144082554886048,0.7140959209810986,0.07048393405863386,-0.6926898672016749,0.07266208470654162,-2.506323776293112e-61,0.019665819074217647,0.010488080460897255
1730090311.4386845,-9.746090066449494,0.20054334462528986,-0.21459679289277225,0.7141526994069322,0.06893701573600618,-0.6929546130012854,0.07104585921392179,-1.503794265775867e-61,0.019887602612309187,0.010124058829696636
1730090311.4466856,-9.749484485426338,0.19861640106228332,-0.20178122637042897,0.7138228966513184,0.06848853007232378,-0.6933938605859241,0.07050636543321237,-9.022765594655201e-62,0.019169292612240048,0.009905645850976266
1730090311.4547067,-9.756070119966738,0.20847356256119812,-0.19409188645702302,0.7135269685796911,0.07183856226951782,-0.6929988687781555,0.07396657321197085,-5.4136593567931205e-62,0.019163996673660595,0.009774598063744044
1730090311.4627051,-9.754754257038638,0.20433221248789074,-0.21006841678632318,0.7139883539409371,0.07021175984017042,-0.6928607501958322,0.07235274739030993,-3.248195614075872e-62,0.019586509171974957,0.010121659452866742
1730090311.4706974,-9.749176335961463,0.20017146128179691,-0.2093592678452314,0.714012305243434,0.06888237480980199,-0.6931135709372496,0.07095931358273995,-1.948917368445523e-62,0.020265706732425608,0.009478516163416297
1730090311.4787135,-9.756603490785864,0.2000692122182969,-0.20414537516026385,0.7138700430786142,0.06888666719603292,-0.6932622172713928,0.07093438363383808,-1.1693504210673139e-62,0.020673225268696,0.008666940128284
1730090311.4867299,-9.755074279530112,0.20527510643254063,-0.2093967453598302,0.7139606691226826,0.07053277787066875,-0.69282191695335,0.07268480983550489,-7.016102526403883e-63,0.020917736390458234,0.009031374630128684
1730090311.4948034,-9.758945156096972,0.21558124794155561,-0.21781481113191373,0.7140743001774855,0.07375097907491779,-0.692002144219808,0.07610334622546802,-4.20966151584233e-63,0.021490133124977606,0.009250035331235494
1730090311.5027637,-9.75791579971287,0.20931508421415213,-0.2243021715912576,0.7143221489066955,0.07158221138161382,-0.6922162564685298,0.07386818581590529,-2.525796909505398e-63,0.021407881104227196,0.008955541690437548
1730090311.5108035,-9.75897412704452,0.20627364647575688,-0.20568909226139517,0.7138502694679671,0.07089982442282587,-0.6928600404387142,0.07304773809356753,-1.5154781457032388e-63,0.020932839830314916,0.008778845505958782
1730090311.518781,-9.751708257964992,0.20636414516084473,-0.19883080765175898,0.7136713228004765,0.0710922099484497,-0.693007315649493,0.07321202874628904,-9.092868874219433e-64,0.02064781506596755,0.008672827795271522
1730090311.5267973,-9.75261598016962,0.19995409988947557,-0.20094076120238352,0.7137871207593194,0.06892628536967209,-0.6933411528450982,0.07095885564670223,-5.4557213245316595e-64,0.020902490268821163,0.008609217168859165
1730090311.5348017,-9.77279306710568,0.19874169455282598,-0.20627687615502385,0.713933566170308,0.06830768131509804,-0.6933147427009653,0.07033911658668808,-3.273432794718996e-64,0.020629605329071297,0.008571050793011752
1730090311.5427094,-9.75832368083958,0.19585946985669556,-0.22049187276332682,0.7143571130312468,0.0672072109312711,-0.693093719084587,0.0692690582150343,-1.9640596768313975e-64,0.019614494242297314,0.008548150967503304
1730090311.5506537,-9.758021754890466,0.1984396980272986,-0.21704986242752733,0.7142362252277142,0.06812223707738298,-0.6930346723205344,0.07020625577260287,-1.1784358060988385e-64,0.01985680771315699,0.008960101133660267
1730090311.55867,-9.755206977494826,0.19304465011520727,-0.21235103439987577,0.7141587485141075,0.06642857512516043,-0.693458281147852,0.06841153875678523,-7.070614836593031e-65,0.020002195795672792,0.009207271233354445
1730090311.5667768,-9.752081590061348,0.1957931255183431,-0.19971551077664423,0.7137920218555958,0.06756570792846428,-0.6936146160039461,0.069531209633692,-4.242368901955818e-65,0.019663738583720246,0.009355573293170952
1730090311.57467,-9.763853307064153,0.21037089972506837,-0.19692259992301778,0.7135787136738877,0.07236671179283996,-0.6928298264339485,0.0745339521246301,-2.545421341173491e-65,0.019460664256548715,0.009018864467598824
1730090311.5827606,-9.7520021441506,0.19517554764754103,-0.19644395424092,0.7137103369950647,0.06741171880858722,-0.6937314755177558,0.06935311751911695,-1.5272528047040946e-65,0.01976450972170783,0.008816839172255547
1730090311.5907948,-9.754228832877079,0.2023389076900871,-0.19208662400939577,0.7135329990183181,0.06984885540473762,-0.6934159948968186,0.07187527204698456,-9.163516828224567e-66,0.019521126939341264,0.00869562399504958
1730090311.598809,-9.766578173749686,0.20089083973123978,-0.19497888968884058,0.7136168944557706,0.06924166655073624,-0.6934545851588835,0.07125487971149139,-5.49811009693474e-66,0.01937509726992133,0.008622894888726002
1730090311.606796,-9.770157055616998,0.2081622846004626,-0.20006613142072624,0.7136799415542404,0.07154306872459165,-0.6929015369772593,0.07368846853583082,-3.2988660581608436e-66,0.02013885959119343,0.009004947486393886
1730090311.6147857,-9.77421974606551,0.2007935633872307,-0.19880891347157637,0.7137154485972935,0.06909901295367525,-0.6933806681029818,0.07112548026870846,-1.979319634896506e-66,0.020171426922494656,0.009234179044994616
1730090311.6228354,-9.751757663068995,0.21672304477061965,-0.20643428851263332,0.7137622015386427,0.07437984140120933,-0.6921911663839596,0.07669777068373244,-1.1875917809379035e-66,0.020190967321275392,0.009371717980155054
1730090311.6307707,-9.756236925722256,0.20449349849323115,-0.19448952208218934,0.7135748099535721,0.07051261997396198,-0.6932321727430462,0.07258178626960313,-7.125550685627421e-67,0.019777001499081806,0.009028551279789285
1730090311.6387298,-9.763712886634526,0.19811345139086056,-0.19666004869853235,0.7136864761077324,0.06831127017870486,-0.6935734900506851,0.07029223347149603,-4.2753304113764524e-67,0.019528622005765654,0.008396961198107792
1730090311.646682,-9.749763110398684,0.20051034744584445,-0.18790671769568193,0.7134429430313285,0.06933490729544214,-0.6936178875171582,0.07131664451839977,-2.5651982468258713e-67,0.01895390424831393,0.008443697210560928
1730090311.6546364,-9.755758454618116,0.20218790524485042,-0.19917471054904975,0.7137186546101976,0.06967576255652616,-0.693257134850911,0.0717322462486851,-1.5391189480955227e-67,0.019034763655304925,0.00847173881803281
1730090311.6626654,-9.753848997331415,0.20032139793206652,-0.19995000211067987,0.7137570331249112,0.06905622875443626,-0.6933458497094747,0.07108915265767413,-9.234713688573136e-68,0.02036034948388562,0.008062873721053907
1730090311.6706693,-9.759167667441819,0.20997540101509926,-0.19945749638359542,0.713649583585316,0.07222579785567937,-0.6927858308959295,0.07440093065582017,-5.540828213143881e-68,0.020304320858109973,0.007817554662866566
1730090311.6787214,-9.758767567017825,0.20499389539421578,-0.20490807693171972,0.713842309922114,0.07049120711003845,-0.6929553164633102,0.07261594639239953,-3.3244969278863287e-68,0.01984501362118255,0.008096053289416191
1730090311.6868823,-9.751105481616944,0.2106241179982482,-0.21200914791684433,0.7139763227714465,0.07227901766036847,-0.6924298599650919,0.07452813667695375,-1.994698156731797e-68,0.019143739217564067,0.008263152465345968
1730090311.6948059,-9.763028221831494,0.2168752935528552,-0.20142574021495036,0.7136273646369785,0.07443904557955242,-0.6923202426088705,0.07673001113306938,-1.1968188940390783e-68,0.01914866463685501,0.008363411970903834
1730090311.7028675,-9.755098395501241,0.20769730992077562,-0.2151869895391265,0.7140917260245239,0.07123187201109199,-0.6925346545479103,0.07344916257737928,-7.180913364234469e-69,0.019151619888429575,0.008849257735700585
1730090311.7107828,-9.753931802193323,0.20865486422394974,-0.20452954601839776,0.7137972724111434,0.07173969771861059,-0.6927355758437329,0.07392084706025777,-4.3085480185406816e-69,0.019153393039374314,0.008289385071654573
1730090311.718787,-9.751555905046462,0.21425722029218233,-0.2074724663805699,0.7138165156100844,0.07355197975420058,-0.6923185690512541,0.07583592330379924,-2.5851288111244087e-69,0.01958014699140319,0.007953461473226965
1730090311.7267778,-9.755158190244673,0.21402733144288752,-0.1955912691349826,0.7135102759431652,0.07365485672353868,-0.6926188009909046,0.07587650966185149,-1.5510772866746452e-69,0.01898481923969645,0.009028977498556495
1730090311.7346926,-9.742475511070632,0.20191838983252935,-0.18870197095364577,0.7134534094044159,0.06983928229178651,-0.6935016189904781,0.0718485331497354,-9.306463720047871e-70,0.018627622588672406,0.009674287113754215
1730090311.7426767,-9.749231113527145,0.19393476436826762,-0.20037012300187496,0.713826761113477,0.06695442786681274,-0.693701434371699,0.06889687698233009,-5.583878232028722e-70,0.018838994659520013,0.009635782821410813
1730090311.7506757,-9.75448157583113,0.1992002360623668,-0.21694782087143746,0.7142273519463657,0.06839830258550764,-0.6929873436555384,0.07049470525042675,-3.350326939217233e-70,0.018965817902028576,0.009186990184542741
1730090311.7586718,-9.767208659854147,0.19589517459640443,-0.22761270009122186,0.7145532423342771,0.06704079846935689,-0.6929211523493987,0.06913372430980802,-2.0101961635303397e-70,0.019467601908995748,0.008492024540959866
1730090311.7668028,-9.758324918812878,0.19079967555862393,-0.22874438397074873,0.71464013183611,0.06538939457973944,-0.6931585749782344,0.06741586593603889,-1.2061176981182037e-70,0.01976867231317605,0.008500735216272173
1730090311.7746642,-9.75778307750843,0.19564324161447122,-0.21984658765783985,0.7143414199889653,0.06714994105210133,-0.6931217720063164,0.06920570984876846,-7.236706188709222e-71,0.01994931455568423,0.008505961621459557
1730090311.7826974,-9.758415653389823,0.19902822158001085,-0.21905689302439138,0.7142857892289096,0.0682801612866226,-0.6929501698629306,0.07038247627955665,-4.342023713225533e-71,0.02005769990118914,0.008509097464571987
1730090311.7907972,-9.735332022649128,0.2036928313855065,-0.21978017707440042,0.7142674073180012,0.06995881887301193,-0.692620306722626,0.07214530629617695,-2.6052142279353193e-71,0.02012273110849208,0.008510978970439445
1730090311.798801,-9.744466180142211,0.1995484124543508,-0.22835443314893714,0.7145468818037084,0.06837782894316403,-0.6926553881146978,0.07053892208769559,-1.5631285367611915e-71,0.02016174983287385,0.008086417812497889
1730090311.8068242,-9.748510153641966,0.19658292076362607,-0.21745783567061228,0.7142696943335369,0.06756027619080154,-0.6931140857924804,0.06962238802104095,-9.378771220567148e-72,0.019333780944578847,0.008257371179194985
1730090311.814783,-9.75045769740979,0.20390159205778505,-0.201582490709008,0.7137677566661713,0.0702395116656245,-0.6930870047098868,0.07233536097230045,-5.627262732340289e-72,0.019262689673063875,0.008359943199213243
1730090311.8227832,-9.74899260184431,0.20709569400420227,-0.19900046854649855,0.7136695044348441,0.07134976551962871,-0.6929540668829435,0.07348272307425158,-3.376357639404173e-72,0.019645724971616926,0.00884717647268623
1730090311.8307815,-9.749071225169088,0.19584404604119324,-0.206309801391571,0.7139702385808279,0.06749627479327049,-0.6934416162858174,0.06949443224302497,-2.0258145836425037e-72,0.019875546150748755,0.00871382637530799
1730090311.8386793,-9.761568247796763,0.20393710755635655,-0.2080617792724426,0.7139358772799641,0.07007043149001267,-0.692945796610443,0.07219294095138452,-1.2154887501855022e-72,0.019587748796765822,0.008633816316881046
1730090311.8466456,-9.76691167987923,0.20903236463147018,-0.20456398284666868,0.7137899998420507,0.07177664938545635,-0.6927352545842905,0.07395820295626926,-7.292932501113013e-73,0.019415070384376062,0.00858581028182488
1730090311.854646,-9.774187881950976,0.2096953172163821,-0.2089296494736262,0.7138960685964298,0.07187179896161762,-0.6926029119485403,0.07408140196422391,-4.375759500667808e-73,0.019737153398404237,0.008557006660791181
1730090311.862734,-9.778793023360038,0.21272671059350115,-0.21250673011386323,0.7139573102552078,0.07277493499592473,-0.6923414660452243,0.07504706765648798,-2.6254557004006848e-73,0.019504713145359114,0.008965414549632993
1730090311.8706946,-9.762402494924226,0.21526380711781945,-0.2041184911933179,0.7137145433403311,0.07386704177040244,-0.6923561472733809,0.07614575560957235,-1.5752734202404108e-73,0.018939558932070007,0.008359079160014018
1730090311.8786683,-9.768609328985786,0.2043362163995979,-0.19884612767497511,0.7136855371281314,0.0703085175277053,-0.6931589075121178,0.07239057531056221,-9.451640521442465e-74,0.019026156465558573,0.0075695878647806004
1730090311.8870325,-9.772094009256705,0.19370951914639936,-0.2043018355405319,0.7139258412749623,0.0666738087320598,-0.693653708998112,0.06862236065715507,-5.6709843128654785e-74,0.019078114985651713,0.00709589308764055
1730090311.8948376,-9.76532627127668,0.19882566876323024,-0.20661757959580354,0.7139447973967886,0.06837772817994775,-0.6932885680231625,0.07041501265639574,-3.402590587719287e-74,0.019109290097707596,0.007237366282818552
1730090311.9027421,-9.763420409982803,0.19255797205871938,-0.2005850008824821,0.7138388546116006,0.06640325037516934,-0.6937988918216678,0.06832126823644753,-2.0415543526315722e-74,0.018702305103479096,0.007322250199925353
1730090311.9108086,-9.754615447893979,0.19238865652624726,-0.20151443680878614,0.7138687475914992,0.06638735917409017,-0.6937707100221325,0.06831055313361802,-1.2249326115789432e-74,0.019309494229866057,0.007373180550189432
1730090311.9187894,-9.751008411802793,0.1946812688669202,-0.19441065305206856,0.7136610728792167,0.06728466419137083,-0.6938087885110833,0.06920991263050918,-7.349595669473659e-75,0.020099497767160267,0.00740373876034788
1730090311.9268425,-9.756026795128552,0.1895924917889021,-0.20020402977069424,0.7138561476068999,0.06546616934543548,-0.6939658221240357,0.06734254909625882,-4.409757401684195e-75,0.020573499889536793,0.008273453809367013
1730090311.9347436,-9.755925362965803,0.2042563178272475,-0.2079896187901509,0.7139328309948154,0.07021420890611385,-0.6929186688690624,0.07234359700860611,-2.645854441010517e-75,0.020432211101500675,0.009220972900240524
1730090311.9426775,-9.753470302007997,0.21808243693658289,-0.20739372854948115,0.7137715752145316,0.0747975236413436,-0.692087223396263,0.07714106613561891,-1.5875126646063101e-75,0.019921747767216974,0.0093637942933026
1730090311.9507635,-9.757025088919642,0.21225231860726224,-0.20655735407304807,0.7138122233721825,0.07287052146664189,-0.6924735210447759,0.07511604034752775,-9.52507598763786e-76,0.020041159828108786,0.009449487129139844
1730090311.9586723,-9.762270423224832,0.20516294511943547,-0.20030944540281323,0.7137181040131111,0.07060013135036534,-0.6930629026870243,0.07270421154429327,-5.715045592582716e-76,0.01968711700318184,0.00950090283064219
1730090311.9666812,-9.755601397001305,0.19923337986463002,-0.20087026318895354,0.7137907717772735,0.06866876005115494,-0.6933905042930868,0.07068906616174866,-3.42902735554963e-76,0.019474691308225673,0.009106062190081567
1730090311.9746718,-9.757346065251564,0.2009428843640905,-0.19067226655595024,0.7135078479960498,0.06938652786563386,-0.6935389929697294,0.07138435283261312,-2.057416413329778e-76,0.019772925952714,0.00844346774428316
1730090311.9826643,-9.757914025869688,0.20555988955400115,-0.1900601323945076,0.713450715086102,0.07092542089860161,-0.6932749779639572,0.07298949748121564,-1.2344498479978666e-76,0.01952617667794497,0.007620221015342086
1730090311.9907856,-9.753945239252282,0.20042922718943193,-0.18753807040350143,0.7134328708001295,0.06928615644948394,-0.6936385946282223,0.07126336666568613,-7.4066990879872e-77,0.01937812711308355,0.007551963039439473
1730090311.9987922,-9.757070631100197,0.2002238717628779,-0.1924891776913196,0.7135612222340527,0.0691210381614041,-0.6935380948912311,0.07111663055837383,-4.44401945279232e-77,0.01886360731270467,0.007936698315359935
1730090312.006805,-9.761818908201134,0.1945939946885861,-0.19689636306010427,0.7137236863600264,0.06714870756370689,-0.6937705044422764,0.06907993751508329,-2.6664116716753917e-77,0.018554895432477337,0.008593229542374245
1730090312.0147777,-9.756527588817166,0.19720157259440163,-0.21222994308020315,0.7141161274383133,0.06780258864787503,-0.6932261771803684,0.06984577851986608,-1.599847003005235e-77,0.017943978242878907,0.00898714827858283
1730090312.0227785,-9.762929603827407,0.19541423701367225,-0.21065618362155938,0.7140871556850038,0.06719512154184637,-0.6933797307893242,0.06920186888518143,-9.59908201803141e-78,0.018428808052043916,0.008797809458845951
1730090312.0307817,-9.747377779386289,0.1952995163292971,-0.20324758346395125,0.7138929481788643,0.06737513432023813,-0.6935472595022664,0.06935163049788477,-5.759449210818845e-78,0.018294015876080885,0.008258516105541791
1730090312.0386832,-9.748102331694273,0.1961883645827345,-0.19808416287133948,0.7137465739481574,0.06774837394634123,-0.6936252508533352,0.06971368146599412,-3.455669526491307e-78,0.0186388306319651,0.008360630155021326
1730090312.0467057,-9.762184012541955,0.19911587519495316,-0.20312639616030367,0.7138495833923276,0.06855096590417808,-0.6933529854145375,0.07057743960326672,-2.073401715894784e-78,0.018420029424033597,0.00884758864617108
1730090312.0546908,-9.772548382378687,0.2056607848825969,-0.21070071928797907,0.7139854052521931,0.07052287693060985,-0.6927979758880038,0.07267963622484927,-1.2440410295368703e-78,0.018288748699274694,0.008714073679398901
1730090312.0626683,-9.779245844612758,0.20815120969908935,-0.19728880071341245,0.7136051550483458,0.07152419838875662,-0.6929843282367963,0.07365251218708176,-7.464246177221222e-79,0.018635670325881384,0.009059654760797625
1730090312.070699,-9.778715338798904,0.21060314525304738,-0.19019933023273494,0.7134009708281116,0.07245173541835154,-0.6929984933841385,0.07458477742603487,-4.478547706332733e-79,0.0188438233018454,0.009267003409636859
1730090312.0786755,-9.767383707673874,0.20991952509128153,-0.19097347143065657,0.7134302944932254,0.0722905095874631,-0.6930027060817672,0.07442141147709154,-2.6871286237996398e-79,0.01896871508742381,0.008965722537478368
1730090312.08693,-9.763936611323073,0.1939470422032064,-0.19024085531933144,0.7135530208388327,0.06702110661655555,-0.6939750812394947,0.06891185919930844,-1.6122771742797838e-79,0.019043650158770853,0.008784954014183274
1730090312.094775,-9.764741395504782,0.19274325828090821,-0.20009635279120822,0.7138236503150311,0.06646430548427561,-0.6938026803658329,0.06838225694288536,-9.673663045678703e-80,0.01951430126304111,0.008676492900206216
1730090312.102792,-9.765942526511854,0.1968093912478418,-0.21582587808097495,0.7142149681351391,0.06755294260201448,-0.6931730822532189,0.06960357230130831,-5.804197827407222e-80,0.019796691925603266,0.008611416231819982
1730090312.1107888,-9.745354810340705,0.2061922558424551,-0.22981257640913183,0.7145154431029626,0.0705366236258696,-0.6922365496088776,0.07280676946847357,-3.4825186964443326e-80,0.019540436261678527,0.008572370230788242
1730090312.118784,-9.745212609104813,0.20248458812461367,-0.22288170478102592,0.7143620878800914,0.0694405047002777,-0.6926294053932267,0.07161934439236668,-2.0895112178665995e-80,0.019386682863323686,0.00897463269163123
1730090312.1267931,-9.741775406039059,0.2124704159607057,-0.21537129947994368,0.7140496726805446,0.07289020550723584,-0.6922186777078254,0.07518899599243074,-1.2537067307199597e-80,0.01972012088577281,0.009641680229599055
1730090312.13483,-9.763894520967185,0.20529380353150153,-0.22451200576218497,0.7143696909072496,0.07021657245232192,-0.6924581207581939,0.07243844740301308,-7.522240384319757e-81,0.019920183699242287,0.009190528629455685
1730090312.142689,-9.75370281365453,0.1969176932517134,-0.21587063973660786,0.7142202644032218,0.06766533536003601,-0.6931446850508701,0.06972275017622158,-4.513344230591855e-81,0.020040221387323972,0.008494147607907633
1730090312.1506748,-9.750221411093108,0.2031447748865749,-0.2011090134806366,0.7137625689110878,0.06999795789133618,-0.6931433645516342,0.07208021427914639,-2.7080065383551125e-81,0.02011224400017298,0.008502009056440833
1730090312.158673,-9.75555459470274,0.2020926205471793,-0.2006317435376007,0.7137580388588887,0.06962188211790052,-0.6932270058897021,0.07168384615708982,-1.6248039230130674e-81,0.02015545756788239,0.008932415987022784
1730090312.1666727,-9.760430446030629,0.19619408429119822,-0.20944334788037292,0.7140477980614874,0.06748960674980742,-0.6933615278069604,0.06950314252963939,-9.748823538078404e-82,0.020181385708508033,0.008764970083909923
1730090312.1746695,-9.758806973673064,0.20630191200050016,-0.2101813273317394,0.7139699317943035,0.07083390847503666,-0.6927481008939308,0.0730038534026805,-5.849294122847042e-82,0.01977125253142139,0.009090192603504238
1730090312.1826918,-9.754241587768291,0.2013532809893626,-0.2161307788209186,0.7141834227567685,0.06912627854734468,-0.6928829935325355,0.07125134066818772,-3.509576473708225e-82,0.019525172625169403,0.009285326115260829
1730090312.1907218,-9.75629075954574,0.20508786703111753,-0.21132074390387928,0.7140138944696699,0.07043001396920666,-0.6927876782856713,0.07258790844280896,-2.1057458842249348e-82,0.019803214742880243,0.00897671616085275
1730090312.198681,-9.746506934975491,0.20780745898820177,-0.21178660527787446,0.714001905087927,0.07138481137082232,-0.6925964535674495,0.07359103710476303,-1.2634475305349608e-82,0.019970040013506746,0.008791550188207903
1730090312.2066724,-9.760269093846622,0.21350935698471793,-0.2008133742995372,0.7136481375389627,0.07336100319832367,-0.6925384959970023,0.07559715972915415,-7.580685183209764e-83,0.019218755052958586,0.008680450604620995
1730090312.2146711,-9.76206204468688,0.20879021013809637,-0.1980601583687848,0.7136242602029875,0.07183796171254615,-0.6928965665141223,0.07398696249790325,-4.548411109925858e-83,0.01876798407662969,0.008188100793006818
1730090312.2226784,-9.761461874028925,0.20595872203012347,-0.20023895146658335,0.7137088440070563,0.07086994704914407,-0.6930152669572466,0.07298613810539084,-2.7290466659555146e-83,0.01849752149083235,0.008318380967500344
1730090312.230727,-9.748651923001338,0.20761171148955845,-0.1977155046690125,0.7136311329170367,0.07154404637735955,-0.6929527122192809,0.07367899420759856,-1.6374279995733087e-83,0.018335243939353946,0.00882223913365849
1730090312.2386956,-9.763950288322288,0.2004632195206882,-0.18518810895375123,0.7133695622478278,0.06926765119350611,-0.6937088974949855,0.07123079174604917,-9.824567997439852e-84,0.018237877408466906,0.009124554033353379
1730090312.2466412,-9.770735105854701,0.19808948566749102,-0.18533311683709452,0.7133906751338496,0.06843135219798835,-0.6938592795148317,0.0703576214747469,-5.894740798463911e-84,0.019030837612858745,0.009305942973170313
1730090312.2546356,-9.774805996374148,0.20169306884190086,-0.19044794505342857,0.7134899064039548,0.06952490047202592,-0.6935290054766802,0.0715259410043493,-3.5368444790783467e-84,0.019506613735493845,0.009414776337060473
1730090312.2627017,-9.770305345871362,0.2031369582484999,-0.19543220331135402,0.7136071606329178,0.06995502771608245,-0.6933157772334977,0.072002412666369,-2.122106687447008e-84,0.019366389347612874,0.009054386293932536
1730090312.27066,-9.768562636233755,0.19011692226355306,-0.18309986764110928,0.7133953117019618,0.06581720365602756,-0.6943794423022054,0.06761963511170348,-1.2732640124682049e-84,0.019282254714884293,0.008838152268055774
1730090312.2786725,-9.780445699416033,0.19523358963742868,-0.1838407518834937,0.7133720841736295,0.06743980737999652,-0.6940804525879659,0.06931426431554626,-7.639584074809229e-85,0.01880608387378511,0.009134101913991749
1730090312.2867196,-9.771055545870324,0.20644387570628536,-0.2067907780343931,0.7138736009575807,0.07085745266033266,-0.6928445134983399,0.07300810484867064,-4.5837504448855374e-85,0.018520381369125604,0.009311671701553333
1730090312.2946784,-9.763506092414772,0.19880483738666183,-0.2042802224358702,0.7138828412660033,0.0684205804586204,-0.69334485645086,0.07044730760518864,-2.750250266931322e-85,0.018348959866329898,0.009418213574090284
1730090312.3028667,-9.774538731132457,0.20403764120152834,-0.2010979479146471,0.7137454055774455,0.07013406659508363,-0.693132756258391,0.07221974052549697,-1.6501501601587933e-85,0.01867179702611451,0.009482138697612455
1730090312.3107872,-9.76511716324002,0.19568515552169827,-0.19847032270386636,0.7137549711896027,0.06746650185641505,-0.6936735756656583,0.0694196128814321,-9.900900960952759e-86,0.019291189383447305,0.009520493771725758
1730090312.3188055,-9.772632331635418,0.20384177324465957,-0.19330244508716357,0.7135448863733498,0.07020701645126019,-0.6933282081299503,0.07225417484663614,-5.940540576571655e-86,0.020088514859309015,0.009543506816193738
1730090312.3268092,-9.77642317217461,0.21112994553859263,-0.20336982764800124,0.713734150101096,0.07242404720197455,-0.692653554195679,0.0746282401403513,-3.5643243459429925e-86,0.02056691014482604,0.008705934519950463
1730090312.3347983,-9.76696608836336,0.2255584958876087,-0.20749489585637887,0.7136838700275401,0.07714832770284984,-0.6916402013633344,0.07960716709727335,-2.1385946075657956e-86,0.020002567193212195,0.008203391142204499
1730090312.3426828,-9.770150384219187,0.21530143298178397,-0.2068574746232023,0.7137831356806813,0.07377843900553292,-0.6923034813566308,0.07606751512472484,-1.2831567645394774e-86,0.019238271360781854,0.007901865115556921
1730090312.3506591,-9.761047634095965,0.2077106742421954,-0.19546169424657764,0.7135679866925636,0.07153040413258453,-0.6930221154396295,0.07365104998390216,-7.698940587236864e-87,0.01920538392278568,0.008146639561030405
1730090312.3586745,-9.765402210828672,0.20842346265078598,-0.18646944452646222,0.7133315223737943,0.07188041584388345,-0.6931955135994734,0.0739684049548034,-4.619364352342118e-87,0.01961134152145001,0.008293504228314496
1730090312.36664,-9.76729669637025,0.20765403486586223,-0.20022770797564293,0.7136900822705542,0.07139167902511326,-0.692923407020587,0.0735312629947747,-2.7716186114052704e-87,0.019429226019186577,0.007955932967222919
1730090312.3746693,-9.759335421386602,0.2138961428433455,-0.2020183215627295,0.7136755505511811,0.07347425201783324,-0.6924845269723929,0.07572266991931481,-1.6629711668431622e-87,0.018894266656366482,0.007753390210567972
1730090312.3826613,-9.761501841210867,0.20782518082319482,-0.19734660573060647,0.7136154107331617,0.07153447373815534,-0.6929713223920245,0.07366553450152097,-9.977827001058973e-88,0.01899898110013646,0.008057554618037036
1730090312.3908343,-9.761125751943316,0.2068162254372763,-0.19071285357508264,0.7134547949269151,0.07131002862788191,-0.6931885229882642,0.07339487046267684,-5.986696200635384e-88,0.019061809766398444,0.008240053262518475
1730090312.3988636,-9.76233661937888,0.21052041519400638,-0.1922392661001277,0.7134580326727213,0.07250299880210383,-0.6929272325899262,0.07465119633829453,-3.59201772038123e-88,0.019099506966155637,0.009200932572131401
1730090312.406818,-9.764499660836313,0.20388438290546634,-0.19004265145695165,0.7134634069506571,0.07032612400447677,-0.6933887213149794,0.07236217505054542,-2.155210632228738e-88,0.01912212528600995,0.009351770096437124
1730090312.4147818,-9.765558065544756,0.2037334861885923,-0.19087946416518659,0.7134858431664672,0.07025597266075866,-0.6933799433625016,0.07229318120777438,-1.293126379337243e-88,0.01913569627792254,0.009016582549558528
1730090312.4228349,-9.764038326875681,0.21393801529713977,-0.20167661892879946,0.7136648269806471,0.07346160786731791,-0.692498637779814,0.0757069585529195,-7.758758276023457e-89,0.019143838873070092,0.00881547002143137
1730090312.430829,-9.755225618195722,0.20521668246929947,-0.20384534879868593,0.713813171458492,0.07060604002062566,-0.6929616163056732,0.07273061041957656,-4.655254965614074e-89,0.019148724430158623,0.009120492566017106
1730090312.438673,-9.760951320624464,0.19974446260657966,-0.19796398174014906,0.7137073195172313,0.06885037245215882,-0.6934406817867627,0.07086260737396981,-2.7931529793684444e-89,0.019577345825873775,0.009729196154230579
1730090312.4466827,-9.766062683243819,0.19574287019090095,-0.1951534220030738,0.7136663463485501,0.06753121160490004,-0.6937534581300644,0.06946956802271435,-1.6758917876210666e-89,0.019834518663302866,0.009668728245696631
1730090312.4546854,-9.748778786704104,0.20315814154813433,-0.1958612878209849,0.7136252317022794,0.07009692530589098,-0.6932669413180365,0.07215537274564171,-1.00553507257264e-89,0.01956313230429829,0.00920675743911423
1730090312.4626615,-9.759238003223635,0.19348151456755247,-0.18742746116915343,0.7134851074577359,0.06693743743798669,-0.694063028783865,0.06881055864201603,-6.03321043543584e-90,0.01897461042743351,0.008503884893702759
1730090312.4706554,-9.750908903008398,0.19054858037139086,-0.18452194667219518,0.7134349956849912,0.06605168985742128,-0.6942916903649232,0.06787289509924473,-3.619926261261504e-90,0.019047187362776677,0.008082161366455877
1730090312.4786704,-9.75069984619957,0.19692910549822515,-0.1825392178080046,0.7133352122369099,0.06821547114050434,-0.6939616188930647,0.07011986867727729,-2.1719557567569024e-90,0.019090733523982575,0.008254817311569778
1730090312.486927,-9.741955286137712,0.2065035045587007,-0.19236290812620901,0.713505716101067,0.07130871020601012,-0.6931352363033768,0.07340439451777274,-1.3031734540541415e-90,0.019116861220706112,0.008358410878638119
1730090312.4947944,-9.743172894583017,0.19453105170982976,-0.20400320630150665,0.7139218333318663,0.06713374346475431,-0.6935656397034106,0.06910412291082377,-7.819040724324849e-91,0.019132537838740235,0.009271947141803188
1730090312.5028784,-9.75324084612481,0.1974032269731635,-0.20811434321449776,0.7140032271859688,0.06795843860588181,-0.6933130125385042,0.069986490375333,-4.691424434594909e-91,0.01956763387102274,0.009820068899702229
1730090312.510794,-9.756887415389729,0.20319667495342933,-0.20196189938572992,0.7137823027305624,0.0699574153356511,-0.6931311374816416,0.0720417281970426,-2.8148546607569453e-91,0.019828691490392243,0.00887187177005556
1730090312.518771,-9.757878256118603,0.2042785420814326,-0.2040165170728442,0.7138259620832228,0.07027524230512522,-0.6930182269142775,0.07238524255335735,-1.6889127964541672e-91,0.019985326062013947,0.007877263430805526
1730090312.5267894,-9.759430441219989,0.2159409899949533,-0.20716464901323778,0.7137875403064268,0.07405691296951465,-0.6922367335191724,0.07636246271194581,-1.0133476778725003e-91,0.019653616743524935,0.008131878550179567
1730090312.534797,-9.760122332114806,0.21455875293251883,-0.2061804861852864,0.7137766312092486,0.07361501585842813,-0.6923466706594049,0.07589359529352491,-6.080086067235001e-92,0.01945459115243153,0.008710337683266026
1730090312.5426948,-9.75766442465951,0.22043317534349569,-0.21205433297093745,0.7138655099582842,0.07545505073870323,-0.6918387061387076,0.07785739334409714,-3.648051640341001e-92,0.018909485736313455,0.008631723101655869
1730090312.5506804,-9.763611705332815,0.21916942546976928,-0.20241053191146874,0.7136274460803476,0.07517133250123038,-0.6921548733288239,0.07750335668853219,-2.1888309842046002e-92,0.01858242248664261,0.009010244414151805
1730090312.5588162,-9.76215225025047,0.20763726807483032,-0.1932723689515687,0.7135121233749125,0.07153409549554306,-0.6930801130380443,0.07364292151883893,-1.3132985905227602e-92,0.018811874598302136,0.0096630472631114
1730090312.5666976,-9.745235426078017,0.1976055114796638,-0.19209903416390997,0.7135777023626786,0.06833220460158239,-0.6936833702530318,0.07029192229184841,-7.879791543136561e-93,0.018949545865297852,0.009629038911025125
1730090312.5747771,-9.739873734894857,0.18799515503232953,-0.1978593777737366,0.7138120439333868,0.0650675437975577,-0.6940898905418934,0.06691639953954417,-4.727874925881936e-93,0.01860645856403325,0.009182943838311327
1730090312.5826566,-9.743599904999414,0.1958758906268196,-0.19820312178142946,0.7137541065293678,0.06767113067147966,-0.693633028646532,0.06963415151164537,-2.836724955529162e-93,0.01925198630619855,0.00891528679468305
1730090312.590674,-9.744159665900039,0.19821013032335735,-0.19864878835206082,0.7137451386844701,0.06843786655233366,-0.6934859327193665,0.07043718156202552,-1.7020349733174971e-93,0.0192136128900357,0.008754692568506082
1730090312.598748,-9.754311749247055,0.20008951447331128,-0.19724024713233024,0.7136874776530276,0.06901954514880028,-0.6934265245566966,0.07103619971488273,-1.0212209839904982e-93,0.018339208717413923,0.009084026094261934
1730090312.60675,-9.751544453112684,0.18972497699453364,-0.19878932406064811,0.7138186202744558,0.06555981428143423,-0.6939867711510911,0.06743329717683388,-6.127325903942989e-94,0.01781456621384086,0.009281626209715444
1730090312.6146662,-9.756827260246517,0.19475900231000143,-0.1982822492215451,0.713760981483708,0.0672137217049736,-0.6937182962400936,0.0691556388714749,-3.676395542365793e-94,0.017925470773159053,0.009825876340449582
1730090312.6226702,-9.752335499214317,0.1882026108586571,-0.2015693068083177,0.7139060367370282,0.06500370907493577,-0.6940038764022328,0.06686784021937905,-2.2058373254194757e-94,0.018843393631674032,0.010152426418890066
1730090312.6306717,-9.755386526579372,0.1897754398062099,-0.19923197837209997,0.7138286434020034,0.06554612453786586,-0.6939789569483842,0.06742092204764578,-1.3235023952516855e-94,0.020245527469707085,0.009922666404492325
1730090312.6386876,-9.764160327812858,0.19646522115911652,-0.19806900147638495,0.713737918155835,0.06773832347212731,-0.693636375831228,0.06970137619501998,-7.941014371510112e-95,0.020661117711064884,0.00978481039585368
1730090312.646683,-9.766312146394744,0.20047908997086056,-0.20311729932333097,0.7138352210413822,0.06897658273641766,-0.6932801967998019,0.07102166542707158,-4.7646086229060673e-95,0.020484781794417532,0.008850716667746429
1730090312.6546412,-9.767603237543879,0.20049320959775072,-0.2073433788615767,0.7139477680914739,0.068903670069747,-0.6931770072793461,0.07096833989443396,-2.8587651737436403e-95,0.02080467030589115,0.008290260430882079
1730090312.6627033,-9.766462530905233,0.19714979904966604,-0.21801931222905538,0.7142721667152265,0.0676253583059173,-0.6930982665447295,0.06969128842705574,-1.715259104246184e-95,0.02057091335131329,0.007953986688763468
1730090312.6706502,-9.757158980945484,0.20136867703722147,-0.22107298992532387,0.7143184792693276,0.0690268705032711,-0.6927615376765421,0.07117480761415983,-1.0291554625477104e-95,0.019579279055642513,0.0077522224434923015
1730090312.6786604,-9.760914237444243,0.2034211634977235,-0.21500433106456932,0.7141290162598986,0.06978591049529562,-0.6928023920788259,0.07193413905698019,-6.174932775286262e-96,0.019835678601164107,0.007631163896329602
1730090312.686693,-9.753111744370843,0.20225845371386847,-0.2230947238828822,0.714367090040226,0.06931111821199375,-0.6926511716103951,0.07148415227454011,-3.704959665171757e-96,0.0204152083899391,0.007558528768031982
1730090312.6948256,-9.752739811515083,0.20275792867363357,-0.21693563193715118,0.7141918372098183,0.06958646783395511,-0.6927780965852551,0.07173738250709596,-2.2229757991030543e-96,0.019485856078817997,0.007089257629591379
1730090312.7028704,-9.765924181098503,0.20425471447957075,-0.2151555380978376,0.7141226805660977,0.07002584189757557,-0.6927585794144754,0.07218538089713843,-1.3337854794618326e-96,0.018928244692145334,0.00765907506945108
1730090312.7107842,-9.76042727355168,0.19653365998657057,-0.20594719614971818,0.713949713336235,0.06765931699131522,-0.693430101238048,0.06966145525588048,-8.002712876770996e-97,0.01859367786014174,0.008000965533366901
1730090312.718787,-9.760959851679836,0.20147783393139546,-0.20401349347108091,0.7138516738752235,0.06932763767080917,-0.6931899840323886,0.07139406416294926,-4.801627726062597e-97,0.01839293776093958,0.009057479934640457
1730090312.7267926,-9.763194759884854,0.1996559349779779,-0.19998022987171105,0.7137605849080748,0.06877431226284111,-0.6934004407901966,0.07079371523247821,-2.8809766356375584e-97,0.019123873824342347,0.00969138857540459
1730090312.7347643,-9.75495889816724,0.19281671162155237,-0.2004333137042766,0.7138358409253496,0.06654478332513614,-0.693773861151153,0.06846907043352042,-1.728585981382535e-97,0.01956243546238401,0.009646043698401038
1730090312.7426918,-9.759833607943314,0.1975717237502752,-0.18681879437490972,0.7134364270867929,0.068307111729194,-0.6938367338026563,0.07023667004427485,-1.0371515888295211e-97,0.018974192322284943,0.008767456649274844
1730090312.7506757,-9.75150568600622,0.21766298298063386,-0.19517007423236768,0.713462654569172,0.07488541539147467,-0.6923936112432375,0.0771641251249897,-6.222909532977126e-98,0.018621246438225502,0.008240304419799128
1730090312.7586625,-9.752015596662327,0.22468991503252092,-0.19299823716637374,0.7133315387056315,0.07722821608250723,-0.6919943983760596,0.0796094915492191,-3.7337457197862753e-98,0.018835168969251873,0.007924013082113698
1730090312.7666807,-9.749448501063801,0.22411767094334067,-0.2051026642236524,0.7136441468124565,0.07684584183548446,-0.6917526938096366,0.07927773281336994,-2.240247431871765e-98,0.018963522487867694,0.007308548218040408
1730090312.7746856,-9.752217806692967,0.20893027419686377,-0.20973169863184768,0.7139330303143124,0.07175290860265397,-0.6925896767791915,0.07396409907635765,-1.344148459123059e-98,0.018614844537575153,0.007364959361058467
1730090312.7827053,-9.7543582304025,0.21633782760405576,-0.21538216126895232,0.7140020287805078,0.07407498943081949,-0.6920061622955527,0.07642951120558206,-8.064890754738354e-99,0.01883132782886166,0.008250186169793365
1730090312.7907412,-9.771683635751266,0.21479685549798036,-0.20584374988637139,0.7137616301311462,0.07361984869843256,-0.6923614278797341,0.07589536490777649,-4.8389344528430124e-99,0.018961217803633565,0.008781322255034304
1730090312.798705,-9.765558887505447,0.2129145915702726,-0.20610620720721345,0.713790572522709,0.07303829014635538,-0.6924594646273229,0.07528822350302472,-2.9033606717058073e-99,0.01903915178849671,0.008674313844716834
1730090312.8067129,-9.760208097395846,0.21178523321364792,-0.21416454707823435,0.7140183028002404,0.07256171455768669,-0.6923238481706115,0.07483548690928113,-1.7420164030234843e-99,0.019085912179414594,0.008610108798526353
