Time,Accel_x,Accel_y,Accel_z,Orientation_x,Orientation_y,Orientation_z,Orientation_w,Gyro_x,Gyro_y,Gyro_z
1730090045.9148974,-2.2741010421059484,-0.02211394635376802,9.636774942363239,-0.0011393596205174364,0.11561149004081761,0.00013261238226837383,0.9932938475819495,-6.646409945160775e-07,0.022431886806177817,0.004764596982252782
1730090045.9229727,-2.281439861103413,-0.026675897109135812,9.64032094075974,-0.00137384136475651,0.11592856767109588,0.00016034875901079239,0.993256590235327,-3.987845967096465e-07,0.022398623374409354,0.006264278681047922
1730090045.9311998,-2.2858431525018914,-0.02965248772837211,9.64364564062772,-0.0015265789119398364,0.11610478819713461,0.00017845019752448044,0.9932357806030002,-0.0017029995166061521,0.022378665315348274,0.007589777761787038
1730090045.9388902,-2.296385992819494,-0.029044240439757642,9.630556990089522,-0.0014971745661445399,0.11677078556925896,0.00017603069672435763,0.9931577473488542,-0.0031502500172738493,0.02279238054137366,0.00923645733315457
1730090045.9470282,-2.29864155418779,-0.04232624152947958,9.63060466524512,-0.0021817875853735033,0.116879547437899,0.0002567668241803568,0.993143667987891,-0.004018600317674467,0.022189229554064827,0.011075845198899153
1730090045.9550254,-2.2990372103447054,-0.058435727827844,9.622014144361914,-0.0030148073222973494,0.11699772773399437,0.0003551664726051997,0.9931275429161495,-0.004539610497914839,0.021401648900217497,0.012605167979807933
1730090045.9632304,-2.302865906529089,-0.06905910027092516,9.623803016646447,-0.003562132132337557,0.11716269429537295,0.0004202460664436732,0.9931062569903406,-0.004852216606059062,0.020077720384985034,0.013097071586891171
1730090045.9709337,-2.2994170402553435,-0.06346211543599259,9.62176387785896,-0.003274196447783107,0.1170187219284889,0.00038579491820283317,0.9931242366985741,-0.004614090209483564,0.01970905333730759,0.012540833628217049
1730090045.9790142,-2.2827430903641437,-0.07566623532604867,9.622455755914595,-0.0039039314753823644,0.11619504932275941,0.00045671465813631497,0.9932186371809775,-0.004896904433000296,0.019913543170163153,0.012207090853012578
1730090045.9869385,-2.2772877035837205,-0.06431393431086357,9.608026832455007,-0.00332326427260024,0.11609679092522347,0.00038844923739592954,0.9932322689877878,-0.0046409029056483034,0.020461927131338525,0.012006845187889893
1730090045.9950142,-2.2804788159978884,-0.07402254515683064,9.618523091660505,-0.0038207224598877667,0.11613015739342897,0.0004467269813738336,0.9932265547490492,-0.002784541743388982,0.02121664756950578,0.011886697788816283
1730090046.0029278,-2.292688550585061,-0.07505930834409838,9.6370312756506,-0.0038666116483322553,0.11651157669430628,0.0004535977838181347,0.9931817034458591,-0.0016707250460333892,0.020392409648020037,0.011388919287910085
1730090046.0108876,-2.295225988017052,-0.07592078642247466,9.648615026376687,-0.003906297840193818,0.11650085114949174,0.00045821073552706505,0.9931828042014972,-0.0010024350276200335,0.018620796710742495,0.010664562125904335
1730090046.0189743,-2.2716093330446063,-0.06949448845504728,9.643115428179527,-0.0035781796175028456,0.11541365502512484,0.0004157517579272353,0.9933109845435327,-0.0006014610165720201,0.017983519009838002,0.010229947828700885
1730090046.027008,-2.269889188693951,-0.0812010204656065,9.63718204743506,-0.004183486290189365,0.11539658155866547,0.0004860111538110252,0.9933105713724144,-0.00036087660994321203,0.018452532512219372,0.009117799127454753
1730090046.034892,-2.277955068392152,-0.08223943552155139,9.625002893011816,-0.004242066608379088,0.11593084061970108,0.0004951294092016473,0.9932481059186409,-0.00021652596596592722,0.01915963067511022,0.009301890029631136
1730090046.0429244,-2.281118655048963,-0.06011756878363395,9.637327853971152,-0.003097047159825156,0.11594526641195872,0.00036152801547820147,0.9932507099383537,-0.00012991557957955634,0.020009579634306766,0.011115104816785093
1730090046.0512516,-2.293072454015706,-0.03966184376041475,9.646159351542847,-0.002041264990188461,0.11642755356667941,0.00023928734635783873,0.9931970603809114,-7.79493477477338e-05,0.020945239071286724,0.012203033689077467
1730090046.0589452,-2.2880343049289547,-0.03600753472304572,9.639487241785083,-0.00185451281606595,0.1162594191141385,0.0002170769884052561,0.9932171268796361,-4.676960864864028e-05,0.021080944672012665,0.012430100950990858
1730090046.0668948,-2.283814314646826,-0.0386033526209368,9.645539622903081,-0.0019870246163996436,0.11598353418326622,0.0002320285339212296,0.9932491216680196,-2.806176518918417e-05,0.020310987909524167,0.011714961185214832
1730090046.0748942,-2.2808034801455173,-0.036330120703421453,9.64198844659341,-0.0018707291382369824,0.11587782054720276,0.00021824662896660047,0.9932616893075714,-1.6837059113510502e-05,0.019423323790569037,0.010434497202825152
1730090046.0829017,-2.285461323927154,-0.032571979892755995,9.641294261803703,-0.0016772871428495488,0.11611321059965055,0.00019608177678253537,0.9932345496326729,-1.0102235468106301e-05,0.01846503525773393,0.009240528751929312
1730090046.0910058,-2.2904108116902764,-0.031753616402450474,9.643271952590034,-0.0016347668150723225,0.1163316972051846,0.00019147549768973857,0.9932090550835485,-6.06134128086378e-06,0.01789006213803286,0.008098457619929778
1730090046.0990074,-2.2943381850122124,-0.023840573161782782,9.638712483077457,-0.001227926558550213,0.11657635279955492,0.00014413002768399314,0.9931809630630541,-3.636804768518268e-06,0.018822148450598316,0.006987524879268025
1730090046.1072843,-2.3108203988002964,-0.025796511865819667,9.630470137551553,-0.0013296572624009614,0.11747590495657412,0.00015729196368797688,0.9930748305266007,-2.1820828611109607e-06,0.020658470422523684,0.006746655296333005
1730090046.1158614,-2.302274374289943,-0.030561377578476177,9.634383276378587,-0.0015747066140448342,0.11701336178049951,0.00018553652231019494,0.9931290747129018,-1.3092497166665764e-06,0.021334573544216875,0.005750753423647928
1730090046.1229897,-2.3079206670544345,-0.02528001136153883,9.630745655524416,-0.0013030209735805155,0.11733132745571931,0.00015394866429495427,0.993091958498119,-7.855498299999459e-07,0.020037475171384662,0.005153212300036883
1730090046.1310244,-2.3077171402228953,-0.029533216777860794,9.63383032666426,-0.0015217660454451601,0.11728519695574506,0.00017972122944008372,0.9930970921835562,-4.7132989799996747e-07,0.018833526086223303,0.005220377687332288
1730090046.139007,-2.3236361752470183,-0.0332822408577321,9.63592054951418,-0.0017144091855504121,0.11803611260618714,0.0002037871154825606,0.9930078022819234,-2.827979387999805e-07,0.017259776512202424,0.005686366981171562
1730090046.146999,-2.3228925291228206,-0.05133338626268614,9.639568884884289,-0.0026432552063293353,0.11795591670141459,0.000313980662692406,0.9930152649044155,-1.6967876327998828e-07,0.015464146644865834,0.006391650618937159
1730090046.1550245,-2.3186156187920517,-0.056896829853314804,9.638406003782135,-0.0029301452136575165,0.11776085295624733,0.0003474756642092498,0.9930376000034977,-0.0017028620531060943,0.014386768724463879,0.007240510863058548
1730090046.1629937,-2.312937010435387,-0.0631079379998795,9.63914479611694,-0.0032498693497200744,0.1174750824128453,0.00038444268899580185,0.9930704383703726,-0.0031501675391738147,0.01459172209514677,0.008175517070993413
1730090046.17102,-2.315036509239748,-0.05175113242883395,9.639827491683834,-0.002664821772127831,0.11757035008839786,0.0003154932582731603,0.9930609306427367,-0.003592860769352415,0.014714694117556503,0.0083108307342923
1730090046.1790206,-2.3057617212176766,-0.04972545240651912,9.640476529189987,-0.002560489040082361,0.11711116056026641,0.0003019405631602201,0.993115465995772,-0.002155716461611449,0.014362787269540312,0.007114948747885538
1730090046.1869986,-2.292535403091934,-0.050904246053286466,9.637035229037428,-0.0026223186789165985,0.116506370305062,0.0003076127706981301,0.993186434914145,-0.0012934298769668694,0.013300263037806535,0.004268969248731322
1730090046.1950054,-2.2774170072360196,-0.056639345727675004,9.639998272432223,-0.0029171332044692026,0.11573413704939939,0.00033989740320163064,0.9932758853032996,-0.0007760579261801216,0.01266274849876627,0.002561381549238793
1730090046.2029428,-2.2834294401814557,-0.05050359889168312,9.637227115314802,-0.002601770835094411,0.11605998669948696,0.00030401702310123643,0.9932387516853569,-0.0004656347557080729,0.012705929836804141,0.0015368289295432758
1730090046.2109969,-2.285121538620592,-0.05951141958891612,9.633170219384192,-0.003067052910244234,0.116188740411077,0.00035878875822634013,0.9932223522750382,-0.00027938085342484373,0.012731838639626864,0.0009220973577259654
1730090046.2189746,-2.266983184402824,-0.07257755731975593,9.632890863319968,-0.0037409319731959113,0.11530499125751216,0.0004342476011135543,0.993322996737767,-0.00016762851205490622,0.012747383921320497,0.0022560186604837053
1730090046.2269993,-2.2766903061495065,-0.07036159298560354,9.63727223283573,-0.003624880845833625,0.11572878628448591,0.0004223436824951381,0.9932741463915122,-0.00010057710723294373,0.011905330967412614,0.004333441626524445
1730090046.2350206,-2.271980091892829,-0.0764540395315965,9.629605987406517,-0.003941940646123476,0.11558648090311502,0.0004587132458430006,0.9932894926045147,-6.034626433976623e-05,0.010974409133605853,0.0064312755290729514
1730090046.2431219,-2.2734635263271037,-0.07101154115059852,9.623569719152895,-0.0036635719961528156,0.11572920840698306,0.00042685332242589294,0.9932739533270584,-3.620775860385974e-05,0.010841546094783827,0.00896704605498815
1730090046.2510126,-2.2774660491458714,-0.06104227747356224,9.617553756540564,-0.003151129522172759,0.11599542751494875,0.0003680025910828768,0.9932446807068496,-2.1724655162315842e-05,0.010761828271490612,0.011339888493461334
1730090046.258997,-2.2753185796828355,-0.05721550076148108,9.63405547291848,-0.002948636455945282,0.11570017729852168,0.0003434659386170062,0.9932797473759799,-1.3034793097389506e-05,0.010288307516052652,0.012763593956545242
1730090046.266994,-2.271875316510873,-0.053961754070169905,9.640125780088978,-0.0027792862851389053,0.11546245088821427,0.00032306518922155865,0.9933079047463155,-7.820875858433702e-06,0.010855575185713938,0.013192127172933558
1730090046.2750003,-2.2640632746233202,-0.054882548047570694,9.631318115758464,-0.0028293919809458195,0.115182094168386,0.00032808020595355804,0.9933403103103093,-4.692525515060221e-06,0.011621625848972743,0.01259786697984248
1730090046.283023,-2.2656009738071954,-0.046576478291433035,9.636328584298829,-0.0023999387330181704,0.11520030588426854,0.00027832752001140826,0.9933393440068908,-2.8155153090361327e-06,0.012932636369852087,0.010538550618139709
1730090046.290921,-2.2619746101632234,-0.036325592785406695,9.645080949407422,-0.0018701138981825568,0.11492353612068812,0.00021635397580163903,0.9933725568539137,-1.6893091854216795e-06,0.013719242682379694,0.008451580678193984
1730090046.2989256,-2.2602776323088714,-0.03783650679429089,9.647698746646405,-0.0019473960196907732,0.11481067834024446,0.00022507059728026676,0.993385456472472,-1.0135855112530077e-06,0.013339826346972195,0.00507094840691639
1730090046.3070807,-2.248724958291573,-0.03156045021915265,9.650945366151905,-0.0016239499367193277,0.11421007637794726,0.00018669330235172526,0.9934552764900679,-6.081513067518046e-07,0.013112176545727695,0.0030425690441498337
1730090046.3150027,-2.237962631224944,-0.017020908803366593,9.632782043909893,-0.0008775022575780291,0.11389114986180528,0.00010059432434768514,0.9934928413701458,-3.648907840510827e-07,0.012975586664980996,0.0018255414264899002
1730090046.3229663,-2.220731327514263,-0.018831671258582455,9.637925201687732,-0.0009704414659084591,0.11298961262494003,0.00011035656304188974,0.9935956891531164,-2.1893447043064963e-07,0.013745012859457041,0.0036494652246661296
1730090046.3310072,-2.2202087720944954,-0.0259036328821026,9.647475440836857,-0.0013335748039685843,0.1128562156808377,0.0001514700351159086,0.9936104232631977,-1.3136068225838977e-07,0.014632358637604696,0.00559519962649593
1730090046.3390155,-2.209121331371932,-0.03996303666285531,9.654163264990395,-0.002056101271684855,0.11223826207487794,0.00023224119068582114,0.9936791690671597,-0.002554219185181545,0.016016146227417354,0.008891090574903969
1730090046.3470187,-2.223059001215737,-0.03139984714419756,9.637106984873144,-0.0016182194297371956,0.1131123108023562,0.00018422309036820116,0.9935808736950814,-0.004086671879881117,0.01684641878130495,0.010868625143948794
1730090046.35502,-2.2323792837860825,-0.024585992270893534,9.638125964605527,-0.0012668618197855374,0.11355712005128611,0.00014479792808144425,0.99353065105227,-0.00500614349670086,0.017344582313637506,0.012055145885375687
1730090046.3630004,-2.2307888483478213,-0.03677825063597362,9.644004596097298,-0.00189397390868125,0.11341223927189456,0.00021619510440230017,0.9935461892161052,-0.005132136405330674,0.01721779037157501,0.012341368268769791
1730090046.371024,-2.2362989315672865,-0.03738984100658417,9.64010974984588,-0.0019261741817516802,0.11372574391938191,0.00022048648507700416,0.9935102900366531,-0.0030792818431984044,0.01714171520633751,0.012087411637344222
1730090046.3789976,-2.2475058469774813,-0.043502879213325504,9.631308497612606,-0.002242961652316813,0.11437357838893157,0.0002582307719864422,0.9934352455023958,-0.0018475691059190425,0.018373140291581106,0.010657967474102786
1730090046.387265,-2.2489627525712543,-0.053156206287760924,9.637280494075375,-0.002738967341747995,0.11437597921504282,0.00031534270373680096,0.9934337089083902,-0.0011085414635514255,0.020389065527113358,0.008097540730309797
1730090046.3950236,-2.2495974757615027,-0.052962698382031555,9.644694414609287,-0.002726916608337128,0.1143224959289202,0.00031380651537720947,0.9934398987235534,-0.0006651248781308553,0.02202431072989474,0.0048585244381858786
1730090046.4029908,-2.24183802403112,-0.05260717347257831,9.651776388755806,-0.0027067744283434544,0.11386306840904949,0.00031022033339535564,0.9934927170281697,-0.00039907492687851314,0.02300545785156357,0.0029151146629115272
1730090046.410932,-2.237661193324922,-0.05430921985503135,9.656025573243719,-0.0027932020396970875,0.11361085668980815,0.0003194074060174036,0.993521348156889,-0.0002394449561271079,0.02359414612456487,0.0017490687977469164
1730090046.4190028,-2.233479153739094,-0.04120465788958131,9.652350159620058,-0.002120074176554018,0.11344910674750525,0.00024208401697236608,0.9935415174309566,-0.00014366697367626473,0.02437304914982768,0.0027522015244962764
1730090046.4270048,-2.2285757283274408,-0.044834088679061294,9.639849844307191,-0.002309832357970049,0.11335050479162692,0.0002635197487104253,0.993552343007304,-8.620018420575884e-05,0.025266081026447396,0.004205461283469956
1730090046.4350023,-2.2347316393890426,-0.052039570639077395,9.639292839933924,-0.0026811042744275156,0.11365739358098846,0.0003067159663106578,0.9935163383103278,-5.17201105234553e-05,0.025376210090957196,0.005928797261778225
1730090046.4428978,-2.2499173539947535,-0.052771557324852676,9.648056603618558,-0.0027161360540641022,0.11429983974112891,0.00031250314392914557,0.9934425356213983,-3.103206631407318e-05,0.024590907406739013,0.007814178971687251
1730090046.450917,-2.244663572797243,-0.06039335431678661,9.649723559339105,-0.003107983342458984,0.11402369564176837,0.00035671196832196,0.9934731048338994,-1.8619239788443908e-05,0.024971105919132167,0.008519717936170635
1730090046.4588861,-2.270959984498658,-0.055629046037337586,9.647850690779244,-0.0028629102041259056,0.11532888354267233,0.0003323955826721574,0.9933231809834806,-1.1171543873066345e-05,0.024773534965106026,0.008943041314860666
1730090046.4668903,-2.2735697223886477,-0.06210784754427754,9.640980885658951,-0.0031985245938183074,0.1155345954873801,0.00037203352549749596,0.9932982373270608,-6.702926323839807e-06,0.02422930233122831,0.009197035342074684
1730090046.4748898,-2.2861488927593605,-0.06695280911250402,9.648590590721543,-0.003445088268572696,0.11605985051040754,0.0004025592737589278,0.9932361654774531,-4.021755794303884e-06,0.023902762750901682,0.008923741696941063
1730090046.4829628,-2.2896262521595223,-0.05477631559445553,9.64262192645441,-0.002820219596642095,0.11629946841300774,0.0003302322726655441,0.9932101343396194,-2.41305347658233e-06,0.02455821912562977,0.007482695325474796
1730090046.4908848,-2.2967404912859473,-0.05608954546018895,9.63473116490585,-0.002890039997165408,0.11673778336658643,0.00033970092423222056,0.9931585080976515,-1.447832085949398e-06,0.02537718301192865,0.004489617195284877
1730090046.4988866,-2.2897562869590686,-0.049455458233144615,9.637418733123196,-0.002547628749507796,0.11636649128771252,0.0002984874285713488,0.9932030307033887,-8.686992515696388e-07,0.026294251405170013,0.002693770317170926
1730090046.506961,-2.2769466383863786,-0.051221089881293015,9.637355332891495,-0.0026388003683055937,0.11574209350068775,0.0003074879053666779,0.9932757472000826,-5.212195509417833e-07,0.0264188023796528,0.0016162621903025557
1730090046.514908,-2.289372143188077,-0.04150656139947893,9.64138743557474,-0.0021372954618629177,0.11630233711385297,0.0002502714182913042,0.9932115261686111,-3.1273173056506997e-07,0.026493532964342467,0.0009697573141815333
1730090046.5228958,-2.2877294797605026,-0.036635524974452986,9.636384672038202,-0.001887458757843747,0.11628043978095963,0.0002209739302312856,0.9932146031922336,-1.8763903833904197e-07,0.025686991192232205,0.00313599475728111
1730090046.5308924,-2.281955478383645,-0.03155812162529679,9.627397509765892,-0.0016274269274298059,0.11610292161047074,0.00019023580708698882,0.9932358364887195,-1.1258342300342517e-07,0.023925995944579954,0.004861427284602887
1730090046.5390718,-2.2885467245301867,-0.03138472160799057,9.631103178711097,-0.0016178067352898937,0.11638179758722753,0.0001895717345461064,0.9932032138259976,-6.75500538020551e-08,0.02244370873452657,0.006748066923920017
1730090046.546896,-2.287952489063815,-0.03726618574799747,9.624468033935642,-0.0019222919194194906,0.1164294692266825,0.00022534442879366712,0.9931970764703538,-4.053003228123306e-08,0.021980026469956573,0.007880050707510295
1730090046.554906,-2.2938208721003983,-0.033373039085517225,9.642753022509822,-0.0017181946409273263,0.11650384999290954,0.000201549095329615,0.9931887333845304,-0.0017027845638674952,0.022978887295600672,0.008984931039126494
1730090046.5628824,-2.2982995825864108,-0.03750149557045096,9.642710688017612,-0.0019307003772375219,0.11672239010187606,0.00022690740161811308,0.9931626777915036,-0.003150121045630655,0.02357820379098713,0.009647859238096213
1730090046.5708969,-2.306972313028409,-0.04117567029148932,9.641248766326191,-0.0021200627613316043,0.11716172910224916,0.0002501133614780043,0.9931105537708104,-0.0040185229346885514,0.023937793688219,0.010045616157478045
1730090046.5788805,-2.3018808841549356,-0.04553495661825298,9.635104369658997,-0.0023460575875741373,0.11698490877776606,0.0002763516245125713,0.9931308829967141,-0.004113874006661257,0.023302167503634064,0.010284270309107144
1730090046.5868776,-2.3014596486570236,-0.04958704941040491,9.636924395477038,-0.002554356789470469,0.11694288708400499,0.00030077860921355983,0.9931353109995023,-0.00417108464984488,0.022069411669959037,0.010853152861546634
1730090046.5948868,-2.302164588022339,-0.059919170564211706,9.63921351179794,-0.003085841230544925,0.116949739779953,0.0003633836942170784,0.9931329739272541,-0.002502650789906928,0.02090406810829199,0.010343102270086266
1730090046.6028903,-2.3030663919735597,-0.05917525844204265,9.626700611961576,-0.0030514202002902,0.11713961908916695,0.0003599218080818527,0.9931107032605672,-0.0015015904739441568,0.021056242094215825,0.010037071915210045
1730090046.6109872,-2.313184280984917,-0.04867326419608496,9.636191703846867,-0.002507296632441096,0.1175228855219295,0.00029672191857695106,0.9930669649113797,-0.000900954284366494,0.02114754648577013,0.009002073579360248
1730090046.6189024,-2.3017773422725907,-0.05745553810749472,9.639492157317886,-0.002958889945779957,0.11692784481770524,0.0003483678408773822,0.9931359437239309,-0.0005405725706198964,0.02120232912070271,0.007529694454926307
1730090046.626893,-2.294693758879179,-0.06775272594066871,9.635486925250106,-0.003490743775698911,0.11662808666153637,0.0004099187422472383,0.9931694397615073,-0.00032434354237193783,0.02123519870166226,0.00622057691880391
1730090046.6348963,-2.2806273820364917,-0.0672272739921356,9.636914508665688,-0.0034634585978926442,0.11592538313316182,0.00040423059210000216,0.9932518042256951,-0.0001946061254231627,0.02125492045023799,0.005435106397130472
1730090046.6429098,-2.2697933542707234,-0.06978504481520323,9.641601781371287,-0.003593734686930887,0.11534239803592095,0.00041729785832425955,0.9933192045605584,-0.0001167636752538976,0.021266753499383426,0.006240894268512504
1730090046.6508982,-2.270954382923762,-0.05934869900826256,9.645371825658708,-0.003055108835001442,0.11535675510686227,0.0003547977159942429,0.9933193642931776,-7.005820515233856e-05,0.02127385332887069,0.007575747114265787
1730090046.6588993,-2.2608770926448822,-0.05763587467839504,9.650985734555382,-0.0029654143595202087,0.11480094460700066,0.000342699660133618,0.993384030469566,-4.203492309140313e-05,0.02212949334948711,0.00922803894464182
1730090046.6668832,-2.2591402814658355,-0.06450904555899015,9.64860799590901,-0.003319874852088289,0.1147427423197498,0.0003834664038459465,0.99338961866401,-2.522095385484188e-05,0.02221718730039493,0.01021941404286744
1730090046.6748908,-2.27437876604747,-0.054746578458440956,9.636168025084467,-0.0028208077970150094,0.11563015099553245,0.0003283743890795291,0.9932882780917045,-1.5132572312905126e-05,0.02226980367093962,0.01038854904034078
1730090046.6828847,-2.2830430164644193,-0.05918416533678332,9.63756258873232,-0.003048854475568641,0.11603653532691119,0.00035618625699015646,0.9932402026131764,-9.079543387743075e-06,0.0231527536161905,0.00963864991590072
1730090046.6908908,-2.285607944888417,-0.053706431819257494,9.632653242936657,-0.002768025656840917,0.11621896337243731,0.00032389316308583185,0.9932197066509596,-5.447726032645845e-06,0.024108213644803058,0.00791164025685059
1730090046.698899,-2.2835555994525816,-0.043237186728273244,9.6318624169534,-0.0022286583647937288,0.1161287103970362,0.0002605748868396363,0.9932316385436696,-3.2686356195875068e-06,0.025107179723432627,0.004746984154110354
1730090046.7069068,-2.2818453518590487,-0.0331249170174327,9.650541534644695,-0.001704184933319042,0.11583016313618975,0.00019873398509001556,0.9932675518541617,-1.961181371752504e-06,0.0261322494320724,0.0028481904924662124
1730090046.7149005,-2.280100942804882,-0.036873781997568994,9.653848139780958,-0.0018964304481151118,0.11570687960997726,0.00022091424695806305,0.9932815677134924,-1.1767088230515024e-06,0.027172981318718294,6.154049631601098e-06
1730090046.7229154,-2.2699563310637885,-0.02954629434502577,9.647212976886154,-0.001520701108718111,0.115288912650714,0.00017649706756191655,0.9933308225041338,-7.060252938309014e-07,0.02822311051216786,3.6924297789606584e-06
1730090046.7308917,-2.253813917046476,-0.03544486889217171,9.646344341307474,-0.0018246252492887765,0.11451075022034483,0.00021032306650414968,0.9934203111427112,-4.236151762985408e-07,0.0288531880282376,2.215457867376395e-06
1730090046.7389596,-2.254902376106792,-0.03108314814194365,9.641753017138,-0.0016008366191454983,0.1146165335571739,0.00018469979224048304,0.9934085028040796,-2.5416910577912445e-07,0.028379854414955386,1.329274720425837e-06
1730090046.747017,-2.252682409550794,-0.02535365353360369,9.633970399149986,-0.001306817196433264,0.11459722739769991,0.00015075090006438054,0.9934111661219343,-1.5250146346747466e-07,0.02724447412406199,7.975648322555022e-07
1730090046.7549512,-2.2690675219023513,-0.017127553448287213,9.625470105700929,-0.0008834991574037281,0.11549600105858344,0.00010272812276827166,0.9933075468431957,-9.15008780804848e-08,0.026563245949525954,4.785388993533013e-07
1730090046.7628837,-2.2777014884832076,-0.027275363856081702,9.635692820256494,-0.0014054113553776018,0.11579953250557574,0.00016384841603570393,0.9932715974214247,-0.0017028151463749747,0.027005889167728392,2.8712333961198076e-07
1730090046.7708702,-2.279051145775471,-0.028575646780445895,9.631770802017178,-0.0014729898103052514,0.11591065210258017,0.00017189402665980684,0.9932585370801587,-0.002724449333673111,0.027271475098649856,1.7227400376718845e-07
1730090046.779106,-2.2824945619770016,-0.03175001819522066,9.62271382642515,-0.0016381035245379993,0.11618349590850185,0.000191618542122797,0.9932263967382544,-0.003337429846051993,0.027856516718664768,0.0017028636102503867
1730090046.7868855,-2.2685194605748724,-0.04394970818275739,9.636193834185168,-0.0022645836249087954,0.1153445648806654,0.0002629632380430541,0.9933229252684301,-0.004130908214941354,0.028633231752135745,0.0027244784119983584
1730090046.7948868,-2.248881651930861,-0.03977735420652944,9.644281838841179,-0.0020481412990567844,0.11429314051393706,0.0002356330928596922,0.9934449293371657,-0.004606995236274971,0.029099260772218333,0.001634687047199015
1730090046.8030136,-2.232789403756173,-0.05259683244579266,9.633811751009784,-0.0027113664411851928,0.11362448761225641,0.00031008698034987756,0.9935200189995863,-0.004466957387613109,0.02980456824572992,0.000980812228319409
1730090046.811265,-2.236302163982219,-0.0535847547409131,9.63950070661173,-0.002760626918645555,0.11373171861774416,0.00031602258513604466,0.9935076120740073,-0.004382934678415992,0.030653442791298897,0.002291247582839772
1730090046.8190403,-2.2496625679205815,-0.0594447517703291,9.646265962297116,-0.0030601592806371704,0.11430723212653045,0.0003521079287480956,0.9934406716703092,-0.0026297608070495948,0.03201414764156435,0.004354578979938084
1730090046.826998,-2.258397070781646,-0.06272132982196309,9.634044544419284,-0.0032327034747368396,0.11487323107825485,0.0003738277661793263,0.9933748288851935,-0.0015778564842297569,0.03240488049026159,0.005592577818197072
1730090046.835002,-2.275129940467034,-0.06732089847911535,9.637246180997273,-0.003468277983824521,0.11565324070338416,0.0004038299070776288,0.9932835123387673,-0.0026494741363859804,0.0322136301380179,0.0063353771211524645
1730090046.8431606,-2.2602699650126423,-0.08205164797418796,9.64611034775852,-0.004223689737146452,0.11482450844936185,0.00048821670700583824,0.9933766930771094,-0.0041438248506037775,0.032524569988133724,0.006781056702925699
1730090046.8508873,-2.260212525882585,-0.07676430787630964,9.648316385657065,-0.0039506417899940515,0.11479710950248445,0.00045654412453890385,0.9933809982311843,-0.005040435279134456,0.03356251402112728,0.006622774390527609
1730090046.858889,-2.2589809615744727,-0.07957740796797326,9.636950739597363,-0.004100204665609021,0.11486667998243184,0.00047411919719369204,0.9933723417543396,-0.0051527114747908324,0.03503666056384748,0.006527805003088755
1730090046.8668706,-2.25800260282359,-0.08078642769094022,9.632764973787715,-0.004164304466087503,0.1148666683869392,0.00048153133475827014,0.993372072885871,-0.005220077192184657,0.036346838550941625,0.006470823370625442
1730090046.8748868,-2.266513553881654,-0.08773676384112662,9.64102742177263,-0.004518501039855441,0.11518678034654904,0.0005239646307376615,0.9933334355808298,-0.00483480656115892,0.037558635404660146,0.006436634391147455
1730090046.8828838,-2.284548813481336,-0.07442929341209784,9.63281678143272,-0.0038360001663654917,0.116163366038497,0.000448643321487753,0.9932226116095524,-0.002900883936695352,0.03956278370127735,0.006416121003460663
1730090046.8908868,-2.2884267844266923,-0.0793735001195243,9.63890372486549,-0.0040881637075417445,0.11628152876123526,0.00047862888574274406,0.9932077647203732,-0.001740530362017211,0.04076527267924768,0.006403812970848587
1730090046.8990226,-2.2893170459978123,-0.07108727634124583,9.634894445612654,-0.003662879583302882,0.11637234399579795,0.00042917679570909255,0.9931988102456425,-0.0010443182172103266,0.040635385943105805,0.005970738089819311
1730090046.9070241,-2.300864530577203,-0.06420018074615375,9.627939894906655,-0.003310150078119647,0.11701726550147744,0.0003900264200851421,0.9931242874687984,-0.000626590930326196,0.04055745390142068,0.005285203099739713
1730090046.9150472,-2.3025257776724937,-0.07012357036175475,9.623048903985008,-0.003617323283473484,0.11715478733332438,0.0004267281826758556,0.993106987529644,-0.0003759545581957176,0.04051069467640961,0.0031711218598438275
1730090046.9230127,-2.3068744082538863,-0.06194601599634972,9.61580474644374,-0.003197787459965529,0.1174526168435421,0.00037820825281465836,0.9930732671411926,-0.00022557273491743054,0.040908329202864996,0.0019026731159062964
1730090046.930986,-2.3102018471007693,-0.06134904636538796,9.614810134243196,-0.0031672305748806032,0.11762679192630573,0.0003751574843743143,0.993052750728013,-0.00013534364095045833,0.04157259998020026,0.0011416038695437778
1730090046.9389966,-2.319141495223352,-0.04806217562196715,9.637676543192402,-0.0024753528686779405,0.11779571823990333,0.000293631192528758,0.9930347200240501,-8.120618457027499e-05,0.041545472385139386,0.002387722567574393
1730090046.9470034,-2.3127736959621363,-0.04128715400599279,9.640143640759192,-0.002125968554777298,0.11745719660950267,0.00025145144721744794,0.9930756386069041,-4.872371074216499e-05,0.04152919582810286,0.003135393786392762
1730090046.954898,-2.307516495409313,-0.030997216720001924,9.625822168342234,-0.0015985135612725072,0.11736892076497657,0.00018892181317717725,0.993087078508933,-2.9234226445298993e-05,0.041519429893880945,0.004009686579145815
1730090046.9628925,-2.312023620390119,-0.03775194331325115,9.62321478904245,-0.0019473153128523408,0.11761895021842785,0.00023064256528708754,0.9930568650971576,-1.7540535867179394e-05,0.04108788027188577,0.00538564237772171
1730090046.9708748,-2.3128125340504777,-0.036058695284825686,9.622368621960625,-0.0018601277185910175,0.11766744980274672,0.0002204080367011754,0.9930512890088236,-1.0524321520307636e-05,0.04082895049868866,0.006211215856867247
1730090046.9788866,-2.3223838485552863,-0.029775502815426663,9.622818602375595,-0.0015358445963648258,0.11812926860422004,0.00018270769702525094,0.9929970209916571,-6.314592912184581e-06,0.0406735926347704,0.006706559944354569
1730090046.9868836,-2.3482379312034847,-0.025526747001755997,9.614948304980045,-0.0013175452151040503,0.11948270186171818,0.00015855988093560616,0.9928353956669727,-3.7887557473107486e-06,0.04058037791641944,0.007429456458308994
1730090046.9948907,-2.359440817804122,-0.03877922447058485,9.606395403886465,-0.0020031732657872095,0.12012999454587078,0.0002423970890220229,0.9927561195736481,-2.273253448386449e-06,0.040950139146870894,0.008714574489605713
1730090047.003065,-2.343896474325051,-0.04529418995578841,9.607967427878755,-0.0023395515187469673,0.11935304501348923,0.0002812437489390677,0.9928490812035093,-0.0017041241979171581,0.04117199588514177,0.009059955246921712
1730090047.0109992,-2.344386095044249,-0.0525550515711293,9.602925138123735,-0.002715980977101376,0.1194363898810557,0.0003267269531554179,0.9928380862300814,-0.003150924826060453,0.041305109928104294,0.009267183701311313
1730090047.0190103,-2.345158707807799,-0.062418232358693204,9.604927587757054,-0.0032250054263421634,0.11944934444730744,0.00038800484543969195,0.9928349827153294,-0.0018905548956362718,0.04053359823095774,0.009817210835407104
1730090047.0270162,-2.346579956129992,-0.0582804938585753,9.603974276042905,-0.003011492236344603,0.11953041322645619,0.0003625659939328968,0.9928259060753417,-0.001134332937381763,0.04007069121266982,0.01057291717732661
1730090047.035043,-2.3436019824670575,-0.058670892750692046,9.620879961133555,-0.003026469781365453,0.11918420349148089,0.00036329862475385424,0.9928674806502996,-0.0023833600082771842,0.03936725694023503,0.010600650921016282
1730090047.0430148,-2.34875838308375,-0.051004266607446475,9.617376422725055,-0.002631865719055585,0.1194776470013876,0.00031671893646972166,0.9928333519976874,-0.003132776250814437,0.03937088643823619,0.009765911044306023
1730090047.0509028,-2.3540070049479063,-0.04975617324571788,9.622456904660423,-0.0025660453783968484,0.1196728491266693,0.00030930989444956705,0.9928100165290491,-0.001879665750488662,0.03894737407557485,0.008839377056817834
1730090047.0588965,-2.358113858730462,-0.050922678556805726,9.61042172336266,-0.0026293778047933067,0.12001632565392643,0.0003178669542167008,0.9927683853293727,-0.0011277994502931971,0.037841886535053985,0.007432076541400859
1730090047.0668876,-2.355310727347652,-0.04228519526884906,9.620438866537127,-0.002181188317058608,0.11976088753641416,0.00026311539169936534,0.9928003339062224,-0.0006766796701759183,0.037178594010741466,0.006162006170688641
1730090047.0748875,-2.356501890510154,-0.050031394260918814,9.619505967627353,-0.0025809791985101998,0.1198294368357125,0.0003115230254233905,0.9927910895890523,-0.00040600780210555093,0.03678061849615395,0.00539996394826131
1730090047.0830364,-2.3612867312299204,-0.058988676644441906,9.6206221694436,-0.003042610600456777,0.12004824036511319,0.0003679225834406071,0.9927633288649146,-0.00024360468126333055,0.036116143125939415,0.005368428676266945
1730090047.090883,-2.3634393751637335,-0.058616962090180774,9.613630445220846,-0.003025564581170408,0.12023665098416507,0.00036644392287096887,0.9927405801305438,-0.00014616280875799832,0.03529176784234866,0.005775197574532357
1730090047.0990202,-2.364730961524021,-0.05815451319160846,9.616378595501649,-0.0030008262851553944,0.12026667663966631,0.0003635397869666525,0.9927370192404832,-0.0017904579311029253,0.034797142672194206,0.007722019159339731
1730090047.1070206,-2.3767586611429286,-0.06410196816887133,9.608450679029506,-0.0033101523444188847,0.12094671282927615,0.00040331503921705344,0.9926534001776393,-0.0010742747586617552,0.03450036757010153,0.01016718229461025
1730090047.1149604,-2.38301760025021,-0.06862812181929155,9.608482332466531,-0.0035437193829524418,0.12125046225083043,0.00043287416178198394,0.9926155248014484,-0.0006445648551970531,0.0338966124473839,0.012485660298696622
1730090047.1229916,-2.3872518040466106,-0.07756873832594993,9.610416685856872,-0.004004461022115341,0.12143206002448095,0.0004898993475154957,0.9925915469561296,-0.002089499158966358,0.03353435937375332,0.014302437162610478
1730090047.130997,-2.4115795614318722,-0.07598992341549184,9.605831213906702,-0.003924203458070734,0.12267064888579596,0.00048505179025140415,0.9924395584890388,-0.003382149802689973,0.03289131746811294,0.01496681321949676
1730090047.1390247,-2.410374484905998,-0.07743683612937323,9.607389493724881,-0.003998311790365225,0.12259291187826059,0.000493894146882188,0.9924488639363782,-0.004157740188924142,0.031228422140342618,0.014088368669242434
1730090047.1471004,-2.408454338160396,-0.08069918541785832,9.610958083441957,-0.004165275639357615,0.12245573932246745,0.0005139343509237845,0.9924651017830899,-0.004197404359202611,0.02980499488221839,0.013135611877627809
1730090047.1548953,-2.4008379056306124,-0.08912093947337123,9.603761850797596,-0.004603552086807209,0.12217193466829386,0.0005666760040661499,0.9924981131296405,-0.0025184426155215665,0.029802318650267917,0.012563957802659034
1730090047.162881,-2.3795086344916485,-0.08268182393792899,9.599204691044962,-0.004273526304125861,0.1211899296393864,0.000521758932692117,0.9926200006520848,-0.00151106556931294,0.029800712911097635,0.012220965357677766
1730090047.1708674,-2.382273382599286,-0.07642415295650738,9.614187487478539,-0.0039439732515625285,0.12114456642234532,0.0004813398857893461,0.9926269225712383,-0.0009066393415877639,0.029374059406133433,0.011589479829226975
1730090047.1789265,-2.401409903583009,-0.07554259235984193,9.590376602594546,-0.003907545310031441,0.12236450006337077,0.00048176897425363554,0.9924774194471866,-0.0005439836049526583,0.02869237724169288,0.010359208389232438
1730090047.1869364,-2.414567757335352,-0.0754924963338739,9.577287172494227,-0.003909883646771139,0.12316545046454788,0.0004852610806124406,0.9923783296421871,-0.000326390162971595,0.027431987820104486,0.009621045525235714
1730090047.1948824,-2.410491461285977,-0.06397027074954309,9.594333211699661,-0.0033074387139936387,0.12275948692743846,0.0004091161389749587,0.9924308549427764,-0.000195834097782957,0.025824374044227383,0.00875245774537565
1730090047.2030747,-2.4291146582657266,-0.06280301938331961,9.598814751238546,-0.0032452144379675166,0.12361000368827132,0.00040424333940801877,0.992325487004521,-0.0001175004586697742,0.024008425655777065,0.007805615015997579
1730090047.211038,-2.441964517615686,-0.042470214950304265,9.596715271641566,-0.002194870874617035,0.12426167097441271,0.0002748693798927675,0.9922470176903101,-7.050027520186452e-05,0.022493166561244837,0.006811819316908706
1730090047.2190244,-2.4391399459209744,-0.03649545660690131,9.585878777242751,-0.0018882304365345915,0.12425878843036184,0.00023646227728750573,0.9922480194836513,-4.230016512111871e-05,0.02115832104306347,0.006215541897455382
1730090047.2270074,-2.4424730263904753,-0.03913552591726578,9.587517166247995,-0.0020244389787998367,0.12440034116592179,0.000253813024344609,0.9922300097979158,-2.5380099072671224e-05,0.020783103793616683,0.005857775445783388
1730090047.2349713,-2.4291499840471755,-0.040240727171453224,9.594964544133562,-0.0020801955542605927,0.12366094798592667,0.0002592292348157144,0.9923223143363661,-1.5228059443602734e-05,0.020132283382486578,0.006494495697704253
1730090047.2430203,-2.4130158729966644,-0.03659428493568443,9.601348332193028,-0.001890654348114293,0.12279873943586012,0.00023394095847311416,0.9924297659233764,-9.13683566616164e-06,0.019741791135808515,0.0073022179103188044
1730090047.2508934,-2.4167429356632333,-0.026026713783676284,9.605178605028707,-0.0013441215527922085,0.12293358994414555,0.0001665007667597961,0.9924139751526027,-5.482101399696984e-06,0.019081805726339645,0.008212541299349566
1730090047.258884,-2.4264011984096587,-0.04003688520379952,9.596942281425427,-0.002069274591085314,0.12350306962125315,0.0002575339591277903,0.9923419992991602,-3.28926083981819e-06,0.01740874429627223,0.009610115455692087
1730090047.2668896,-2.4317173157254826,-0.052273710712123465,9.585536142781036,-0.0027047864201342003,0.12390100220339643,0.00033772935775867527,0.9922908402894266,-1.973556503890914e-06,0.015553527315307717,0.01087435001095963
1730090047.2748895,-2.436822347443102,-0.05793986485500845,9.59305766955534,-0.0029955497908426033,0.12405582793518839,0.0003745101302185709,0.9922706475447753,-1.1841339023345483e-06,0.014014707065266977,0.011632890744120158
1730090047.2829442,-2.45377173610258,-0.05798767501652069,9.593979283129688,-0.0029974127023770455,0.12486743645321509,0.0003772334173910205,0.9921688346877475,-7.10480341400729e-07,0.012665724853780501,0.012088015184016473
1730090047.2908945,-2.443830075352954,-0.062086503935693656,9.604109057914922,-0.003206149365367493,0.12425924082445759,0.00040150756738940234,0.9922445265496049,-0.0017031865340529668,0.010153575281040491,0.009806949479182073
1730090047.299137,-2.431640154586772,-0.07029188527157244,9.601328376643485,-0.003631176947066632,0.12370095385398452,0.0004526597400568062,0.9923127952761434,-0.00102191192043178,0.007794905414472421,0.005884169687509244
1730090047.3071496,-2.423847361795032,-0.08479192071372471,9.602054169540777,-0.0043800794586911435,0.12331174302195476,0.0005442744870631094,0.9923581675494517,-0.000613147152259068,0.00680539355599361,0.003530501812505546
1730090047.315024,-2.4057641568231127,-0.0812815135122192,9.592194578140482,-0.004203483582373368,0.12255356406031023,0.0005190693822417012,0.9924528629758013,-0.0003678882913554408,0.007488756625292419,0.0021183010875033275
1730090047.322997,-2.4040122001485553,-0.07079556338076903,9.593461428280774,-0.0036607890635262574,0.12245412143115775,0.0004516810771977531,0.9924673207477213,-0.00022073297481326447,0.007898774466871704,0.0029737408983501225
1730090047.331008,-2.386441034688742,-0.055645447159320786,9.604756025669635,-0.0028743939105145017,0.1214633468282584,0.00035173929708133767,0.992591693253773,-0.00013243978488795867,0.007293405048895212,0.003912694846320232
1730090047.339012,-2.378531957239027,-0.0546956630709831,9.609617422774829,-0.0028240650208002033,0.12101985368125176,0.00034429991373304735,0.9926460099800413,-7.946387093277521e-05,0.004376043029337127,0.004901757276564328
1730090047.346996,-2.379772014919588,-0.06466027992266798,9.611337160207865,-0.0033379314015830113,0.12105854016305881,0.00040708135412448614,0.9926396739765737,-4.767832255966512e-05,0.002625625817602276,0.005920884796172818
1730090047.3548992,-2.3692633017251903,-0.06321702488719454,9.608777700177454,-0.0032644991639850275,0.1205779578050545,0.00039652188091440023,0.9926984143772815,-2.8606993535799073e-05,0.0015753754905613656,0.006532361307937912
1730090047.3628845,-2.3581696704882393,-0.07216729867255109,9.607242024159206,-0.003727512777666201,0.12005501227295311,0.00045077010451253656,0.992760140458382,-1.7164196121479442e-05,0.0009452252943368193,0.006473557153534937
1730090047.3708751,-2.362287399216772,-0.07370674028751502,9.623319450335368,-0.003800659017272844,0.12006318874691436,0.00045964760893765734,0.9927588702313532,-1.0298517672887665e-05,0.002269895422450218,0.005586894537969088
1730090047.3788946,-2.3592513726355318,-0.05811041380141527,9.621234317906298,-0.0029971611864036255,0.11994196308480032,0.00036210110070971523,0.9927763148861781,-6.179110603732599e-06,0.0030646974993182572,0.0033521367227814527
1730090047.386865,-2.3507259920383503,-0.055456382558192914,9.621898599776982,-0.002860233404596598,0.11951930595370526,0.00034432269808945776,0.9928276970406775,-3.7074663622395594e-06,0.0018388184995909542,0.003714042279516998
1730090047.3948872,-2.356863511482776,-0.05913120746460325,9.619663547073221,-0.003050344926380119,0.11984438489322713,0.0003682223550967266,0.9927879346656522,-2.2244798173437357e-06,0.0011032910997545724,0.00520825579794442
1730090047.4029233,-2.3622219643115403,-0.057744799918215066,9.61640715412284,-0.0029797228421275285,0.12014424391727002,0.0003606102842803496,0.9927519085177094,-1.3346878904062415e-06,0.0006619746598527434,0.006530473970462905
1730090047.4109507,-2.3537054478740336,-0.06936280402319465,9.606073612542062,-0.0035831918700714696,0.119851708486775,0.0004325725728363477,0.9927852444460447,-8.008127342437449e-07,0.000397184795911646,0.007749494935436027
1730090047.4189923,-2.347398437181451,-0.06962984183774493,9.625730865523284,-0.0035898867026966934,0.11931040270641395,0.00043139512256060663,0.9928504189543071,-4.804876405462469e-07,0.0002383108775469876,0.009332287637343964
1730090047.4269032,-2.3484026340862143,-0.07601498884288133,9.628666671169439,-0.003917867693061029,0.11932370908708123,0.00047086231846329323,0.992847561839741,-2.882925843277482e-07,0.00014298652652819255,0.010281963258488725
1730090047.4348993,-2.330569799445869,-0.07481825355963505,9.627076272232912,-0.0038572389744551913,0.11847442482035286,0.0004602290109836189,0.9929495055440826,-1.729755505966489e-07,8.579191591691553e-05,0.009574698446789487
1730090047.4429054,-2.3284892246382247,-0.07840977537796852,9.62707971353506,-0.004042440179411706,0.11837260016705221,0.00048190634075582464,0.9929609025401583,-1.0378533035798934e-07,5.147514955014932e-05,0.008724649498307913
1730090047.4508893,-2.335381165398169,-0.07457918431857798,9.62588467748627,-0.003845270449797298,0.11872288347926355,0.00045977687299671535,0.9929198756388977,-6.22711982147936e-08,0.0017336453355782158,0.008640310190681
1730090047.4588914,-2.333530825703745,-0.07156256918489678,9.637138664157778,-0.0036855359999510406,0.11850035267075666,0.0004398394714581565,0.9929470730016473,-3.736271892887616e-08,0.002742947447195056,0.008589706606104853
1730090047.4668922,-2.3460675713499812,-0.06831607910859432,9.639342073006384,-0.0035172829392110306,0.11908448920443745,0.0004218584000920722,0.9928778047610562,-2.2417631357325697e-08,0.00334852871416516,0.008559344455359164
1730090047.4749475,-2.3507165767455356,-0.06972006738703158,9.629890210844847,-0.0035929349000444156,0.11942248274389117,0.00043217288965360283,0.9928369325627863,-1.3450578814395418e-08,0.002009117228499096,0.008966817226373783
1730090047.4829216,-2.344886854006306,-0.06577405703378145,9.631880538860424,-0.003389020462854389,0.11911565987847474,0.00040658250503241986,0.9928745181555847,-8.07034728863725e-09,0.0012054703370994574,0.009636990950444586
1730090047.4908826,-2.343783222022924,-0.054069064347221994,9.633792996167816,-0.002785407794969753,0.11904040725080171,0.00033395199736384427,0.9928854472803207,-4.84220837318235e-09,0.0028517325095698326,0.010464785246349098
1730090047.4989073,-2.3431210428328955,-0.05877765687005194,9.628715546235846,-0.003029554070650875,0.11906788909213414,0.0003633088487329773,0.9928814267554594,-2.90532502390941e-09,0.003413799751590026,0.011387151885353837
1730090047.5069656,-2.3422448949868464,-0.05968745105562492,9.626866177106741,-0.0030770449496865682,0.11904705935575782,0.0003689386023735787,0.9928837763491918,-1.743195014345646e-09,0.0041767301582641735,0.012366261930218714
1730090047.5149503,-2.3426768869432797,-0.06310636955915619,9.61641916915467,-0.0032567684527730592,0.11919165228772584,0.0003909688444630129,0.9928658472460061,-1.0459170086073874e-09,0.004634488402268662,0.01295372795713764
1730090047.5229623,-2.3429360821171397,-0.06611540132533747,9.629304577664676,-0.003407546619150459,0.11905119973245089,0.0004085807150470668,0.992882185120723,-6.275502051644324e-10,0.004483453287209323,0.012880517511826964
1730090047.5308943,-2.3359089942409867,-0.0590622742424681,9.625783074967947,-0.003045272208836238,0.11875139806421518,0.000364209195153534,0.9929192812744803,-3.765301230986594e-10,0.0026900719723255938,0.012410901183178526
1730090047.5390878,-2.335762884337561,-0.05626691898884024,9.625106694346002,-0.002901349941054785,0.1187525254507466,0.0003469995339138967,0.9929195835811241,-2.2591807385919566e-10,0.0016140431833953563,0.011703441324527431
1730090047.5470107,-2.345970285534177,-0.04405521853197601,9.617997101324397,-0.002273189027484218,0.11933496575152809,0.0002732241016060078,0.9928514107908178,-1.3555084431551738e-10,0.0009684259100372137,0.011278965409336775
1730090047.5549397,-2.3379689364572247,-0.03888297975199811,9.61947742949581,-0.002006106267541722,0.1189278909903175,0.00024028782967710924,0.9929008382230309,-8.133050658931043e-11,0.0005810555460223282,0.011449969921684412
1730090047.5628896,-2.339871891659491,-0.051341947275026986,9.615577223078345,-0.002649923333240075,0.11906598504105985,0.0003177774313170072,0.9928827564874083,-4.8798303953586255e-11,0.0003486333276133969,0.011126882567630964
1730090047.571223,-2.3331127993023353,-0.056901966460719315,9.613476519393881,-0.0029376411322692138,0.11876086448147,0.00035136499939181855,0.9929184779602146,-2.927898237215175e-11,0.00020917999656803815,0.010933030155198895
1730090047.5789213,-2.3151709742591358,-0.05904087714205659,9.625144786148047,-0.003044752865582541,0.1177482437272002,0.0003610275068306098,0.9930387455876466,-1.756738942329105e-11,0.0018282682437889492,0.009965338584815589
1730090047.5868661,-2.3072789212254032,-0.06319726554304646,9.625681401718124,-0.0032590690858228725,0.11735665541397856,0.00038513689650986353,0.9930844100922688,-0.0017027602563885601,0.0027997211921214956,0.009810413704047637
1730090047.5948772,-2.3051773112313354,-0.0726342833980935,9.628397572720328,-0.0037447206756729325,0.11722142616119921,0.00044201197971045314,0.99309864512102,-0.0027244163996812624,0.0033825929611210237,0.010994528959972962
1730090047.6029963,-2.3091835888872385,-0.06417070431619984,9.623562930839226,-0.0033099475644029408,0.11747426077934967,0.00039154693267112495,0.9930703343633148,-0.0016346498398087574,0.002029555776672614,0.011704998113528157
1730090047.6109293,-2.3199670612913277,-0.0605290778631574,9.626647649860958,-0.0031209261464046284,0.11796429503011878,0.0003707483217606842,0.9930128636949864,-0.0009807899038852543,0.0012177334660035683,0.01127989948273721
1730090047.6190386,-2.3403235143626873,-0.05738642132726944,9.636638766918526,-0.002955501670722712,0.11883815847081282,0.0003537346459900372,0.9929091760946419,-0.0005884739423311526,0.000730640079602141,0.010173460181338578
1730090047.6268957,-2.356368108861753,-0.051191264417455404,9.6201279415476,-0.0026406463418489757,0.11981541619721943,0.0003186870382389119,0.992792622588905,-0.00035308436539869154,0.0004383840477612846,0.008658216477575337
1730090047.6348913,-2.3537844370943954,-0.04915011143367637,9.614770429479341,-0.002536790352444553,0.11975364775006377,0.0003059929403626593,0.992800349976561,-0.00021185061923921492,0.00026303042865677076,0.005194929886545202
1730090047.6429067,-2.3405026458992158,-0.0484042599754402,9.606049258420025,-0.002500735332355127,0.11921009565926349,0.00030025496012145734,0.9928658566305247,-0.00012711037154352896,0.00015781825719406246,0.003116957931927121
1730090047.6508896,-2.3320547308500763,-0.05202689192276412,9.607520320432874,-0.002687623228480191,0.11878018117600622,0.0003215136922490981,0.992916885680832,-7.626622292611738e-05,9.469095431643747e-05,0.003572935005004399
1730090047.6588905,-2.329380183480749,-0.052045689597017844,9.60744527697652,-0.0026886590354268406,0.11865054534557158,0.00032128155598758944,0.9929323823805685,-4.575973375567043e-05,5.6814572589862475e-05,0.005123591433236861
1730090047.6668997,-2.3277754550591525,-0.05157812786953883,9.619610679369506,-0.002661210003416075,0.11842856748582002,0.0003173981019538716,0.9929589576729841,-2.7455840253402254e-05,3.408874355391748e-05,0.007331055474562432
1730090047.6749275,-2.331601021326507,-0.0501004900029733,9.617811954496704,-0.0025853878607009243,0.1186364374966302,0.00030890381271030993,0.9929343462919149,-1.6473504152041352e-05,2.045324613235049e-05,0.010358294145205902
1730090047.6829207,-2.3394030249052795,-0.05328405010529961,9.616253879240992,-0.0027499764765229326,0.11903494976480085,0.00032968865027339206,0.9928862017720177,-9.88410249122481e-06,1.2271947679410293e-05,0.012600327409054014
1730090047.6908891,-2.3357045212419956,-0.055194186166695386,9.611009471099281,-0.002850152483003824,0.11891663315621846,0.0003413541198018271,0.992900092893025,-0.0017086907073428613,7.363168607646175e-06,0.01351985730590085
1730090047.6989648,-2.336837301368244,-0.059452729961735985,9.616242532024803,-0.0030683838769164475,0.11890948186808299,0.0003674688594557603,0.9929002896106363,-0.002727974670253843,-0.002549722467607602,0.012794505059622856
1730090047.706992,-2.3327285661236807,-0.06009249491063534,9.622015990406288,-0.003099645234390784,0.11864086860286858,0.00037036220315688726,0.9929323236396408,-0.003339545048000432,-0.0045096639107987824,0.011933603650394031
1730090047.7149315,-2.324996081324599,-0.055209110227631204,9.626198325933226,-0.0028466752948506017,0.11821516142210713,0.00033889793296724464,0.9929838655274827,-0.0037064872746483853,-0.004834248653789428,0.011842752866318765
1730090047.7228878,-2.326820934927572,-0.06257414655650059,9.63517207173181,-0.003223419817335296,0.11819781994261178,0.0003836928920985701,0.9929847620710298,-0.003926652610637157,-0.0050289994995838146,0.011362552334411576
1730090047.7308893,-2.3264793260932617,-0.04999433656671285,9.627148789914086,-0.0025775241548532035,0.1182766730319277,0.00030701707477157297,0.9929772861079177,-0.0023559915663822944,-0.004720159945598415,0.009371671769419134
1730090047.7388945,-2.3006564030290035,-0.051304996715418334,9.643643215598843,-0.002641047892327242,0.11682545921544533,0.0003106700640599804,0.9931489014388739,-0.0014135949398293767,-0.005386236336131238,0.007325763307499606
1730090047.7468944,-2.280134825704121,-0.06094993894721975,9.6489908878554,-0.003136201586821572,0.11576268463851931,0.00036551433887683463,0.993271881955871,-0.000848156963897626,-0.006211572231912964,0.006523908291809922
1730090047.7549188,-2.2716526019654415,-0.06841284544840998,9.640707323240584,-0.0035233563503671446,0.11544356347739339,0.0004094892341866718,0.9933077075761753,-0.0005088941783385755,-0.006706773769382,0.003914344975085953
1730090047.763024,-2.2670421080542646,-0.07791841283545223,9.645553411278335,-0.00401100524989318,0.11516187680542028,0.0004650125590694884,0.9933385312826933,-0.0003053365070031453,-0.007003894691863421,0.0023486069850515716
1730090047.7709236,-2.2788804418345117,-0.07093248446884946,9.641039038954501,-0.003652834755105958,0.11579216496431811,0.0004258369512155069,0.9932666560365444,-0.0001832019042018872,-0.006756477183890242,0.0014091641910309429
1730090047.7789125,-2.2730547531378167,-0.07368411226334093,9.623246945101217,-0.0038015824099439394,0.11571266240115251,0.0004428693610598483,0.9932753553763157,-0.00010992114252113231,-0.005756646556182271,0.002973948821928724
1730090047.7870064,-2.2808120877225333,-0.059054517650973304,9.631246461738463,-0.003044184280181006,0.11600067262368217,0.0003555292351804125,0.9932444062222976,-6.595268551267939e-05,-0.005156748179557489,0.0039128196004673925
1730090047.7948844,-2.2766079423307857,-0.06176892885230273,9.625032844084092,-0.0031862121607878226,0.11586690348180778,0.0003716818328094625,0.9932595685832677,-3.957161130760763e-05,-0.005222499215044652,0.004050452006128562
1730090047.8028848,-2.2812680600762056,-0.05860917225278788,9.621304673491471,-0.003024298743136085,0.11613805175889351,0.00035363080553344015,0.9932284135565265,-2.3742966784564576e-05,-0.0052619498363369495,0.004133031449525263
1730090047.8109794,-2.276163265244942,-0.0531220158028446,9.620025451799961,-0.0027416054362605176,0.11590381627903353,0.00031991987837932923,0.993256606634388,-1.4245780070738744e-05,-0.005285620209112328,0.005033959238487347
1730090047.8189888,-2.2848319764809495,-0.06156131006764425,9.62117328011318,-0.0031766026876473463,0.11631345157330955,0.00037200852567155246,0.9932074062289936,-8.547468042443245e-06,-0.005299822432777554,0.006425896034788661
1730090047.826895,-2.275428573095601,-0.05872402114800842,9.635987766896033,-0.003025776289728132,0.11568313800053251,0.0003523988891138478,0.9932814968956268,-5.128480825465947e-06,-0.005734033828438722,0.007261058112569449
1730090047.8348887,-2.2846305813573604,-0.06516193344075817,9.648467761455978,-0.0033530135853137837,0.11598745071679628,0.0003915524574499203,0.9932449422286471,-3.0770884952795683e-06,-0.005568870604373392,0.007762155359237922
1730090047.8429701,-2.2925459879745724,-0.06639105899023615,9.647815472547416,-0.0034163240195204505,0.11638058012336748,0.0004003164290277409,0.9931987359270544,-1.846253097167741e-06,-0.005469772669934193,0.008488503768701038
1730090047.8508902,-2.2721561145132587,-0.05252390419296981,9.637368452229621,-0.0027059908037727486,0.11550799808877951,0.00031467099063691405,0.99330281433884,-1.1077518583006445e-06,-0.005410313909270674,0.010201382998765003
1730090047.858892,-2.2704566777411586,-0.058329401109531887,9.63564922319324,-0.003005637175760695,0.11544432219923811,0.0003493209327775759,0.9933093438561886,-6.646511149803866e-07,-0.005374638652872563,0.01122911053680338
1730090047.8669477,-2.263451511527508,-0.06324922025556287,9.627435080790944,-0.003262020369924208,0.11519606541973273,0.0003782923429890266,0.9933373458346475,-3.9879066898823194e-07,-0.005778923560495727,0.011420056998164375
1730090047.8749273,-2.2671492772778326,-0.051357061450212724,9.628013259167925,-0.0026484923267866387,0.11537118863760412,0.000307614922788045,0.9933188711052461,-2.3927440139293914e-07,-0.0060214945050696255,0.01110893481351894
1730090047.882946,-2.255720987265137,-0.060981177788096384,9.630993788020287,-0.003144049581012484,0.11477752650051264,0.00036326882878840334,0.99338617989099,-1.4356464083576348e-07,-0.005741347010351934,0.010922261502731682
1730090047.8909943,-2.247427492261426,-0.06436144593067034,9.632063844833656,-0.003318122034335913,0.11435944713481487,0.00038196666201838545,0.9934338231702471,-8.613878450145809e-08,-0.0034448082062111603,0.010810257516259325
1730090047.8988836,-2.2505916809037303,-0.07692409412090219,9.641803845230271,-0.003961728293611718,0.11440168897703276,0.00045622738681581963,0.9934265700718405,-5.168327070087485e-08,-0.002066884923726696,0.010317365062913881
1730090047.907121,-2.2426739672824723,-0.08110980071082258,9.64166234131785,-0.004177544219006835,0.11401592012997756,0.00047943726191572575,0.9934700238160811,-3.100996242052491e-08,-0.0012401309542360176,0.010021629590906612
1730090047.9149547,-2.2448665239241707,-0.07188963653000917,9.65187250610907,-0.0036987694617614543,0.1140080730436185,0.00042446009484419693,0.9934728472479646,-1.8605977452314946e-08,-0.0007440785725416105,0.008141428061854125
1730090047.9229395,-2.2440272764150495,-0.06587869768948987,9.642915134524818,-0.0033926373605264078,0.11406947566274825,0.00038954127465719654,0.9934669058360027,-1.1163586471388968e-08,-0.00044644714352496626,0.004884856837112475
1730090047.9309127,-2.243763148075592,-0.057244310898850174,9.646159837550828,-0.002947020086163518,0.11402047798545344,0.00033822792406068656,0.9934739711106939,-6.69815188283338e-09,-0.00026786828611497974,0.005059364409577643
1730090047.938895,-2.2309154022730895,-0.06666830895141948,9.641642314884011,-0.0034340112906268896,0.11344286566215876,0.0003920976165102447,0.9935385095990353,-4.018891129700028e-09,-0.00016072097166898783,0.005164068953056744
1730090047.947015,-2.230149939606041,-0.07184386745092981,9.655451792739001,-0.0036953812202742083,0.11324890876041577,0.00042121061892284265,0.9935596868854062,-2.4113346778200167e-09,-9.64325830013927e-05,0.003098441371834046
1730090047.9549785,-2.232803124164015,-0.07159732022641725,9.64913284932504,-0.0036850231850772868,0.11344991929727512,0.00042078520477079246,0.9935367931563374,-1.44680080669201e-09,-5.785954980083562e-05,0.0044132051918726175
1730090047.963018,-2.232240253404659,-0.05732360209678786,9.656833651245416,-0.0029480822319225756,0.11333678353177096,0.00033629451837967214,0.9935521975295627,-8.680804840152059e-10,-3.471572988050137e-05,0.005627753545357791
1730090047.9709668,-2.224480505802561,-0.06073037951979147,9.660017611401546,-0.0031224089828455854,0.11292166596441491,0.00035485910422147966,0.9935989241102171,-5.208482904091235e-10,-2.082943792830082e-05,0.007207862680372959
1730090047.9789143,-2.2298803042139586,-0.06014082414742175,9.647802197700303,-0.0030958646660000483,0.11332322668392522,0.0003531097701187442,0.9935532885705748,-3.125089742454741e-10,-1.2497662756980492e-05,0.008581618222844093
1730090047.986872,-2.228092359774469,-0.06768795640251556,9.648134394792057,-0.003484272545501773,0.11323136857419272,0.00039708520119476266,0.9935624587005021,-1.8750538454728446e-10,-7.498597654188295e-06,0.009831561609788804
1730090047.9949138,-2.2375540804154626,-0.05761160562861871,9.64713661221703,-0.002965740333690908,0.11370600341015195,0.00033942536583455397,0.9935099566502514,-1.1250323072837067e-10,-4.499158592512977e-06,0.01058152764195563
1730090048.0028899,-2.2480195161203715,-0.06257912280099935,9.65180518632436,-0.0032197157254913824,0.1141636932720821,0.00036999564349798436,0.9934566662277469,-6.75019384370224e-11,-2.699495155507786e-06,0.010180127138331663
1730090048.0109298,-2.247355592728863,-0.06460195244036523,9.649099666970397,-0.003324720160656596,0.11416185136956043,0.0003820561829667165,0.9934565274639856,-4.050116306221344e-11,-1.6196970933046717e-06,0.008662216651771186
1730090048.0189495,-2.233789129563099,-0.06006956623960976,9.650588817516223,-0.0030912447151496747,0.11348275374131865,0.0003530856279573248,0.9935350945688519,-2.430069783732806e-11,-9.71818255982803e-07,0.007751470359834901
1730090048.0270042,-2.2244521508335624,-0.06740578149181273,9.650524627179655,-0.0034689735427449633,0.11302650488515875,0.00039461709259472924,0.9935858391167596,-1.4580418702396836e-11,-5.830909535896818e-07,0.00720502258467313
1730090048.0348892,-2.2222018459200594,-0.07228635097516575,9.643303507997246,-0.0037229356477152336,0.11299734046688455,0.00042339655019312813,0.9935882253393179,-8.7482512214381e-12,-3.4985457215380905e-07,0.006025773796652005
1730090048.0428963,-2.2163026798176606,-0.0649196255265057,9.629394029847175,-0.0033484256956268867,0.11286609674890284,0.00038035631014127387,0.993604492531664,-5.2489507328628604e-12,-2.0991274329228542e-07,0.0057439145853013605
1730090048.0510235,-2.2278466506152057,-0.06409089274754404,9.644511519226665,-0.0033003458626010406,0.11326061233388088,0.0003762221536733351,0.9935597615985828,-3.1493704397177162e-12,-1.2594764597537124e-07,0.005149108997028942
1730090048.0588937,-2.2285481087773262,-0.06766379590243268,9.653103172522327,-0.003481250217378955,0.11319757893040146,0.0003966208278507864,0.9935663197356975,-1.8896222638306297e-12,-7.556858758522274e-08,0.0030894653982173653
1730090048.0674365,-2.243094773469521,-0.06310377314692836,9.658976424997771,-0.0032444236094783326,0.1138418934753686,0.00037177024550433783,0.9934935122044177,-1.1337733582983777e-12,-4.5341152551133645e-08,0.001853679238930419
1730090048.0749264,-2.2479920496285875,-0.05510051584128201,9.652684149676396,-0.0028346946254139958,0.11415301327837574,0.0003257194372855764,0.9934590821834062,-6.802640149790266e-13,-2.7204691530680186e-08,0.002814967789206378
1730090048.0832174,-2.2466208523357465,-0.05796000677039421,9.655373128965994,-0.0029810044778694656,0.11405529854218246,0.00034223418894705653,0.993469871391436,-4.08158408987416e-13,-1.632281491840811e-08,0.0038174309808339853
1730090048.0908816,-2.24531929362801,-0.05823918033176777,9.662493180358112,-0.0029932074268514625,0.11391100056325487,0.00034319468928718533,0.9934863898802959,-2.4489504539244956e-13,-9.793688951044866e-09,0.004844598957272581
1730090048.0990152,-2.2416653164111806,-0.06127972646077941,9.662695068371118,-0.0031494745861891994,0.11373020885746586,0.0003605314727944432,0.9935066131738255,-1.4693702723546974e-13,-5.876213370626919e-09,0.006312279866059801
1730090048.1070492,-2.240909451077177,-0.07292028094482703,9.649169251716028,-0.0037529190462941195,0.11384540163527508,0.000430051655067757,0.9934912959763205,-8.816221634128184e-14,-3.5257280223761514e-09,0.009321338718642292
1730090048.115133,-2.2342310075603686,-0.06649708433838059,9.656855492680007,-0.003419800323325784,0.11343290908387003,0.00039044026192088226,0.9935396960660007,-5.28973298047691e-14,0.0021284481918733447,0.011552464091653818
1730090048.12293,-2.222562496137784,-0.07317765367920023,9.642553044143162,-0.003769119692144664,0.11302334807995479,0.00042874891225338043,0.9935850908200635,-3.173839788286146e-14,0.002979829160972133,0.013316829376922764
1730090048.1308944,-2.2272929774189985,-0.07287643229541077,9.652406927804256,-0.003749719893134862,0.11314356377146625,0.0004270016594059259,0.9935714827064019,-1.9043038729716875e-14,0.0017878974965832798,0.01352406842516007
1730090048.1388934,-2.233722568677962,-0.07676584228740271,9.648024190862241,-0.003951455235660921,0.11350682201254016,0.00045143826734965925,0.993529256520222,-1.1425823237830125e-14,0.0010727384979499679,0.012797031731178389
1730090048.1469154,-2.2196238109821675,-0.06904384130994164,9.649464691519297,-0.003553756837913235,0.11280222140460587,0.00040344929352779854,0.9936110239360223,-6.855493942698075e-15,0.002346403344618107,0.011083739530403286
1730090048.1549525,-2.213798178190863,-0.06321353989338685,9.656793336395951,-0.003251347985750741,0.11243571444192144,0.00036790248506386015,0.9936536134398002,-4.113296365618845e-15,0.0035362923140810224,0.009630074148476192
1730090048.1629577,-2.204796134697721,-0.06594028335986023,9.665739506476243,-0.0033886692533831105,0.11189556099894753,0.0003815755850127941,0.9937141212388475,-2.4679778193713066e-15,0.004250225695758772,0.008332184857857906
1730090048.1709237,-2.208732295076445,-0.06015430429325987,9.679486914334964,-0.003086932230321069,0.11193514609723831,0.000347723159859891,0.9937106585954482,-1.4807866916227839e-15,0.004678585724765421,0.008404831406410997
1730090048.1790185,-2.207023848481414,-0.06290764116970592,9.665708703776758,-0.0032327954235152672,0.1120050298422469,0.0003643841245563805,0.9937023143517362,-8.884720149736702e-16,0.0049356017421694105,0.00844841933554285
1730090048.1869323,-2.214617906500958,-0.06527790379362042,9.671088726904728,-0.0033526086396195734,0.11231558288761324,0.00037895013829119585,0.9936668587875506,-5.330832089842021e-16,0.004664121291149773,0.008900262154483994
1730090048.1949053,-2.22156854297284,-0.06478470003984414,9.66162747198268,-0.003330360914936775,0.11276098909962168,0.00037794742274233214,0.993616487981755,-3.198499253905213e-16,0.0027984727746898637,0.010022747968772745
1730090048.2028913,-2.2187957400415166,-0.05946095430125022,9.6413460889025,-0.0030630893179129553,0.11285398708002085,0.00034790607524705103,0.9936068005228909,-1.9190995523431277e-16,0.0016790836648139182,0.010696239457345994
1730090048.2109532,-2.228863646417488,-0.05171772370379701,9.64282420851728,-0.002663651543503533,0.11333046771788391,0.00030383145434169134,0.9935537316792423,-1.1514597314058766e-16,0.002710210444736477,0.00982326416610385
1730090048.2188904,-2.243762936385649,-0.05736685248399695,9.645387021448258,-0.0029535620422972337,0.11402923921308078,0.0003390051375390065,0.9934729458577445,-6.90875838843526e-17,0.0037545765741520444,0.00887378892989653
1730090048.2268927,-2.2450410650540453,-0.06243227091422629,9.649318910867,-0.00321303339362827,0.11404654117114232,0.0003688438424256783,0.9934701438984114,-4.145255033061156e-17,0.004381196251801385,0.007452723665248077
1730090048.2349665,-2.226175488641802,-0.06882340429658265,9.646410800865903,-0.003543382576823019,0.11315699371015052,0.0004035530755298504,0.9935707203613191,-2.4871530198366935e-17,0.00518285811985302,0.007451464629383068
1730090048.2429035,-2.2112648403042217,-0.05733519370099646,9.648257237355478,-0.002951626158744797,0.11240802617783546,0.00033390419321910407,0.9936576936057064,-1.492291811902016e-17,0.005663855240684001,0.007876399269326094
1730090048.250957,-2.2042338126297985,-0.06073733448231663,9.64960451941524,-0.0031264605068740082,0.11204862790157563,0.0003525373909567973,0.9936977437568534,-8.953750871412095e-18,0.00595245351318259,0.00855705011475394
1730090048.258899,-2.2019305573532697,-0.05439891314056185,9.649694628153048,-0.002800209218575698,0.11193543773858844,0.00031542620680524914,0.9937114858513565,-5.372250522847257e-18,0.005699922415219712,0.00896544062201065
1730090048.26717,-2.1940842597049306,-0.05682078465191523,9.647115071569562,-0.0029257777936686656,0.11157988809751587,0.0003285107879403534,0.9937511058998174,-3.2233503137083537e-18,0.0034199534491318275,0.009210474926364674
1730090048.2750187,-2.2044599515749117,-0.04821826058607101,9.639342413303066,-0.002484658630907539,0.11217552237220745,0.0002804890949765692,0.9936852620311312,-1.9340101882250123e-18,0.0020519720694790965,0.010208875631901152
1730090048.2829425,-2.2118824675269786,-0.057421956107501976,9.643776784651761,-0.0029574376713084796,0.11248850506521321,0.0003348042285903714,0.9936485685073684,-1.1604061129350073e-18,0.0012311832416874579,0.010807916055223039
1730090048.2909045,-2.2165753972642337,-0.0634230137523918,9.63590292015629,-0.0032690497014455657,0.11280624316205311,0.00037114022353090196,0.9936115574371344,-6.962436677610044e-19,0.0007387099450124747,0.010315960186292107
1730090048.2990212,-2.2222641970987747,-0.06510828701120071,9.636445845111352,-0.003355613749544349,0.11307847067162193,0.0003818993423045335,0.9935803205981001,-4.177462006566026e-19,0.002145986212855611,0.009595096603471517
1730090048.3068938,-2.241239787790515,-0.059894526650079806,9.647066667223061,-0.003083212982609311,0.11388667620062043,0.00035343814984505317,0.9934888997181363,-2.5064772039396157e-19,0.0012875917277133666,0.008311198330855099
1730090048.3149319,-2.2413723944028243,-0.04886540495489163,9.63404612704282,-0.0025188274926007826,0.11404201809917161,0.000289139472855656,0.9934726921331537,-1.5038863223637694e-19,0.0007725550366280199,0.007540859367285249
1730090048.3229694,-2.226847328243257,-0.04679691509207561,9.639880752397566,-0.0024109713526624726,0.1132654680330317,0.0002748493343485573,0.993561797487322,-9.023317934182616e-20,0.00046353302197681194,0.007078655989143339
1730090048.3308969,-2.229145616184235,-0.05130190515876099,9.63979022512018,-0.002643052185853862,0.11337859729573524,0.0003016114571809288,0.9935482962498215,-5.413990760509569e-20,0.00027811981318608716,0.007652714085182256
1730090048.338897,-2.226215025960541,-0.05544142019486597,9.646918513734217,-0.0028542791282564206,0.11315442353603193,0.00032506340722796576,0.993573260438639,-3.2483944563057413e-20,0.0001668718879116523,0.008422839004267638
1730090048.3469815,-2.223738411328278,-0.06247411237082583,9.64568882308428,-0.0032167824264418277,0.11304657957225209,0.00036599431829257634,0.9935844147358565,-1.9490366737834448e-20,0.00010012313274699137,0.010161984140104961
1730090048.354909,-2.2315898290235294,-0.06046880335999549,9.64806347085252,-0.003112633206157338,0.11340380045505923,0.0003552780954741705,0.9935440419701322,-1.1694220042700668e-20,6.007387964819482e-05,0.011205471221607356
1730090048.3630168,-2.2315122763203674,-0.06620880276795041,9.654994923331824,-0.003405676858884522,0.1133211777686358,0.00038843978001012417,0.993552495416724,-7.0165320256204e-21,3.604432778891689e-05,0.011831563470508791
1730090048.370924,-2.2333811060265956,-0.08162381071350461,9.659393214985423,-0.004196630269919994,0.11336111083860718,0.00047882554820144886,0.9935448744620995,-0.0017027602458481264,2.1626596673350132e-05,0.012632908881311685
1730090048.378916,-2.2311505215261134,-0.08656325249255588,9.657243786657268,-0.004451609176257509,0.1132758443468747,0.0005075316030573186,0.9935534754983832,-0.002724416393357002,1.2975958004010078e-05,0.012262336004869357
1730090048.3868806,-2.2226295658453554,-0.06917620344865853,9.63871587770725,-0.0035644258884649873,0.11307033109442007,0.00040563478366417244,0.9935805103536935,-0.001634649836014201,-0.0021206647325077523,0.0111886121560799
1730090048.3948812,-2.2182352529349476,-0.05970165468638262,9.639570140638021,-0.0030760578002955933,0.11284653603281752,0.00034935568652003584,0.99360760621304,-0.0009807899016085206,-0.0034008491468148095,0.008841617600958097
1730090048.4028854,-2.2153592450226873,-0.05784764808526708,9.634097194246095,-0.0029822561282367497,0.11276752112616203,0.000338462079518508,0.9936168666900069,-0.0005884739409651123,-0.004168959795399043,0.007007730806422984
1730090048.4109287,-2.2090846571210343,-0.06200248777694149,9.651642980854298,-0.0031908273238629237,0.11226303537069132,0.00036049267660063903,0.9936733364417999,-0.0003530843645790674,-0.004629826184549584,0.0042046384838537905
1730090048.4190366,-2.198616139731605,-0.06090408910171177,9.652593646178595,-0.0031341873047490824,0.11174034926338669,0.0003524240255270601,0.9937324323044616,-0.00021185061874744044,-0.004480655956577877,0.0025227830903122744
1730090048.4268916,-2.191856188965916,-0.0580902684024333,9.655797667199344,-0.0029885262052721526,0.11137413433908615,0.00033492979268289743,0.9937739978150835,-0.00012711037124846426,-0.004816843881256885,0.0015136698541873645
1730090048.4348931,-2.1846877563482994,-0.049937631500444356,9.66059312180398,-0.0025679590670574493,0.11097081262375248,0.0002867404726185955,0.9938203067515552,-7.626622274907855e-05,-0.00544424669752632,0.0009082019125124187
1730090048.4430163,-2.183977999267964,-0.043609528363157235,9.65054170560192,-0.0022448677344102585,0.11104781234222912,0.00025083972220677815,0.9938124979201529,-4.575973364944713e-05,-0.006246378448750013,0.0022476813933555778
1730090048.4509017,-2.184988666015857,-0.05082599411750371,9.664861569992011,-0.0026124963647352704,0.11093825321340513,0.0002916269223348123,0.993823824322219,-2.7455840189668277e-05,-0.007579037622408292,0.004754129327709599
1730090048.4588954,-2.176736519922014,-0.05970485672440847,9.673453488626066,-0.003066317887144902,0.11043921628505383,0.00034072764776152734,0.993878091672026,-1.6473504113800965e-05,-0.008378633126603259,0.006257998088322012
1730090048.4669273,-2.184235080898521,-0.061440871798316955,9.676214438146342,-0.003154449300598192,0.11077517665361829,0.0003516003882406787,0.9938404228366526,-0.001712644348316407,-0.00885839042912024,0.008011699467613523
1730090048.4749014,-2.194719721634816,-0.06391900183875579,9.672603764206166,-0.0032826879786618285,0.1113271486451502,0.0003677402537390384,0.9937783227165308,-0.00273034685483797,-0.008720554749168396,0.009489610356650462
1730090048.4828866,-2.1825751532933895,-0.05750501438450347,9.660381712869402,-0.0029571892538664186,0.11086918120292559,0.00032989642931246404,0.9938305544002235,-0.0033409683587509085,-0.00863785334119729,0.010802046951534656
1730090048.4908857,-2.1733730509604086,-0.061318067224452086,9.674596297008751,-0.003148859551865685,0.11026205267111826,0.00034933151298842234,0.9938975009485477,-0.003707341261098671,-0.008162542434952595,0.012015198969927206
1730090048.4988837,-2.1714430920508545,-0.06743662158467126,9.672351140021657,-0.0034638861236238553,0.1101917615684345,0.0003840326865847852,0.9939042356757836,-0.003927165002507329,-0.0070259757682817146,0.012743090180962735
1730090048.5072756,-2.166693814214888,-0.06799529204259963,9.666215642509087,-0.0034948650349436953,0.11002665950313058,0.0003868796183121586,0.9939224167112495,-0.004059059247352524,-0.006769725829741218,0.01275413484612202
1730090048.5149446,-2.1607317853551042,-0.07192179680759102,9.663013184333577,-0.003698009214958193,0.10976943555716989,0.0004083991525605958,0.9939501139169101,-0.0024354355484115142,-0.007893046051003015,0.012335071583755559
1730090048.522906,-2.162661231857594,-0.07762958199080462,9.664204171586475,-0.003990943896239339,0.109850274413525,0.00044107920631255437,0.9939400359313554,-0.0014612613290469086,-0.008567038183760093,0.011657943564873652
1730090048.5309591,-2.158072815774713,-0.07530816911635776,9.662763982444073,-0.003872276002660846,0.10964156068345714,0.0004271407957053301,0.9939635562736672,-0.0008767567974281451,-0.009397123524876372,0.010400286630620443
1730090048.5389075,-2.152207303966781,-0.07798546421395529,9.661181608460584,-0.004010715437207375,0.10937116079919479,0.00044130763016259365,0.9939927910174671,-0.000526054078456887,-0.010320864791008171,0.009220002408606487
1730090048.5468972,-2.152518719538272,-0.07695821944634192,9.66526000755682,-0.003956231085343209,0.1093420250574087,0.00043519513540610195,0.993996217496394,-0.0003156324470741322,-0.010449419489225219,0.007234761691012018
1730090048.5550337,-2.153184409213197,-0.08974940188264889,9.658848500871983,-0.004616762886340889,0.10944312747653809,0.0005083320055987185,0.9939822075606674,-0.00018937946824447931,-0.009675172185231385,0.006469307321917368
1730090048.5629082,-2.1497531003619024,-0.08162238038740184,9.661705361509519,-0.004197582265131933,0.10924475148447255,0.0004613290787960092,0.9940059113263383,-0.00011362768094668759,-0.008784933741373051,0.006010034700460579
1730090048.5709248,-2.1493702562132353,-0.08392877247072235,9.665095419054149,-0.004314700112818514,0.10918876788222318,0.00047395504275244094,0.9940115551128749,-6.817660856801254e-05,-0.009102170797982114,0.005734471127586505
1730090048.5789032,-2.1374089615892693,-0.0915375320371209,9.665453512418816,-0.004705979241884538,0.10859769371393774,0.0005141048155509193,0.9940745094687959,-4.090596514080753e-05,-0.009718203093409584,0.005569132983862061
1730090048.5869255,-2.146033915771921,-0.08748366180039754,9.669259670927852,-0.004495614068235121,0.10897956035414541,0.0004928706575879343,0.9940337026266672,-2.4543579084484515e-05,-0.009236442347742003,0.005469930097627395
1730090048.59488,-2.1634193167483082,-0.07523511285172291,9.663642500554758,-0.0038680549984889553,0.10989381539949886,0.00042766882782436063,0.9939357145141949,-1.4726147450690708e-05,-0.009798766023265518,0.0054104083658865956
1730090048.6028855,-2.1597247675392195,-0.07075902547470563,9.662666399991057,-0.003638375036937333,0.10972402503607985,0.00040164495653821034,0.9939553507267321,-8.835688470414424e-06,-0.010561850290041658,0.005800385388304147
1730090048.6109283,-2.1565503573497034,-0.073340616700839,9.658489437162602,-0.0037727916950031047,0.109613938494986,0.0004160606548569684,0.9939669901078079,-5.3014130822486546e-06,-0.011019700850107342,0.006885751724678741
1730090048.618931,-2.1594341145563063,-0.060524361475581524,9.655983259465529,-0.003114265605050476,0.10978395304067515,0.000343977267266429,0.9939505353306791,-3.1808478493491927e-06,-0.011720101247608784,0.007536971526503497
1730090048.62699,-2.162361469710346,-0.05738359149472392,9.652803611685178,-0.0029535739099343867,0.10996260017261918,0.00032676571544896615,0.9939312834339216,-1.9085087096095153e-06,-0.01214034148610965,0.00792770340759835
1730090048.6348977,-2.1617236811426137,-0.06148463365659997,9.662866831317746,-0.0031614075890203075,0.10982061522256832,0.00034930228557386654,0.9939463345483528,-1.1451052257657092e-06,-0.013243865752134232,0.0073107624133312
1730090048.6428962,-2.1543978231875216,-0.05245309098497561,9.669383603429319,-0.0026953524543482945,0.10939132698990141,0.00029662942277269616,0.9939950626967524,-6.870631354594254e-07,-0.013905980311748983,0.006940597816770909
1730090048.65102,-2.1401860816078253,-0.06594835849723536,9.667787002877905,-0.0033896227164525975,0.10871135945637425,0.0003706896061298838,0.9940675094641224,-4.1223788127565526e-07,-0.01430324904751783,0.007144189120296766
1730090048.659104,-2.143630044960789,-0.06303219136787247,9.672814546697445,-0.003238015715298635,0.10882580138410626,0.00035448690295813805,0.9940554987254837,-2.4734272876539315e-07,-0.014967300350441172,0.00726634390241228
1730090048.666904,-2.147611784300692,-0.06439495324845786,9.666972526846592,-0.0033099203452600094,0.10908422342071902,0.0003632296854824483,0.9940269335849016,-1.4840563725923588e-07,-0.01621711125511924,0.006488256648757526
1730090048.6749275,-2.145930685082368,-0.05898768606040284,9.675677743402877,-0.003029326976262364,0.10890772651422914,0.0003318928079807833,0.9940471921044477,-8.904338235554153e-08,-0.017818377920850142,0.007298474480950768
1730090048.682924,-2.1590478153462955,-0.060292308901866695,9.659831898727273,-0.003101111704065503,0.10972287510550609,0.0003423314913999924,0.9939573213141147,-5.342602941332492e-08,-0.018779137920288687,0.008210295241728744
1730090048.6908922,-2.1494404213855116,-0.06299044393487001,9.664450181716832,-0.0032385317601105,0.10920142022686243,0.0003557818700215458,0.9940143032933358,-3.205561764799495e-08,-0.020206974042875876,0.009183077759657564
1730090048.6988935,-2.143915405175057,-0.07777743408553138,9.651898260885568,-0.004004005152542837,0.10906581015388737,0.0004393244274601767,0.994026369867652,-1.9233370588796967e-08,-0.02148936577789022,0.009766747270414855
1730090048.7071197,-2.1434734374409716,-0.07707282153530319,9.671182166980559,-0.003959927437989278,0.1088344597834045,0.0004335553918188324,0.9940519057715561,-1.154002235327818e-08,-0.021833110757436797,0.010116948976869228
1730090048.7149327,-2.1508697021130203,-0.07305875151493192,9.681315989641462,-0.003749659707172317,0.10908688248584045,0.00041149735927316654,0.9940250614504266,-6.924013411966908e-09,-0.022465047806626774,0.010752760062203885
1730090048.7230027,-2.1426181921174217,-0.06562248601638102,9.67494643460519,-0.0033703621777139586,0.10875288300736353,0.0003687257157222348,0.9940630337849428,-4.154408047180144e-09,-0.02326990009760279,0.011134246713404678
1730090048.7308972,-2.1379067062860777,-0.0690615921957661,9.662505575606865,-0.003551593523048955,0.10865661800454243,0.0003882050623103499,0.9940729222969971,-2.4926448283080864e-09,-0.024178501533650434,0.011788828765587185
1730090048.7390144,-2.1231088064864903,-0.06250592992683467,9.661026564358258,-0.0032152228025800447,0.10794725287672775,0.0003491163238371006,0.994151362246459,-1.4955868969848519e-09,-0.02472366239527902,0.012607268058358722
1730090048.7470183,-2.1082445624563473,-0.052587028415085176,9.679771611222376,-0.002700066287882431,0.10701770714628449,0.00029062500716627986,0.9942534060974085,-8.97352138190911e-10,-0.025476448973718202,0.012672641572559613
1730090048.7549107,-2.106748041184746,-0.049987569832254226,9.674259227719753,-0.0025680671342033896,0.1070033722458852,0.00027637956042445504,0.9942553027133129,-5.384112829145466e-10,-0.026779501043705772,0.011860485558156084
1730090048.762889,-2.1015405654335035,-0.0690180289598994,9.68411990674904,-0.003542242056587854,0.10664129002079674,0.0003799181481747878,0.9942911763895491,-3.2304676974872793e-10,-0.02798702234716035,0.010947501888051936
1730090048.770926,-2.1108659286155707,-0.06200095165328339,9.670882700885361,-0.003186253435733673,0.1072405834110765,0.0003436794172430283,0.9942279351050006,-1.9382806184923677e-10,-0.028711535129233093,0.009548331563065383
1730090048.7789288,-2.1255591128334053,-0.07455011689040753,9.675390225999967,-0.0038290573573548327,0.10791149253722812,0.0004156294615213489,0.9941530442292538,-1.1629683710954206e-10,-0.02914624279847674,0.008283139306611419
1730090048.7868786,-2.1240799562254336,-0.07274222955807264,9.66660257309998,-0.003739591143130555,0.10793381363910085,0.0004060030593715784,0.994150965645016,-6.977810226572524e-11,-0.028981377338560897,0.007524023952739041
1730090048.7948866,-2.108348411967682,-0.05801054769578108,9.667076065344363,-0.0029823924267244084,0.10715812460642048,0.0003214398876433046,0.9942374657709527,-4.1866861359435144e-11,-0.029308148124073424,0.007068554740415614
1730090048.8029006,-2.0979518047489685,-0.06090312671317177,9.667360160690993,-0.003131188380607976,0.10664437983318596,0.00033584054009123206,0.9942922402998285,-2.5120116815661087e-11,-0.030781280779767037,0.006795273213021558
1730090048.811082,-2.0742361682985995,-0.05689259013923118,9.669685399393112,-0.0029246873961164188,0.10545480990879591,0.00031015308611238667,0.9944197469257124,-1.5072070089396652e-11,-0.03251654049610726,0.007482684419509188
1730090048.8189406,-2.07580851738541,-0.047064243048382456,9.661264315807742,-0.00242151365334931,0.10562172893844135,0.00025720392639519565,0.9944033992770848,-9.043242053637991e-12,-0.034409076448835466,0.008320821204863797
1730090048.826897,-2.0810614898257773,-0.04044897429582635,9.66387311096902,-0.0020805393266289784,0.10585287143666303,0.0002214758443602347,0.9943796015170333,-5.425945232182795e-12,-0.03597028808193442,0.00839801321461453
1730090048.8350327,-2.0796642901357005,-0.04126821636460518,9.663523026737662,-0.0021227697069812258,0.10578783025737237,0.00022583091846496334,0.9943864328411791,-3.255567139309677e-12,-0.036907015061793794,0.008444328420464971
1730090048.842903,-2.086487415634155,-0.04630874476016936,9.662115875368768,-0.002382295764705415,0.1061379182959789,0.00025428901958871963,0.9943485316043766,-1.953340283585806e-12,-0.037894741311171445,0.008046427482513203
1730090048.8508956,-2.0891447699371337,-0.047417700469382866,9.658877382887276,-0.002440116368998344,0.10630291206313375,0.00026087041167037006,0.9943307642156265,-1.1720041701514835e-12,-0.039338757183722095,0.007807686919742143
1730090048.8589482,-2.0926545438470456,-0.050716695721082845,9.668665875533147,-0.0026072172600815837,0.1063710954799783,0.0002789159498467161,0.994323043417199,-7.0320250209089e-13,-0.040205166707252486,0.007664442582079507
1730090048.8669,-2.0961969291890865,-0.04599232822366532,9.666398685476139,-0.0023648556632610914,0.10656953711765847,0.0002534657178317998,0.9943024072038394,-4.21921501254534e-13,-0.042002082605756816,0.006301425795095831
1730090048.8749237,-2.093294536907983,-0.047467270713496074,9.657616346295448,-0.002442926552371841,0.10652037536015997,0.00026171124873942356,0.9943074842573663,-2.5315290075272037e-13,-0.04308023214485941,0.003780855477057498
1730090048.8830185,-2.0793426730725244,-0.05290121936169139,9.660008388099534,-0.0027221241369089298,0.10580845974265773,0.0002896507998342117,0.9943827613094889,-1.5189174045163222e-13,-0.04372712186832098,0.002268513286234499
1730090048.8908963,-2.0700138741071865,-0.049457823902171086,9.666232016502299,-0.0025434516857625322,0.10528413531713735,0.00026928262129497817,0.9944388916323188,-9.113504427097932e-14,-0.044966635825321975,0.0013611079717406993
1730090048.8990183,-2.061064712403765,-0.047152366460443275,9.673078655702161,-0.0024233128210396546,0.1047722699017826,0.000255301867275504,0.9944932547964094,-5.4681026562587595e-14,-0.04656172432244664,0.0008166647830444195
1730090048.907041,-2.066708543018431,-0.054867058304000335,9.692270109681061,-0.0028141800755593477,0.10484803347027659,0.00029669776359797723,0.9944842292557259,-3.280861593755256e-14,-0.047518777420721435,0.0021927591156747778
1730090048.9149272,-2.0581238330864493,-0.058538192746072075,9.689419772107465,-0.0030034838305837085,0.10445612541876946,0.00031545945246388865,0.994524910413365,-1.9685169562531535e-14,-0.048518699341148344,0.0013156554694048665
1730090048.9229212,-2.0472269231428855,-0.05188232726873699,9.701356519026199,-0.0026589086088441966,0.10379764649744375,0.00027748832379659056,0.9945948430324941,-1.181110173751892e-14,-0.049970032616328555,0.0007893932816429199
1730090048.9309127,-2.051941524979481,-0.04573402648819532,9.695829298378609,-0.0023450828523776538,0.10408678042291132,0.0002454259097027391,0.9945654239383808,-7.086661042511352e-15,-0.051266522642898715,0.0004736359689857519
1730090048.9389153,-2.0375320341283136,-0.04755170983822969,9.68844282316779,-0.0024403130872500847,0.10345538001532056,0.00025382629347867427,0.9946310696887236,-4.251996625506811e-15,-0.05247010672030284,0.00028418158139145114
1730090048.9468923,-2.02577387745941,-0.03762899221153156,9.694306005179973,-0.0019300600679632615,0.10281754017291783,0.0001995017187658916,0.9946983404530183,-2.5511979753040866e-15,-0.05404363728966938,0.0001705089488348707
1730090048.9549232,-2.0266198489365834,-0.029760000307387686,9.69399319173103,-0.001526490064313132,0.10286269231577737,0.00015785640375578982,0.9946943809225972,-1.5307187851824519e-15,-0.055413445692751334,0.0022307556766110806
1730090048.9630265,-2.0209025075064817,-0.04826236126841699,9.691650722167525,-0.0024761912539352365,0.10260466850952704,0.0002554176180174887,0.9947190986599003,-9.184312711094711e-16,-0.05793809098044864,0.003892593774738838
1730090048.9710233,-2.0038251531855296,-0.047632189710268946,9.690484660595436,-0.002444371659309724,0.10177638964759755,0.0002500786644894732,0.9948042666867453,-5.510587626656826e-16,-0.05987856821452905,0.004464006572153461
1730090048.978925,-2.002197866569521,-0.04509930528123949,9.693136905976404,-0.002313785425037796,0.10166947231547245,0.00023646730440816027,0.9948155149972855,-3.306352575994096e-16,-0.061042854554977294,0.0048068542506022344
1730090048.9869115,-1.9873351249710094,-0.046452616616009315,9.69640419436709,-0.0023826061373398164,0.10090469153157557,0.00024165019306041574,0.9948932143803656,-1.9838115455964576e-16,-0.061741426359246246,0.004586872796209467
1730090048.9948902,-1.969080093537293,-0.04199735976452746,9.718236441180801,-0.002149508899918046,0.09978782913762585,0.0002155713051933319,0.9950063930932813,-1.1902869273578744e-16,-0.06216056944180762,0.0027521236777256802
1730090049.0029552,-1.9404099823919068,-0.029507978846997726,9.724153184288559,-0.0015095948614939284,0.09831954713810855,0.0001491454809756704,0.9951537396450545,-7.141721564147246e-17,-0.062412055291344436,0.001651274206635408
1730090049.0109289,-1.933024142511316,-0.026802753616792383,9.709028457203994,-0.0013733660075207113,0.09810435067764682,0.00013538639587547222,0.9951751764963044,-4.285032938488347e-17,-0.06256294680106653,0.0009907645239812448
1730090049.0189302,-1.9276349579188987,-0.03427758478726293,9.706178545269662,-0.0017569299966222818,0.0978662722304966,0.00017277384788978085,0.9951980084917227,-2.571019763093008e-17,-0.06307917176836181,0.0005944587143887468
1730090049.0270293,-1.9093179767044641,-0.03804422299149838,9.70135613595086,-0.001951131178749175,0.09700917647625329,0.00019017495865554876,0.9952815564452139,-1.5426118578558047e-17,-0.06338890674873898,0.00035667522863324806
1730090049.0349102,-1.899285468639866,-0.04221956724216465,9.71043369866036,-0.0021633687340893333,0.09642570481877877,0.00020958146321720428,0.9953378116808044,-9.255671147134827e-18,-0.06357474773696528,0.00021400513717994882
1730090049.0429018,-1.8887169806468103,-0.04711897545272066,9.718513858112232,-0.002412553492724824,0.09582608026392292,0.00023225504622800136,0.9953951416319503,-5.553402688280896e-18,-0.0641119423913631,0.00012840308230796928
1730090049.0510244,-1.879502845858789,-0.05053746071108553,9.724319634447417,-0.0025861687799993392,0.0953156989491116,0.00024763076391133175,0.9954437040555777,-3.3320416129685376e-18,-0.06485994924546382,0.001779802095232908
1730090049.0588925,-1.8660734995074608,-0.0597711568465732,9.719902234770013,-0.0030602551297024645,0.0946941527430148,0.0002910977213848467,0.9955016662652757,-1.9992249677811224e-18,-0.06573444341938628,0.0036220216259119347
1730090049.0668933,-1.8549034295384608,-0.05764992921536578,9.725870920940132,-0.0029500187750108858,0.09408625703518564,0.0002787941713365,0.9955596395496084,-1.1995349806686734e-18,-0.0654077598008157,0.005578733467243413
1730090049.0749233,-1.8388640010824513,-0.06092617579093822,9.728494451978142,-0.0031170736090979576,0.09326915866930353,0.0002920011232738526,0.9956360091060286,-7.19720988401204e-19,-0.06478605956821132,0.006752760572042301
1730090049.0832143,-1.8191846970361896,-0.055230478423781676,9.733659873091181,-0.002824462019681577,0.09224916035541683,0.00026167108422630973,0.995731914902934,-4.318325930407224e-19,-0.06356165930572462,0.007882866896383664
1730090049.0910876,-1.7810408963467137,-0.05660146332380026,9.723591016628147,-0.002898068370069782,0.09045372859986064,0.0002632212424703731,0.9958964077135144,-2.590995558244334e-19,-0.06154994896384651,0.008560930690988483
1730090049.0990193,-1.748098968960372,-0.049762608951311404,9.739815778189778,-0.002544098470860741,0.08867639230830271,0.0002264944933736149,0.9960572140747734,-1.5545973349466005e-19,-0.05949154263579558,0.008967768967751373
1730090049.1069264,-1.7127715017375513,-0.050208279482114974,9.756972660273242,-0.002562817716745416,0.08677571274804921,0.00022323313914483775,0.9962245519005163,-9.327584009679603e-20,-0.056128048531654866,0.008786181872347077
1730090049.1149428,-1.6896596600757336,-0.05286988346075336,9.781871419650273,-0.002692134309784178,0.08541722460605801,0.0002307989945450633,0.9963416065212174,-5.596550405807762e-20,-0.052407191823322305,0.008251539553642467
1730090049.1228952,-1.6607090846196588,-0.04728424086746764,9.778854162825318,-0.0024087626925744575,0.08401044090206407,0.00020307972361268068,0.9964619422940133,-3.357930243484657e-20,-0.048046227491012616,0.006653683978033606
1730090049.1308982,-1.6354378738674986,-0.03890503182516808,9.767945842421755,-0.001984327930285652,0.08284929669654544,0.00016496764594660837,0.9965600981703153,-2.014758146090794e-20,-0.04372688864577868,0.003992210386820163
1730090049.1389966,-1.6176415255900305,-0.0372293887240071,9.77480837947649,-0.0018976846183659905,0.0819096179107698,0.00015596297846537117,0.9966379427667553,-1.2088548876544763e-20,-0.03985821515425222,0.002395326232092098
1730090049.1469245,-1.606006035959487,-0.03981530535354488,9.775813439551127,-0.002029387390874646,0.0813238329558897,0.00016558637208439128,0.9966856517284343,-7.253129325926857e-21,-0.034982870690564154,0.0014371957392552586
1730090049.1549017,-1.5834624313901453,-0.028677586532439427,9.79892197120138,-0.0014584156906674334,0.08001924580131445,0.00011707687757578936,0.9967922449628441,-4.351877595556114e-21,-0.03035490376650319,0.0008623174435531552
1730090049.1628947,-1.5500643948692432,-0.029416980386260533,9.806801586041141,-0.0014950288005577737,0.07830095671912002,0.00011742283331593503,0.9969286390096506,-2.6111265573336682e-21,-0.023746913058908324,0.0005173904661318931
1730090049.1709232,-1.5106325395094367,-0.027466415038396946,9.810332254114918,-0.0013956196398718166,0.07631726218935816,0.0001068215107748356,0.9970826025595404,-1.5666759344002008e-21,-0.014248147835344994,0.00031043427967913586
1730090049.1789224,-1.4769177793208965,-0.03659114296835067,9.809577612966997,-0.0018596481623727274,0.07464803662621058,0.00013920772434451278,0.9972081994036017,-9.400055606401204e-22,-0.0064204383938968376,0.0001862605678074815
1730090049.1869268,-1.4727300743308191,-0.0468543830466354,9.807448887116134,-0.002381794921078806,0.07445536796082199,0.0001778315245054889,0.9972214867373854,-5.640033363840723e-22,0.003384468008516435,0.0001117563406844889
1730090049.1948867,-1.4759635353211478,-0.03888653729868437,9.828677147211085,-0.001972493041079164,0.07445796596584046,0.0001472769268445188,0.9972221913319717,-3.384020018304434e-22,0.010970172095812525,6.705380441069334e-05
1730090049.202893,-1.4915505613782356,-0.05325944313116374,9.82968251513329,-0.0027010967552166393,0.07522285223202724,0.00020376226167308353,0.9971630684393291,-2.03041201098266e-22,0.01807573491696237,4.0232282646416e-05
1730090049.2109632,-1.5061700206648319,-0.05063043882791699,9.827412693894429,-0.002568209560977555,0.07596487199175996,0.00019565972127371704,0.9971071678812663,-0.0017027602458481264,0.025318903039886497,2.41393695878496e-05
1730090049.218957,-1.5178147382289773,-0.0562356412264377,9.81623457434447,-0.0028556217018002473,0.07662727495014363,0.00021946468035640367,0.9970556945294808,-0.002724416393357002,0.031367564159489096,1.448362175270976e-05
1730090049.2269793,-1.5341389552420739,-0.067978468476097,9.815992047096916,-0.0034517573057933214,0.07743787422849102,0.0002681034262739138,0.9969911680285974,-0.0033374100818623275,0.03967935150733301,8.690173051625855e-06
1730090049.2349648,-1.5506372500983694,-0.07646068582198631,9.796453497301117,-0.0038898770228106114,0.07840807818881575,0.00030594200699290096,0.996913711677682,-0.004130896356427554,0.04679487422334951,0.0017079743496791018
1730090049.2429295,-1.5674794118265996,-0.09256334386623866,9.789997611075984,-0.004711797178859813,0.07929369522629208,0.000374800143558896,0.9968400916844976,-0.004606988121166691,0.056172468590503795,0.004004615040041682
1730090049.2508988,-1.5711203643811158,-0.09528175387833694,9.787081760004964,-0.00485152670660392,0.07949737499478716,0.0003869127846976221,0.9968231941302582,-0.004466953118548141,0.06477885564103059,0.005808289515721262
1730090049.2588923,-1.58455768371656,-0.12109423665317404,9.776952543551806,-0.006171705548601942,0.08024285507571563,0.0004968469897463781,0.9967561122977816,-0.0026801718711288846,0.07079406799427072,0.006464804139666979
1730090049.2669444,-1.612731369263139,-0.12724433984346692,9.782846021980692,-0.0064804654081890315,0.08159242725937621,0.000530537082733731,0.9966445694992877,-0.0016081031226773308,0.0756802655906009,0.006858712914034408
1730090049.2749205,-1.6317903620852274,-0.12806135976545513,9.775608201567321,-0.006526334316071836,0.08259690857008173,0.0005409149635648536,0.9965615209639908,-0.0009648618736063984,0.07903767420986103,0.0075207482401168976
1730090049.282922,-1.6647735727198865,-0.1278333112206012,9.7712655093193,-0.006516655880843228,0.08426806796595705,0.0005511180892256546,0.9964216588303705,-0.000578917124163839,0.08147780944287915,0.007917969435766392
1730090049.290883,-1.6998863897256817,-0.12889358292376696,9.764350330982204,-0.006574295705729503,0.0860659643395456,0.0005679428969473161,0.9962675874779544,0.001355409971349823,0.08294189058269003,0.0073049220302320245
1730090049.298899,-1.732446247897909,-0.12761438461754143,9.763553106304165,-0.006508628884720561,0.08768418146110539,0.0005729227854651165,0.9961268964499548,0.002941696290120052,0.0846717193895006,0.006937093586911404
1730090049.30696,-1.7479120199789797,-0.12277672281154048,9.761877670667264,-0.006262549766561242,0.08846426381106072,0.0005562035699334196,0.9960595088328695,0.0034677780199201575,0.0878380669808971,0.006290706459457
1730090049.3149474,-1.7638952478760594,-0.1035935544388774,9.759675308455046,-0.005284944249178187,0.08927620376307736,0.00047371805532202835,0.9959927732655196,0.002080666811952094,0.09101494572012112,0.005902874182984358
1730090049.3230195,-1.7864138735791513,-0.08154916611059207,9.743031000502716,-0.004167000640120392,0.09054132958248728,0.0003788451393934996,0.9958839090071999,0.0012484000871712565,0.09504952327096568,0.006095864878562804
1730090049.3312833,-1.8044740321553032,-0.06425239029135524,9.743818323202019,-0.0032826589675631064,0.0914282423324226,0.0003013917128384734,0.9958062109753795,0.0024518002981508804,0.09789595986293444,0.006211659295909873
1730090049.3388898,-1.8279993960998224,-0.048846501313485016,9.740459994165352,-0.002496160563430263,0.09262206842639842,0.00023219843012077835,0.9956981810301484,0.0031738404247386547,0.09917813175665366,0.006281135946318113
1730090049.3470151,-1.8411569338024716,-0.043433690583012885,9.728868190102727,-0.002222038689363609,0.0933800438817252,0.00020840521034996934,0.9956280362243615,0.004032754562153351,0.09952174483142316,0.007599892120949152
1730090049.3549063,-1.8622195655549205,-0.029651516840042108,9.727419771483511,-0.0015170259283055626,0.09443435432013543,0.00014390261959536444,0.9955299245369312,0.004548103044602169,0.09887653255336079,0.008391145825727777
1730090049.3628924,-1.893292497389593,-0.025931195748556516,9.729184342138153,-0.00132624671362007,0.09595035594495861,0.00012784381418120283,0.9953852289036891,0.004431622072609428,0.09848940518652338,0.007588827864208856
1730090049.3709834,-1.9114574161583653,-0.022980742595618282,9.714920193905938,-0.0011769492877116733,0.09698361477389084,0.00011468550686944846,0.9952852757390708,0.0026589732435656566,0.09868281882788296,0.007107437087297503
1730090049.3789506,-1.915413182605175,-0.014985546387449093,9.70085504114825,-0.0007685661966594161,0.09731579169722575,7.515034748273975e-05,0.9952532543753719,0.001595383946139394,0.09965024713562279,0.007244292682612723
1730090049.3868716,-1.9220962054615425,0.00274026030229617,9.701753335968245,0.00014052266347684074,0.09763705283113662,-1.3786087558934432e-05,0.9952220787230228,0.0009572303676836364,0.10023070412026668,0.008177786162725919
1730090049.3949394,-1.9227541368511443,0.01744588713840895,9.703489413690322,0.000894476029074653,0.09765235810598967,-8.776720483981147e-05,0.9952201812493006,0.0005743382206101818,0.10015328824959097,0.009163572312255869
1730090049.4028983,-1.949485113946624,0.0037637676346078705,9.710755984639974,0.000192804814206193,0.09889887725458713,-1.9162122537412167e-05,0.9950974698675998,0.0003446029323661091,0.09925545860426148,0.010180734063435868
1730090049.4109256,-1.9753399270105527,0.006567823569045972,9.717749549035938,0.00033616240280558553,0.10010158183267631,-3.3820261863509756e-05,0.9949771651478364,0.00020676175941966544,0.09786538069413973,0.012068101298529962
1730090049.418929,-1.998274839995394,-0.011142776317556792,9.709735259206719,-0.000570720707908473,0.1013094780623872,5.811844844448253e-05,0.9948547937035064,-0.001578703190196327,0.09703133394806668,0.013626211701048451
1730090049.4268932,-1.9976705778253612,-0.022247976581549696,9.697744080328718,-0.0011409129846661806,0.1014009327454585,0.00011628911345025902,0.9948449807044083,-0.0030756722214279547,0.09525383571603675,0.01626383818840767
1730090049.4349008,-2.0068848271639665,-0.031065878234086068,9.690549373001918,-0.0015941995176275592,0.10192719006797092,0.00016334320208447961,0.9947905708096273,-0.004399543701628962,0.09376164671535678,0.018697794203747266
1730090049.4430184,-1.9987664273042394,-0.029892274743186016,9.685274867941775,-0.0015348667392917974,0.10158119215109844,0.00015672447689026638,0.9948260556613364,-0.006470936774135662,0.09371771343787284,0.020583857874413053
1730090049.4508927,-2.0068240763532468,-0.042595641945520984,9.686659148059988,-0.0021867312992517314,0.10196330292442765,0.00022413504605168783,0.9947857321184534,-0.006862392494715618,0.09411704353284452,0.020864115953888464
1730090049.4588892,-2.0118980859486664,-0.04949940176887509,9.700178984929742,-0.0025375708887752134,0.1020746368124633,0.00026038252329381564,0.9947734724320556,-0.007097265927063591,0.09350526146690347,0.020180890678649647
1730090049.466896,-2.017097273200059,-0.05866948114921568,9.70254480306722,-0.003006852100119335,0.10230537184460652,0.0003092411181049404,0.9947484476500155,-0.006812499925010344,0.09313819222733882,0.018919575390582293
1730090049.4749248,-2.0250051888712073,-0.06129848678523253,9.713062260258301,-0.0031380898571540593,0.10258596276999396,0.0003236330299098966,0.9947191402080608,-0.006641640323778396,0.09291795068360004,0.017737096156279848
1730090049.482921,-2.034298921428193,-0.07197385647543639,9.69136057514912,-0.0036925583505005807,0.10326437573016127,0.00038336186276876196,0.9946470161577776,-0.005687744440115165,0.09193442563443271,0.015324848369850257
1730090049.4909518,-2.038917480298322,-0.06377444816260558,9.693423034542597,-0.003271139517007375,0.10347078052357643,0.0003402957488751914,0.9946270564502584,-0.003412646664069099,0.09006724042054622,0.011749049390682343
1730090049.4988859,-2.04767411977079,-0.07058639130967272,9.681731821213841,-0.003624680149058873,0.10402170211091083,0.00037910456188397685,0.9945683503226398,-0.0020475879984414593,0.08852123923075228,0.0070494296344094055
1730090049.5070176,-2.0581953471066146,-0.06485733039127238,9.673519992386506,-0.0033331036790984936,0.10462519987024738,0.0003506531001292975,0.9945060759062151,-0.0012285527990648756,0.08759363851687592,0.004229657780645643
1730090049.5149374,-2.069057066662406,-0.04944888553945093,9.669550575754169,-0.002542142412802802,0.10520215113813625,0.0002689320764357309,0.9944475715609145,-0.0007371316794389254,0.0870370780885501,0.0025377946683873857
1730090049.522922,-2.073658737067756,-0.04499222194867056,9.671239068597032,-0.0023125740923650028,0.10541088075404492,0.0002451368562602862,0.9944260345182268,-0.0004422790076633552,0.08670314183155461,0.0015226768010324313
1730090049.531021,-2.0689977141644817,-0.050219089272717954,9.67009738280861,-0.002581593914968624,0.1051934278469332,0.0002730827617811904,0.9944483915902702,-0.0002653674045980131,0.08650278007735732,0.0009136060806194588
1730090049.5388942,-2.065003999592439,-0.043538982860505775,9.667257589841416,-0.002238896500963678,0.10502730653121649,0.0002364536166260779,0.994466789950747,-0.00015922044275880784,0.08638256302483895,0.0005481636483716752
1730090049.5468905,-2.073142258153901,-0.03833381818310034,9.666990235057192,-0.0019712020652343583,0.10543066059292543,0.0002089903235890973,0.9944246811560954,-9.553226565528471e-05,0.08631043279332792,0.0003288981890230051
1730090049.5549138,-2.087123179599372,-0.03425303871259458,9.681195032147595,-0.001758672712728958,0.10596761752682915,0.00018741789339263998,0.9943680083251424,-5.731935939317082e-05,0.08584146459295929,0.00019733891341380304
1730090049.5629647,-2.094314631636576,-0.028931529038103622,9.689717910401837,-0.0014840993322041906,0.10623033274733037,0.00015855371188221447,0.9943404289851058,-3.439161563590249e-05,0.08428301348835202,0.00011840334804828182
1730090049.570995,-2.0991083431909296,-0.026696303897471546,9.70321134316493,-0.0013675213270350492,0.10632230935699608,0.00014622702057457305,0.9943307674190082,-2.063496938154149e-05,0.08292225276412561,7.104200882896909e-05
1730090049.5789566,-2.1223352842348704,-0.027031109975201677,9.68975958788138,-0.0013863937579177666,0.10760257656086615,0.00015005088448200659,0.9941930098902039,-1.2380981628924894e-05,0.08082872614520367,0.0017453854511455078
1730090049.5868669,-2.1298071043788127,-0.027950254119886633,9.672590568402656,-0.0014359898533243976,0.1081532165919361,0.00015622345528947136,0.9941331878919398,-7.428588977354936e-06,0.0795726101738505,0.0010472312706873046
1730090049.594878,-2.1515284484183037,-0.02874116077271323,9.660373795387297,-0.0014782880105708206,0.10935044591683911,0.0001626268651844065,0.9940021469769816,-4.457153386412961e-06,0.07839325052957657,0.0006283387624123828
1730090049.6028888,-2.189460952107623,-0.045256855887456066,9.656635034068316,-0.002328140246158386,0.11124857829911607,0.000260620786683414,0.993789849850674,-2.6742920318477766e-06,0.0759828744971641,0.00037700325744742964
1730090049.6109805,-2.2095868324950425,-0.05684221411841114,9.650800474786692,-0.0029255153928092192,0.11229748082193167,0.0003306207483939119,0.9936702711919357,-1.604575219108666e-06,0.07368526875479253,0.00022620195446845776
1730090049.6189423,-2.2312391673681193,-0.05804734507260918,9.645863218221626,-0.0029886707562275998,0.11341174737428243,0.00034115302029065237,0.9935435204455009,-9.627451314651994e-07,0.07060394506352148,0.00013572117268107465
1730090049.6269732,-2.2308230389950903,-0.06427708746348738,9.641703763452506,-0.003310827178394891,0.11343788492205663,0.00037801540024289963,0.9935395018780895,-5.776470788791196e-07,0.06747808066437275,8.143270360864479e-05
1730090049.6349769,-2.236319445955648,-0.0718456555542643,9.642799393081269,-0.003700124689557248,0.1136934583577919,0.0004234284904913968,0.993508896443429,-3.4658824732747175e-07,0.06517687196342148,0.0017516198680133132
1730090049.6429012,-2.2283645423292477,-0.06848593093021482,9.645372132186651,-0.0035263379686564797,0.11327578484141947,0.00040203893924349067,0.9935572453934312,-0.0021286582602585546,0.06209338649700259,0.0031794222281181462
1730090049.65092,-2.231253045465908,-0.07724400362648828,9.651704178970194,-0.003974628370217685,0.11334450365173744,0.0004534279356184653,0.9935476939857327,-0.003405645263465291,0.059817605155689235,0.004461793705643077
1730090049.6588972,-2.2226910802092323,-0.06550001545714297,9.650715003720006,-0.0033708675043766143,0.1129384624134584,0.00038315423885465575,0.9935961927024384,-0.0020433871580791746,0.05589799598212902,0.0056569066536200675
1730090049.6668944,-2.2244970858696798,-0.06132666454772327,9.647966717075754,-0.0031569524735927095,0.1130581029243411,0.0003592240916507221,0.9935832979535639,-0.0012260322948475046,0.05141778017068274,0.007225354545330325
1730090049.674893,-2.2121731599690735,-0.07055424213683709,9.652782089571623,-0.003630421032399984,0.11240049771674647,0.00041066628771525826,0.9936562682886649,-0.0024383796227566293,0.047452580499428874,0.00816642328035648
1730090049.6828918,-2.2023846027685536,-0.08207629284069601,9.648728128254692,-0.004225258642321564,0.11196570042426948,0.00047608194327444277,0.9937029749698305,-0.004017168142426167,0.04464777063521452,0.008731064521372171
1730090049.6911259,-2.1957932079501945,-0.08156749811652697,9.653957196777034,-0.004196981793708789,0.11158488326878936,0.00047126705983926374,0.9937459318543509,-0.004113061131303827,0.04339057477814794,0.009069849265981587
1730090049.698918,-2.1947114130513667,-0.0798257002859318,9.643208268261533,-0.004111909470860917,0.11165185014342512,0.0004619949566988235,0.9937387700601771,-0.0024678366787822957,0.042636257263907996,0.009273120112747238
1730090049.7069292,-2.2010055209265227,-0.08189308374577783,9.641068474140512,-0.004219167801875798,0.11198380236627042,0.0004754734791050493,0.9937009613337517,-0.0014807020072693773,0.04005521644805387,0.008543702497882564
1730090049.7149305,-2.1944869185129448,-0.06757120303066982,9.639066337169854,-0.003482172948271915,0.11168835787070201,0.0003913692835046257,0.9937371040762181,-0.0008884212043616264,0.03808090189707937,0.007254671806039696
1730090049.722949,-2.1872238747405794,-0.052513730119183144,9.654863886774567,-0.002701970791766778,0.11115821453669432,0.00030222031606522105,0.9937990035000716,-0.0005330527226169758,0.0360449330435706,0.004352803083623818
1730090049.7308986,-2.183584308975207,-0.05066185135275988,9.653089668734662,-0.0026072162435235753,0.11099981731966123,0.0002912010331792788,0.9938169641238872,-0.0003198316335701855,0.034397661670003306,0.0026116818501742906
1730090049.7388957,-2.168950720883171,-0.040213337618296555,9.660883684053298,-0.0020680352210420347,0.11019787274468905,0.0002292900338493694,0.9939074904129409,-0.0001918989801421113,0.03255791872293887,0.0015670091101045744
1730090049.7469096,-2.152987963047481,-0.02245206140886856,9.6567015471019,-0.0011552368883002249,0.10946233914190108,0.00012721948755054475,0.9939902643147555,-0.00011513938808526677,0.030602692831776142,0.0009402054660627446
1730090049.7549071,-2.1549024763148164,-0.016104858671493007,9.659938348915437,-0.0008283687114685946,0.10952097724629598,9.1272835841167e-05,0.9939841351941003,-6.908363285116006e-05,0.028578177174154444,0.0005641232796376467
1730090049.7629006,-2.159403066599437,-0.021633923503677054,9.65469782502309,-0.0011133286855317807,0.1097988071685179,0.0001229858321695888,0.9939532017746578,-4.145017971069603e-05,0.026937777718119393,0.0020412342136307145
1730090049.7709258,-2.1446257486510683,-0.03596469003970624,9.660651476996275,-0.0018498429829405991,0.10900869247315922,0.00020285819147219662,0.9940390545118359,-2.4870107826417616e-05,0.026379228105960394,0.0037788808969506185
1730090049.7789416,-2.143420803194547,-0.039056486142964364,9.65799874386378,-0.002009426344344871,0.1089783130478088,0.000220296403304039,0.9940420720273943,-1.4922064695850569e-05,0.026044098338664994,0.004395778845480529
1730090049.7868855,-2.1470073989089156,-0.019603169029528616,9.65832246531241,-0.0010085188015161173,0.10915148777922407,0.00011074306072473242,0.9940246090220218,-8.95323881751034e-06,0.026268710539749787,0.0026374673072883173
1730090049.7948806,-2.131202843886365,-0.020620447560295293,9.66593872332807,-0.0010601226641336835,0.1082937495069227,0.00011548389216467645,0.9941183665042808,-5.371943290506204e-06,0.02597778779893863,0.0015824803843729903
1730090049.802886,-2.1293815561853346,-0.017639512188520924,9.67577572178981,-0.0009059677400273055,0.10809833161368425,9.851089582077595e-05,0.99413978907415,-3.2231659743037222e-06,0.025803234154451935,0.0009494882306237941
1730090049.8110912,-2.1325983465529976,-0.02159703494983131,9.676650097380527,-0.0011091069885082437,0.10824639023092192,0.0001207665158974024,0.9941234703491874,-1.933899584582233e-06,0.02569850196775992,-0.00113306730747385
1730090049.8189387,-2.1359649417696893,-0.01750720412419566,9.67310457991269,-0.0008993845969789704,0.10844975628198998,9.811678022298387e-05,0.9941015198875923,-1.1603397507493399e-06,0.025209972594282676,-0.0053624310605666576
1730090049.8268905,-2.1427733022200166,-0.026784893763579898,9.673371471092144,-0.001375908139545041,0.10878009567450508,0.00015056504145498709,0.9940648746394801,-6.962038504496039e-07,0.02491685497019633,-0.009602809558270468
1730090049.8348882,-2.1473371588222445,-0.031633247049163565,9.671137404139662,-0.0016252895645681958,0.10902768834545983,0.00017826448959081488,0.9940373684271876,-4.1772231026976234e-07,0.025592364518668587,-0.012147036656892755
1730090049.8432827,-2.1479206912894404,-0.04292196483106064,9.673867106790437,-0.0022046650614538314,0.10902598878373364,0.00024180782731199666,0.9940364252635165,-2.5063338616185737e-07,0.02770043049360007,-0.013673572916066128
1730090049.8509007,-2.1434824074494454,-0.051371136662308255,9.673828987218794,-0.0026387203868852944,0.10880850392277988,0.00028883110976815954,0.9940591849610345,-1.5038003169711442e-07,0.02896527007855896,-0.014589494671570148
1730090049.8590226,-2.116877420543886,-0.06721454723175994,9.687453064938698,-0.0034482190842064636,0.10735741035385135,0.00037234610100725547,0.994214442454767,-9.022801901826866e-08,0.029724173829534295,-0.013861977540486467
1730090049.8669314,-2.0963654452462532,-0.08150899689374347,9.690360267918297,-0.0041807467857029575,0.10632004731428005,0.0004470349820235724,0.9943230707647932,-5.413681141096119e-08,0.03060520614158152,-0.012574087138912195
1730090049.8749235,-2.091001444882127,-0.08721262469874608,9.688513287215823,-0.004474254078158968,0.10607600492075732,0.00047730882164217126,0.9943478437683587,-3.2482086846576714e-08,0.03113382552880986,-0.01094997277504357
1730090049.8828883,-2.0923320278179482,-0.09494436437002889,9.690038720620509,-0.0048700937069527895,0.10612412645061395,0.0005197759419503512,0.9943408277876101,-1.948925210794603e-08,0.030599617038222802,-0.009549814095260362
1730090049.8909502,-2.1034254447181127,-0.0871335595399861,9.6921510814934,-0.004468234589915881,0.10664630100651577,0.0004792587606188816,0.9942868658854533,-1.1693551264767616e-08,0.030279091943870566,-0.008709718887390439
1730090049.899018,-2.1131939570164144,-0.09058736228649165,9.686714733368694,-0.004647661191372062,0.10718232570278723,0.0005010389354435346,0.9942283929069704,-7.016130758860569e-09,0.02923539676433516,-0.009057041885592549
1730090049.906976,-2.1394057785067235,-0.09313848426642624,9.695423932794654,-0.004773602375842911,0.1083711756325334,0.0005203917835354736,0.9940989036332207,-4.209678455316341e-09,0.027332109472227823,-0.010116815807437876
1730090049.9149458,-2.1541751907368463,-0.09059901463212137,9.684129460995152,-0.004648420813086574,0.10921593826627762,0.0005107424961604615,0.9940070473365185,-2.525807073189805e-09,0.02619013709696342,-0.011178370222007105
1730090049.92294,-2.163276258240936,-0.0866811311913822,9.681422920737715,-0.004448415115113679,0.10969092818284926,0.0004909180543959546,0.9939556684665632,0.0017027587303638824,0.02635633379472884,-0.012666682993672705
1730090049.9310215,-2.1574841509406553,-0.08385156079490745,9.669743349610599,-0.004308486677456585,0.10953547215927362,0.0004747934958059137,0.9939734361905913,0.0010216552382183294,0.02773312199777419,-0.013559670656672065
1730090049.9388983,-2.1327004917850965,-0.07353469258046008,9.67135473291089,-0.0037783115239060677,0.10830512023541285,0.0004116348342291359,0.9941104344335112,0.0006129931429309976,0.03153902534983562,-0.01366977319300965
1730090049.9468958,-2.110647691311292,-0.07404833630022918,9.668969680566846,-0.0038060973297906614,0.1072492208992047,0.0004105721100104492,0.9942247983580838,0.002070556131606725,0.03509963754545857,-0.012884454591888136
1730090049.9549692,-2.116330204142244,-0.08991883332310624,9.676397195302998,-0.0046181446145113535,0.10744653418031053,0.0004990983973679439,0.9942000130425208,0.001242333678964035,0.03808738498575641,-0.011987573369753198
1730090049.9629066,-2.1202185521728465,-0.0936950475524575,9.681093124310705,-0.004809663732968042,0.10758625433453363,0.0005204808304578288,0.9941839840355234,0.000745400207378421,0.039454343388473076,-0.010172374452086139
1730090049.9709048,-2.137635031450192,-0.09380599459592762,9.676009816236814,-0.0048173897346036896,0.10849415758186497,0.0005257684165646236,0.9940852750616109,0.00044724012442705254,0.038571758184254956,-0.008231874978561841
1730090049.9789252,-2.1437753560283186,-0.0919572014938847,9.681578957369041,-0.004719605426248624,0.10873471100467048,0.0005162517432456652,0.9940594657421099,0.0002683440746562315,0.03591375675441392,-0.004939124987137104
1730090049.986934,-2.146980710443163,-0.08510184164828394,9.666963929597205,-0.00437422669878572,0.10905120391231092,0.000479881309846664,0.9940263934021026,0.0001610064447937389,0.031764815527737106,-0.0029634749922822627
1730090049.995144,-2.16638159521121,-0.0716512392663141,9.666814038910665,-0.003682549679082198,0.11000444675221464,0.00040757317748993453,0.9939241894665334,9.660386687624334e-05,0.02884976073026899,-0.0017780849953693576
1730090050.003008,-2.169403000095476,-0.05855305435080409,9.66361164234054,-0.003010315678829127,0.11018873483587173,0.00033373664497586515,0.9939060666555143,5.7962320125746e-05,0.027526417913250154,-0.0010668509972216146
1730090050.0109258,-2.1776801875084573,-0.05979210971009182,9.65642296074612,-0.0030761305902096644,0.11067310048405905,0.0003425508978383171,0.9938520437714659,3.47773920754476e-05,0.027583792345962914,-0.0006401105983329687
1730090050.018949,-2.186716642778512,-0.0511981564510551,9.653546272785562,-0.0026346451622498933,0.1111480928394475,0.00029466259932498423,0.9938003186138427,2.0866435245268557e-05,0.028895287189976665,-0.0003840663589997812
1730090050.0268943,-2.166520558176873,-0.04771772565774243,9.66474894897407,-0.002453018601999503,0.11003594934245851,0.0002715701431309469,0.9939245438169335,1.2519861147161134e-05,0.029682184096384914,0.0018980104919102895
1730090050.0348907,-2.1630220333924517,-0.04491120668370796,9.664527369872724,-0.0023088448059271345,0.1098672631696625,0.000255212138439561,0.9939435540240877,7.5119166882966805e-06,0.029728632178767832,0.0036929466639183633
1730090050.0430305,-2.1752881284827366,-0.04610033729147477,9.659606019091601,-0.0023710028286743658,0.11052189330398668,0.0002636637625795261,0.9938708265803503,4.507150012978008e-06,0.028479430843811486,0.0039185282441991445
1730090050.0509148,-2.181690104872845,-0.047532076154181736,9.655695527958867,-0.002445525937721603,0.11087843969362361,0.0002728392648453787,0.9938309295713889,2.7042900077868046e-06,0.026878529919913616,0.002351116946519487
1730090050.0589619,-2.1936715763514414,-0.0424056153214153,9.659813577761648,-0.0021807049947344353,0.1114194870650962,0.00024449598734595435,0.9937710413619371,1.6225740046720828e-06,0.024640919181188804,0.001410670167911692
1730090050.066892,-2.204691181894849,-0.045075822806130435,9.662044987477302,-0.002317342272230112,0.11193330394209937,0.0002610288692197247,0.9937129853520725,9.735444028032496e-07,0.02244697261502985,0.0008464021007470152
1730090050.0749226,-2.214894247711128,-0.03829824148641263,9.655482967828176,-0.00197011660394206,0.11250582785617813,0.00022306627405734258,0.9936490867405858,5.841266416819497e-07,0.020704914613872447,0.0005078412604482091
1730090050.0829248,-2.2013836335876142,-0.018429961737550703,9.65872836101917,-0.000947827614996758,0.11180980548430715,0.00010664517533408455,0.9937291671512818,3.504759850091698e-07,0.019233989751715974,0.00030470475626892546
1730090050.0908942,-2.1877706012951466,-0.003635951896046046,9.660675596933768,-0.00018696968749804083,0.11112253355569886,2.090602274690255e-05,0.9938066950576641,2.1028559100550188e-07,0.018777124895884123,-0.0023713175150108343
1730090050.0990157,-2.178166260923572,-0.0007450501415338773,9.656816114996198,-3.832956267129032e-05,0.11069513486475115,4.269132452598959e-06,0.9938544086685402,1.2617135460330113e-07,0.020205766228233137,-0.005679691123626817
1730090050.10693,-2.1367300519642995,-0.0016441309149984513,9.667668534964514,-8.450937860486065e-05,0.10854631951817932,9.227704933016782e-06,0.9940913888028966,7.570281276198068e-08,0.02191433115056661,-0.009367475534644532
1730090050.114931,-2.0996578981219387,-0.004098940707202196,9.683517373420115,-0.00021039075428518067,0.10655867069761152,2.254733474661993e-05,0.9943063938879737,4.542168765718841e-08,0.024216540288352788,-0.012005836242717192
1730090050.1229591,-2.0891461939512883,-0.01371211222705569,9.687520012675115,-0.0007035690925065292,0.10600063555115827,7.5001342755151e-05,0.9943658102670672,2.7253012594313044e-08,0.028577696201258718,-0.014440232790484852
1730090050.130911,-2.091937137757492,-0.030253922609670914,9.67819000809335,-0.001553781171356927,0.10623587817102774,0.00016600695158131763,0.9943397288628238,1.6351807556587826e-08,0.03204576987192634,-0.01632656078060748
1730090050.139028,-2.1134835778205106,-0.05047407597791192,9.680732290988823,-0.0025912502024035833,0.10726441846704454,0.00027956283075472447,0.9942271127855743,9.811084533952695e-09,0.03412661407432691,-0.01873542775906715
