Time,Accel_x,Accel_y,Accel_z,Orientation_x,Orientation_y,Orientation_z,Orientation_w,Gyro_x,Gyro_y,Gyro_z
1729502166.1934276,-2.2446137398455215,-0.8447025479709732,8.950643592008287,-0.04666395147316435,0.12189298683207186,0.005737181229575727,0.9914290999086145,-0.11049345607772715,0.3199137713639444,0.5041758025118441
1729502166.2014313,-3.029413170665125,-1.2011400102278964,9.279878046074113,-0.06349528871937131,0.1555888723338924,0.010022195534896314,0.985728160657375,-0.15824512692243511,0.3268920123018306,0.6213473375421681
1729502166.209426,-2.981229909235012,-1.6074963010586127,8.968411445564389,-0.08741024949383557,0.1568342968026108,0.013936785107775877,0.9836504550147454,-0.18519336918341178,0.29830082213198594,0.6627033343809443
1729502166.2174456,-3.209457210677726,-1.1565127537796989,9.046330188871837,-0.0625878887103078,0.1680444766565765,0.010691473245963472,0.9837324343803219,-0.19838248410976356,0.24453676274434444,0.6662324294111085
1729502166.2254288,-3.0059381154691356,-0.9299759359592256,9.399539247356305,-0.04868035221617501,0.1532590053631702,0.007559295814240923,0.9869573231046992,-0.1913968009144035,0.08797682916484628,0.628760710713238
1729502166.233411,-2.814155390033434,-1.1799991528841292,9.523358061353237,-0.06094789953038852,0.14187710017833038,0.008752425444428174,0.9879674271131925,-0.17358330903040248,-0.07917782155432203,0.5845674863599521
1729502166.241408,-2.3739531693227947,-0.4551717964179774,10.03626709389202,-0.022500269289265608,0.11572940777858233,0.0026222396749358045,0.99302243978483,-0.13096845929034948,-0.24758102181974806,0.5431523995968095
1729502166.2494197,-3.1292829037909424,0.31874357253983854,11.852120139147711,0.013326664242104977,0.12865439918218768,-0.0017290607981645157,0.9915984348212762,-0.06453330354596264,-0.029355395882479957,0.5885422076801592
1729502166.2574334,-3.8841501536515186,0.14288326998874687,10.967373277336282,0.00641549376679812,0.16934871042654986,-0.0011024021768704533,0.985534697728108,-0.03871998212757758,0.26589634340422513,0.6204586832062513
1729502166.265432,-3.45624371279638,-0.9581419618348768,10.516730915864661,-0.04482141261316095,0.15732873474974332,0.007148177094032271,0.9865027185758983,-0.11943794316696568,0.4051609715061273,0.5327603630949367
1729502166.273406,-4.596516516984469,-0.44775306894662925,10.203968129596921,-0.021414378315019324,0.2098173878726107,0.004596553211081775,0.9774952479916582,-0.16488888936036433,0.43380573043866655,0.38734093762942506
1729502166.2814019,-4.678059641635993,0.11011086126874124,9.00715445808042,0.005929623188873976,0.23720954834109523,-0.0014479167087193571,0.9714393307262458,-0.1151095559517758,0.531448007414514,0.0800075205742477
1729502166.2894037,-4.436568855049955,-0.7695098626332865,7.584213286420517,-0.048709086752491505,0.2601627906211953,0.013142179595553463,0.9642458350231068,-0.04522709012919171,0.5581066189903702,-0.2418904195110949
1729502166.297401,-3.6035808259694257,-1.458172648537003,7.159728941090591,-0.0975487468656532,0.22595083291150325,0.02274693863220453,0.968975252457152,0.004790500532137348,0.42894147497733104,-0.4767468095855796
1729502166.3054357,-3.2641995197515774,-1.2359491994737641,7.559613067779354,-0.07923262635152324,0.19940221407538986,0.016178129790952636,0.9765752485393736,0.038632265482093066,0.18797740496808743,-0.6380937665804478
1729502166.3134143,-3.149395617612665,-1.4356485809635553,8.011430390716441,-0.08697286766704729,0.18283596916201736,0.01624031053740655,0.9791542171609152,0.041909721993585225,0.05489259462201616,-0.7417129817607613
1729502166.3214135,-2.4156434753039275,-1.738145796527352,8.585147874322441,-0.0987746406327011,0.13347174553337846,0.013370443138462862,0.98602743103954,-0.030619564855375005,0.050814539354615024,-0.8579471486746274
1729502166.3294148,-2.2298958263932938,-1.8650563280140673,8.96122124656612,-0.10165740161271973,0.11857105799675861,0.012204316790884268,0.9876526370918812,-0.08690783880861208,0.09391654277061173,-0.9472693916502006
1729502166.337499,-2.119404917710976,-1.6558138090154715,8.527741552871312,-0.09503082740725403,0.11881631551202151,0.011424975123046764,0.9882921101343864,-0.09939630010745276,0.1555357099830204,-0.9851122051614494
1729502166.345431,-1.8160844081461167,-1.5850955156338924,8.454640886312632,-0.09201188198407133,0.10340172794546132,0.009607107277362718,0.9903280263233003,-0.0549551893883893,0.305740766659366,-0.9797223492117044
1729502166.3534105,-1.831613739370092,-1.681049395561976,8.19195045463914,-0.10041533056496155,0.10705015983266329,0.010867826038120743,0.9891101632399375,0.004061921714163169,0.4328988360123701,-0.9641434238594586
1729502166.3614383,-1.9225736147158052,-1.462809692268826,8.34055458796903,-0.08613869763575946,0.11097840820699696,0.009655748336758111,0.9900356984500678,0.09651465661160688,0.5223900695294955,-0.91265275256337
1729502166.3694158,-1.9457854981751863,-1.3510194835741862,8.105063322849778,-0.08191105120107835,0.11560316471222186,0.009566118437825387,0.9898661411411579,0.16305423914808595,0.6084372543108851,-0.791512056755766
1729502166.3774116,-2.299210423660971,-1.520971322712871,8.42872252618057,-0.08834892070182666,0.13023624333895728,0.01165223275076325,0.9874701082076865,0.19829539799389104,0.6775188576996622,-0.6792384635552348
1729502166.3854094,-2.508871177292286,-1.6732206610593632,8.645423543784513,-0.09448558426078398,0.13770175272122664,0.013197329743581877,0.9858684152319921,0.22327130385453237,0.7730304575386067,-0.530567505895668
1729502166.393399,-2.7562930738070124,-1.220847067045774,9.010075917042194,-0.066529931889675,0.146305803461231,0.009862415614545888,0.9869504105042789,0.24677064860015777,0.8533246807609229,-0.41071524687466165
1729502166.4014056,-2.83459610307327,-1.2994551933524645,8.94706980559641,-0.07118736414371603,0.1509344114744617,0.010898100512018859,0.9859170320185963,0.274492337414318,0.9593950630531489,-0.28005866298029747
1729502166.4094307,-3.117167363992399,-1.1352120625446818,9.39026125225433,-0.0593257458699716,0.15821676064209805,0.009523711065780028,0.985574559054985,0.29027397057989013,1.0481530060547444,-0.1092899693064181
1729502166.4174154,-3.39708281707708,-1.0211038732689965,9.223543880258847,-0.05421830090583703,0.17429527982185689,0.009611929423568236,0.9831526545208843,0.2895263890041446,1.118435374314183,0.033611802736802504
1729502166.425418,-4.087686311339998,-0.9521601193715542,9.164693725616246,-0.05056502995598034,0.20698476039478148,0.01071282280835157,0.9769778514057228,0.26013091587927917,1.2065793219077456,0.18107792487472943
1729502166.433409,-4.6892749777219676,-0.8442350608807448,9.290273984393185,-0.04401795173605331,0.2305585896481982,0.010440999647501217,0.9720062459628318,0.22248619911564443,1.2535060296034148,0.27424018883356793
1729502166.4414113,-5.213512730773805,-0.929117629546025,9.238250611339037,-0.04839021083640248,0.2527196417172188,0.0126563618479077,0.9662458210467478,0.16158726352588074,1.211848884141043,0.31523839505769996
1729502166.4494123,-5.308746510534595,-1.0030315066826931,9.538154677106156,-0.050621764599692,0.24974856437515217,0.013075536891247496,0.9668981962318316,0.11355427051254767,1.0668099995313272,0.3257895467639321
1729502166.4574347,-5.299806812570757,-0.9566395900447721,9.822244888783226,-0.046991747597219406,0.24364303527945394,0.011819715443712835,0.9686537778506846,0.09324827593378845,0.9133790191774207,0.32445781668135487
1729502166.4654133,-5.952609030169406,-0.7425355509018632,10.653738094158607,-0.03361482887325938,0.2513645658397149,0.00873549720044233,0.9672691401097702,0.09638952139916608,0.7506558807623794,0.32748998918496675
1729502166.4734092,-6.448438132945393,-0.4500703136954148,10.888792994434617,-0.019886026269318784,0.2639259490048551,0.005442616944901768,0.9643225691239906,0.09529443824815842,0.5989593599076767,0.331012052932982
1729502166.4814124,-5.794479854864892,-0.213778449203577,11.293906377715455,-0.00918648564968169,0.23476256666480455,0.0022187529403779977,0.9720068018845088,0.06015649337912927,0.18016010006909067,0.4084724320605708
1729502166.4894238,-4.8136101199501855,0.051058634823556936,12.056516167937868,0.0020777237351469304,0.18878966483536502,-0.0003994365265864747,0.98201526768472,-0.0043466598114154445,-0.503194868218023,0.6316100350438671
1729502166.4974024,-4.25525521991933,0.07349139061093105,12.351276329180688,0.0029324319486260836,0.1651287679906385,-0.0004909711188027944,0.9862675345828438,-0.051562352954982904,-1.0566653999029958,0.8429681880199348
1729502166.5054083,-3.231669882439879,-0.07034800498891014,12.332765570457632,-0.002827690188826222,0.1277857916589261,0.0003643269510215694,0.991797692518071,-0.06031002601386992,-1.4351479356133408,1.0170346766278608
1729502166.513419,-3.019505138692443,0.02722304515118517,12.328362879872234,0.001095798583075108,0.11980867969190342,-0.0001322387787003248,0.9927963849696743,-0.0583218988043476,-1.6171143105245727,1.1150892188706858
1729502166.5214186,-2.367636708703747,-0.18884925518467952,11.434599407610841,-0.008212217821403066,0.10189271083064196,0.0008411719169301675,0.9947611408714371,-0.08054197585904593,-1.6190202399828797,1.214788190116736
1729502166.5294237,-1.7294340393824044,-0.612979439585417,10.28015845560166,-0.02966690282556533,0.08305704049666497,0.0024736924584114607,0.9961000370175151,-0.13857147854537827,-1.5188495630299004,1.3601712752182344
1729502166.5374358,-1.8222403076626459,-0.7261996522766409,10.151567795528965,-0.03555376031124276,0.08841208152293165,0.0031577679443231524,0.9954442538234489,-0.18743695218542472,-1.4293745426172326,1.479753570950248
1729502166.5454183,-1.8128017834745405,-0.7675561414636407,9.621909285715818,-0.03961277036396755,0.09261560416619766,0.0036875419752886397,0.9949068199199371,-0.26400783319173804,-1.3846290216603347,1.5940719545356592
1729502166.5534055,-2.03410898634449,-0.5917359358547469,9.218401760394332,-0.03185017537859953,0.10810502256245313,0.003465261558655341,0.9936230987590083,-0.33676883566763405,-1.3505449780413414,1.6839474877600074
1729502166.5614333,-2.189159383505913,-0.7900680031632389,9.057221261314725,-0.04317579786176594,0.11775923405129399,0.005124887310795639,0.9920898894781178,-0.4034127004721214,-1.2849714053549701,1.7693738722428067
1729502166.569435,-2.7622270546640944,-1.467155650530756,8.811833038771256,-0.08143518530312059,0.1488742559184791,0.012302974828474355,0.9854204195822895,-0.45233851064551645,-1.1966729046750137,1.8202040128710242
1729502166.57742,-2.7548382738140815,-0.7766244584336878,8.257346402852598,-0.04624434727168697,0.1594841665673266,0.0074792901188605945,0.9860883942015841,-0.4702003650900786,-1.1492277750660462,1.8387827755270179
1729502166.5854087,-2.6326102836243868,-0.735801202159822,8.601016390295541,-0.04217124917317127,0.14733003568433953,0.006287485435252863,0.9881679583225349,-0.45154486351593576,-1.2361227039568763,1.7988472257451702
1729502166.5934024,-2.0713351911707254,-1.0314120103583932,8.58383936786873,-0.05932678929438122,0.11709514093592839,0.007007689202073798,0.991322325146197,-0.4463112234319184,-1.354241620817989,1.7599867437248906
1729502166.6014318,-1.864096445512982,-1.579640332435739,8.241217963982956,-0.09396031591058891,0.10859314753274811,0.01031086430971481,0.9895820700781214,-0.4814831449130909,-1.5268528956240823,1.722622682484476
1729502166.6094112,-1.6844471397687268,-1.5702766311020684,7.895344904366336,-0.09746238215083804,0.10245801872148237,0.010087689940303573,0.9898998317894698,-0.5208909704446618,-1.5359164668631675,1.5831394788381683
1729502166.6174474,-2.2029807106190487,-1.115745599022569,8.626348119377614,-0.06375520601110188,0.12345290882577922,0.007948113591550638,0.9902683881146926,-0.5377246247802119,-1.4332293339952624,1.4189941350340598
1729502166.6254203,-2.688877574320648,-1.2739832786029943,9.437248406538677,-0.06638145181704566,0.13685602005352623,0.009192050422532174,0.9883215260424109,-0.5865626129745867,-1.2196457023325742,1.2055706121568461
1729502166.6334069,-2.952403533117779,-1.0181753431383591,10.581475774880237,-0.04748764658378334,0.1348838531586386,0.00647196724356392,0.9897016637446917,-0.6597114822218009,-1.0851101724130308,1.0234538606248398
1729502166.641723,-3.0511429072241834,-1.2836758723869215,9.631814781334391,-0.06540155450961142,0.1512077997103867,0.01002674088345215,0.9862851020073892,-0.7410615291787882,-1.0269504277187924,0.7754088496690139
1729502166.649447,-3.325146420604041,-0.8714802536567623,9.042385731593603,-0.04725288809337715,0.17434324077910032,0.008376306415070426,0.9835148379421209,-0.7217611475190555,-0.8013454333672592,0.41841940304058484
1729502166.657438,-3.625778603094846,-0.927268812594448,9.020085811514756,-0.0502344431004433,0.18880068644837292,0.009671123685170846,0.980682043727567,-0.6859165850198801,-0.6280960212862184,0.12334462338574143
1729502166.665445,-3.0064945580971423,-1.3885857846269813,8.640871845795571,-0.07845111926398082,0.16417467223737442,0.013099503566265264,0.9832194576432551,-0.6971879822529512,-0.6284404390957918,-0.13670980639226077
1729502166.673433,-2.6629362905223477,-2.0570673594480637,9.316915172907029,-0.10739261804151828,0.13486598794225377,0.01470541142230979,0.9849171243112027,-0.7184242826825029,-0.6486545226702511,-0.3259462890531005
1729502166.6814115,-2.5362888250946583,-1.8435647381786038,9.820224596908279,-0.0919080398090547,0.12344095479578356,0.011482780665435286,0.9880199333240964,-0.7069017294368982,-0.6190653467916478,-0.5199436002659283
1729502166.6894104,-2.5079449588751546,-1.823202240123959,9.397485408779731,-0.09485104886049293,0.12717930908544048,0.012218776038807532,0.9872585291516746,-0.6727440335559653,-0.48935535509997147,-0.6674173614803534
1729502166.6974185,-2.7801581996903266,-1.9584675635567974,8.681282135160417,-0.1093932424509022,0.14989136898424887,0.016689328230647893,0.9824902861266953,-0.6203226614177533,-0.3417161900051925,-0.7490905772256158
1729502166.705404,-3.040690731581774,-1.6958193992180626,8.698318200773985,-0.094757511870181,0.16375073056448894,0.015804038412553286,0.9818130904370868,-0.4888326736912486,-0.1381963743535765,-0.7895807054435326
1729502166.713409,-2.823754211898283,-1.4925012489058376,8.25412036504447,-0.0880987221922785,0.16100540904617097,0.014431029764007834,0.9829077366599132,-0.36779536497060467,0.011585369032425116,-0.8257941040952197
1729502166.7214115,-2.500140805947563,-1.736104952224362,8.552154415071604,-0.09896060367033882,0.13836328187845723,0.013896416056734513,0.9853269968745415,-0.24451586242423656,0.1555170528697041,-0.8922195997397453
1729502166.729418,-2.540604525072444,-1.9153071571256328,8.546381897089836,-0.10886858331830497,0.1398427842363534,0.015471269339584325,0.9840489149876199,-0.12372225413559224,0.28061385876511635,-0.9525080200766382
1729502166.7374432,-2.5248995888227634,-1.9375949009648326,8.648981519845698,-0.10886891208569913,0.13747609426130372,0.015204265135557083,0.9843864656777953,-0.03209003639661421,0.3663141938389145,-0.978038820742223
1729502166.745417,-2.3363903428932673,-1.8937461275906184,8.68899347855781,-0.10617076814038778,0.1273694488262683,0.013714069716130598,0.9860612130035303,0.0458765575657223,0.43476199734167464,-0.9567479558558393
1729502166.7534058,-2.2726053495347887,-1.8743800483805428,8.948590097144452,-0.10225903704511571,0.12086765098796838,0.012518695002228939,0.9873081497499641,0.10542721578698516,0.4822160303652612,-0.9316284251416102
1729502166.7614505,-2.1531709172404043,-1.8665911235107475,9.000439716245657,-0.10136413317003705,0.11419541431410771,0.011713489320539255,0.9882041864029184,0.17010453489916103,0.4966406781511661,-0.8995291042545914
1729502166.7694488,-1.7882205544946332,-1.8025415674169956,9.138330881749347,-0.09676656767162636,0.09424766872258776,0.009204780600776985,0.9907920469682331,0.23189818968541626,0.39248760053527065,-0.8296123944083984
1729502166.7774432,-1.577390622491702,-1.5926869948935567,9.337423781735154,-0.08407301043674595,0.08211903403437697,0.006952342747220136,0.9930457482390672,0.27748818378641,0.2857239875736821,-0.7553099238295682
1729502166.7854326,-1.7848837948817398,-1.7107434005494153,9.53397281518367,-0.08827416833196214,0.09062874141960739,0.008065247347519773,0.9919319806414257,0.3188899522752533,0.2340108315791279,-0.6996604998842573
1729502166.7935135,-1.8002041026126376,-1.6072793630835556,9.6507051344227,-0.08206678506931203,0.09054861718472029,0.007487363853138846,0.9924766647618739,0.3462851537373315,0.2208619205638007,-0.6726561964390011
1729502166.801442,-1.4493083575636765,-1.5377789154575552,9.773656382655574,-0.0777362865668143,0.0724402020835248,0.00566338567070211,0.9943225899755296,0.3503772628321795,0.22744603604431346,-0.6275066901924293
1729502166.8094454,-1.3187372459835183,-1.3998317401436737,9.626921158694907,-0.0719650325551336,0.0671424170950531,0.004855538955088198,0.9951328321673586,0.3187773233721258,0.2607691195735013,-0.542948828147112
1729502166.817439,-1.3335290236155013,-1.3343016869084698,9.588439998683741,-0.068911316375858,0.06822719264495372,0.0047239423950067175,0.9952758235923262,0.2870466578522326,0.30162178270265355,-0.47263236809266806
1729502166.8257196,-1.3239687374114884,-1.227706588316957,9.565590722843057,-0.0636264589878359,0.06802364489660863,0.004347042456098552,0.9956432898752113,0.25140634614327745,0.3567830650054112,-0.39298176665134293
1729502166.833444,-1.401550783462518,-1.216661385851502,9.535361165883566,-0.06323906434016643,0.07218240042379714,0.0045859619150748635,0.9953740456550755,0.211717486475037,0.4035019163538508,-0.32433259277490833
1729502166.84144,-1.6542407740325888,-1.149700382536292,9.423849566961781,-0.06042754354924554,0.08599134149699061,0.005225256490441535,0.9944479362253014,0.15214620551128205,0.4630342917111049,-0.2610072052530219
1729502166.849447,-1.8434437344390844,-1.189250695830369,9.212093407169256,-0.0638290557164795,0.09760129154421533,0.006272723578740242,0.9931568317613026,0.09937583447454783,0.521740980244407,-0.21492386157211146
1729502166.8574436,-2.0067649052142316,-1.1471403381525183,9.14633127379374,-0.06197172304777823,0.10676510191383394,0.006667566182837867,0.9923287066879681,0.06856499197543137,0.5624989641633946,-0.18599678517917909
1729502166.865454,-2.172752934827758,-1.3189169201766673,8.825794718866089,-0.07355293320233881,0.11880474019934478,0.008825364778636258,0.9901502475180333,0.06668039887298072,0.5861023743918632,-0.1673634691590336
1729502166.873452,-2.2651631476154046,-1.253191652350141,8.321747729757153,-0.07399381421259027,0.1307217955720198,0.009784088233923304,0.9886055832525581,0.08087448522414346,0.594304759668476,-0.15660916960840832
1729502166.8814533,-2.3036104435008835,-1.2824700793007096,8.697118026282025,-0.0725120821284931,0.12744520052328406,0.00934271023549304,0.9891473260209656,0.12004062146010738,0.5766646175769559,-0.1590960811687358
1729502166.8896384,-2.1818296205927172,-1.3445692863499572,8.948676422458668,-0.07395751821051343,0.11769336251865015,0.008789983685185744,0.9902531464761974,0.15290548455385045,0.5069096137788214,-0.1588854678590842
1729502166.8974397,-2.20931759657438,-1.4649076081869274,9.18077489644395,-0.07847238996118006,0.11602786134722784,0.009196038094746757,0.9900985063559731,0.17773268314764062,0.4467519388570734,-0.1506709887055146
1729502166.905442,-2.176968668296191,-1.3968103840039532,9.28938819958512,-0.07405205280440015,0.11330055339043772,0.008468377019278947,0.9907611037316383,0.20071711347169335,0.3821360997860685,-0.1406340204758285
1729502166.9134068,-2.1556439500011515,-1.3470935033515907,9.208270460034274,-0.07207790920343864,0.11326470661200344,0.00823875113758912,0.9909127127152273,0.2217445027109795,0.33698124542153507,-0.13631459978386495
1729502166.9214075,-2.1224984049128004,-1.3287555429289233,9.666452307758846,-0.06784197023210088,0.10664195087863179,0.007293487025826017,0.9919535102185134,0.22542144496384853,0.33670680667492303,-0.14862209951985794
1729502166.9295902,-2.2079559509066646,-1.417351555737823,9.476886294323275,-0.07366645885573668,0.11268106401473876,0.008377373546893673,0.9908612669110738,0.20719448736539242,0.3356907633040317,-0.1798452428033275
1729502166.9374435,-2.0437523290889206,-1.0445806880813655,9.721558674787325,-0.05319874917846618,0.10270004839408355,0.0055005130623419956,0.9932735461602461,0.19157572213023644,0.3435949385107375,-0.22667467282990333
1729502166.9454734,-2.6292535703049147,-1.6940835129464755,8.789055994667317,-0.09405396025346992,0.14172417869709278,0.013528109740294846,0.9853350191585234,0.18220446298914283,0.3789871280600273,-0.4284538759223577
1729502166.9534104,-2.8816737864700577,-2.0773208633831195,9.059384682005469,-0.11114115279006885,0.14880680866874424,0.01683388532201862,0.9824565120936821,0.19488638014735404,0.4278922957846333,-0.653815462836028
1729502166.9614177,-2.6773475494699253,-2.371667298303309,9.767938713256015,-0.1177672707778728,0.12887059917137092,0.015415321133319169,0.9845230350159917,0.21696899253198984,0.5713203328912213,-0.7651937715423565
1729502166.9694073,-2.912206115131174,-1.8697584087671417,10.311105273852045,-0.08871644962264015,0.13457379113840573,0.012097997616875336,0.9868500011443747,0.21446802768867612,0.7118654830223142,-0.743477223982051
1729502166.977573,-2.983689406383392,-1.1254463477505192,10.183064575444039,-0.05443507483775609,0.1410092857698062,0.007765306595361925,0.9884800979117268,0.19466277613982055,0.6931755782271583,-0.5806043938112325
1729502166.9854045,-2.729458955109332,-0.8440590256913272,10.076791475979315,-0.04139414771919716,0.13132286743796068,0.005488357952571109,0.9904598462075369,0.1500014904779308,0.4793331660941377,-0.33772038475018873
1729502166.9934077,-2.6066087849308333,-0.918477521127687,9.918217230558291,-0.045761329955594746,0.12749048598074866,0.005888508278299912,0.9907660683205416,0.11809643834325256,0.347196508261167,-0.13154199058595395
1729502167.0014176,-2.9140555871206093,-0.8800498207820808,9.872872077836927,-0.04396456527044716,0.14234081233799212,0.006328703106429099,0.9888205892175445,0.1108727287833825,0.27217141417600493,0.06836356691429059
1729502167.0094402,-3.056864559547756,-0.8689642088754985,10.013498522581061,-0.042777294447293314,0.1469481676936916,0.0063611170485789025,0.9881982975502085,0.10185591237137812,0.21183151551227455,0.20235467344268435
1729502167.0174074,-2.658202947154435,-0.7607986913409241,9.57043176369512,-0.03927737670028951,0.13453971939546575,0.005337124299935712,0.990115077497934,0.06111354742282687,0.15817428379409304,0.3116962615391387
1729502167.02899,-2.6474128180973486,-0.8426639425877577,9.387670505970979,-0.04431026773243672,0.13634845119025868,0.006104817198566764,0.9896506612125663,0.01666069556498063,0.12640563482464617,0.4283840217724551
1729502167.0333848,-2.6409387406630964,-0.8917830933358577,9.278013751336493,-0.04741870196565375,0.137455267010796,0.006588111427458216,0.9893503489981205,-0.010011015549727107,0.10734444544297804,0.49839667791244496
1729502167.041411,-2.8530112839486392,-1.201376178022999,8.977348515694473,-0.06566240850859238,0.15165019100482088,0.01009706511128621,0.986199126420821,-0.06815735830329288,0.04567630456145744,0.5731824063290153
1729502167.0494056,-3.2704320511309017,-1.3478671216087215,9.696929778361996,-0.06806960117200024,0.16011972519061798,0.01106879809434599,0.9846855765724978,-0.09453136272619171,-0.003243901688391816,0.6048574514736345
1729502167.0574083,-3.10549052340315,-1.1230789509437484,9.708017304273055,-0.05684653521505746,0.15297952175984889,0.008814884096622021,0.9865536149518355,-0.08694281199951927,-0.10411195576392267,0.5655429401401078
1729502167.0657074,-2.6019055262000927,-1.298494583701015,9.68522113939977,-0.06600181552299768,0.1294589306636105,0.008636520276110346,0.9893480460063703,-0.07047035984257892,-0.25232494087041973,0.4849117651040794
1729502167.0734086,-1.6444615334934929,-1.125058890113187,9.586788701706269,-0.05816105975070022,0.08412869550966416,0.004918868069951654,0.994743916019308,-0.049093256888939854,-0.3927612293712237,0.45568911284825386
1729502167.0814164,-2.4253526976839863,-1.0437423897319746,10.193556720779622,-0.05063808921795595,0.11579546166983724,0.005911163998865565,0.9919638365974851,-0.02945595413336391,-0.3514444343404068,0.5211650834798547
1729502167.0894067,-3.571925306354532,-0.5491521403821535,10.99001035204785,-0.024641044670359435,0.1562477579673441,0.0038992274029785025,0.9874027815807446,-0.015545122172708188,-0.17000041470388902,0.5263954609418526
1729502167.0977468,-3.5329892475334224,-1.6391195923347608,9.674386067185742,-0.08251680820289736,0.17134072590866425,0.014402861802252045,0.9816444822750258,-0.08765404461263872,-0.05432296193858587,0.35627783240400457
1729502167.1054187,-3.6990089635591157,-1.3086043408500752,8.845267748709881,-0.07190482564518336,0.19434590750496553,0.014285988943210882,0.9781897948787452,-0.16710305330086972,-0.07643985349374077,0.04476774504197617
1729502167.1134164,-3.6566446347272663,-1.3207455158869983,8.574048814509132,-0.0747646060404307,0.1975569810441213,0.01511304369090617,0.9773193382077061,-0.18497415421146612,-0.06757410523080808,-0.23749288114273592
1729502167.1214283,-2.8550258592055004,-2.193773541221652,8.682580502084386,-0.12189707939261504,0.15252302540462,0.01896050620850124,0.9805704094868912,-0.15142504836577267,-0.15122387911861304,-0.5503068075662678
1729502167.1294494,-2.33526852699791,-2.666593861061116,8.383780862285787,-0.1520224109643895,0.1278366576722884,0.01983319406429637,0.9798742878211267,-0.12193040350619191,-0.2627131123018286,-0.7814155496895141
1729502167.1374369,-2.2867763102905427,-2.7115841474472164,8.594995369178113,-0.15098363133642098,0.12248147627196423,0.01885590373275564,0.9807378273183558,-0.15701918421173539,-0.3193900907366692,-0.9409396079751016
1729502167.1454155,-1.8748481348071382,-2.5159175648843455,8.858193567942415,-0.13720194171580904,0.09930013470789942,0.013825242498757427,0.9854562258701577,-0.23554061093243572,-0.29975933005335753,-1.0123897094431182
1729502167.1534069,-1.6798848257085015,-2.351830682973576,8.686909758929511,-0.13122863779511082,0.091334313282457,0.012142791728185357,0.9870611128236729,-0.296275548931641,-0.26243946995564865,-1.0284412964518201
1729502167.161418,-1.7664139813626007,-2.164314252069302,8.056936267955363,-0.13009877292637168,0.10324270563443672,0.013622227797575206,0.9860170829788724,-0.3165402893956069,-0.14597005031391436,-0.978901330113819
1729502167.169409,-1.6404422914054513,-1.9567545876185344,8.05579951467947,-0.1182709220812011,0.09683231558765217,0.01158942567566515,0.9881807409884611,-0.30060358961749234,-0.03607353275144278,-0.9308726776681508
1729502167.177422,-1.4659787488667082,-1.5777151524734643,8.025668782294009,-0.09650555659767719,0.08814114452761637,0.008580027228172553,0.9913849904653077,-0.2208027096093884,0.06604803301031284,-0.8513983688867683
1729502167.1854112,-1.4482101436071342,-1.6079075900192348,7.824912756192811,-0.10073584493540591,0.08909126599170794,0.009057333334057881,0.9908748662581065,-0.13844128662610147,0.1268952824059042,-0.7475226955049505
1729502167.1934297,-1.8862223715646713,-1.863049016902166,8.403087184965687,-0.1082150864520886,0.10701920719076641,0.011718422565015502,0.988280862371125,-0.08136201172981275,0.18894503573098087,-0.6464594958828149
1729502167.2014267,-1.877287819911459,-1.7350545981295808,8.292938745305584,-0.10230359808579656,0.10823207462822913,0.011198125467809357,0.9887843009607183,-0.048817207037887646,0.2921568472526418,-0.4687568092074749
1729502167.2094066,-2.1486968008335943,-1.5560255359773578,8.642243669546632,-0.08828616644714576,0.1192267232879438,0.010644471400879488,0.9888767549582116,-0.03141877453004274,0.38686206889821484,-0.31743774074875764
1729502167.2174044,-2.1961416693673437,-1.4177228972700082,9.267938872626415,-0.07530215282672705,0.114460245369632,0.008701492667273969,0.9905315351037267,-0.006080562874164698,0.4917881788307682,-0.1976993754941091
1729502167.2254093,-2.190371506747359,-1.502574850422552,8.935869403898113,-0.08259131025154558,0.11790124011416717,0.009840591639727734,0.989535818354573,0.016359095164216665,0.5977385409979654,-0.07051664835125589
1729502167.23341,-2.3229000634722436,-1.5216431402339998,9.0854629045459,-0.08221773809020935,0.12276807061146602,0.010206275834160807,0.9889712211764632,0.025140299311163135,0.7077089749976452,0.058578555555747966
1729502167.2414122,-2.7625051271946743,-1.5168035428318059,9.323180667532228,-0.07970387797569987,0.14132272847056918,0.011415987469189466,0.9866837656936349,0.019766770262780228,0.8158345514821941,0.17179364306276096
1729502167.2496464,-2.8893198304671954,-1.4064001298494742,9.332693713019335,-0.07385809341610129,0.14757881661299974,0.011052112845961153,0.9862268125161093,0.017819723018136578,0.8760273066968411,0.22695199372310776
1729502167.2574084,-3.3432136744033643,-1.3241169309370282,9.363780077909258,-0.06912682565199933,0.16867082621259732,0.011859222809422382,0.9831739384231024,0.010691833810881946,0.8785134449701288,0.2600470041193158
1729502167.2654107,-3.5451604519564714,-1.4971683458180762,9.43773795519282,-0.07729163796496638,0.17615025748197216,0.013875438717976364,0.9812260502504564,-0.015720782909496477,0.80636074730117,0.23818638433376157
1729502167.273435,-3.737196887628961,-1.6206316483599865,9.584823932783658,-0.08218576670488516,0.18184828282841453,0.015253969092266088,0.9797673286094098,-0.0392307740480401,0.7158175318775093,0.1829266963776879
1729502167.2814305,-3.7731706740812827,-1.6674157309593511,9.905313080373322,-0.08189055384725868,0.17808027835416976,0.014873274012681839,0.9804897436342893,-0.06397902026771707,0.5512378767046466,0.09783669610567586
1729502167.2894063,-3.740406568267129,-1.497725123390064,10.016682552813837,-0.0729367165354555,0.17548270455123388,0.013037849904071187,0.9816904146696604,-0.07882796799952324,0.41119814763911194,0.05018821643416488
1729502167.2974095,-3.7145231804622303,-1.0817915010359915,10.23864850385627,-0.05178900912689324,0.17202385576781595,0.009056670134169637,0.9836888066388216,-0.07794646522498022,0.28971358479113235,0.07353331612962616
1729502167.305409,-4.7196413155039005,-0.5329561201040166,11.23421951247001,-0.023213634647591574,0.1973018959551186,0.004673294775592842,0.9800567582211267,-0.071883592761248,0.14062432608064093,0.11478453988047294
1729502167.3134124,-4.142610198237887,-0.7009305763592851,11.832040957970285,-0.029146268845937257,0.16725304991120968,0.004946674216872595,0.9854706706553731,-0.08442209161856587,-0.09100970967397247,0.1676308181874751
1729502167.3214197,-3.2215437092747634,-0.8795268040675243,11.770790854079047,-0.03693850145965034,0.13273382784004747,0.004950259749387548,0.9904507928136852,-0.16048129082834367,-0.6722821049857913,0.3730201302481853
1729502167.3294463,-3.107042719705483,-0.4918030575381708,12.214557064937663,-0.019957569441398277,0.12410186720750292,0.002496580457347081,0.9920656173175356,-0.2393206351482488,-1.1759967245450622,0.5805403496540937
1729502167.3374398,-2.6581429023311025,-0.48781506816548054,12.21769402900166,-0.01983268854694593,0.10680509967071704,0.0021308471620227866,0.9940798733701937,-0.31940237647276837,-1.616149076194323,0.7740142712544879
1729502167.3454435,-1.6408544132736615,-0.5203776187801477,12.174325796063105,-0.02130755687770402,0.06686069769001807,0.0014281603099045009,0.9975337565628727,-0.36574866102163195,-1.8189411183333468,0.9692769756466622
1729502167.353429,-1.4870555764309938,-0.43073955344582293,11.715433196143723,-0.01833608680785101,0.06303342910397362,0.0011582856739387882,0.9978422886960979,-0.41100972427089333,-1.8665462729223674,1.1238953236906255
1729502167.361423,-1.2559125780363307,-0.6587542496456187,10.65551775215889,-0.030812190039002228,0.05848975843882614,0.0018061516679879286,0.9978107510539864,-0.4811610584281154,-1.772510627974715,1.2575325784173588
1729502167.3694088,-1.263991340767111,-1.108006384015887,10.216371862232833,-0.053884472375542565,0.06106570253203061,0.003301478048302628,0.9966727365859746,-0.5381510110736197,-1.6867166267652434,1.3475058026670252
1729502167.3774097,-1.1848021201340948,-1.337813917079454,9.872199732329934,-0.06717288079204087,0.05901688539366823,0.003980309458465111,0.9959864298579293,-0.5915010354267138,-1.6194896937654653,1.4100035384460659
1729502167.3854249,-1.0838978907328005,-1.4175193365757974,9.058048073040538,-0.0773993463690736,0.05862715392396451,0.0045592939620868935,0.9952644929077814,-0.6528836642794504,-1.5561662706466484,1.4487792500978762
1729502167.3934004,-1.1085889321935867,-1.544111822892744,8.277225054761823,-0.09187891173358027,0.06512948698693347,0.006022451319068764,0.9936197187976803,-0.6922673819598646,-1.4670894093999145,1.4843896888713615
1729502167.4014354,-1.438959335878652,-1.337312098618459,7.194857938130531,-0.09130761530783083,0.09651568117787307,0.00889180141171451,0.9910946365212673,-0.7031269107242522,-1.3336135610970123,1.523209244655396
1729502167.4094326,-2.0283941293592225,-1.6662152181554504,7.784437027282616,-0.10438407984801429,0.12373140803390678,0.013089370834873278,0.9867234520935323,-0.7079398677370365,-1.2352233794724037,1.5286219955444111
1729502167.4174242,-1.7569289519807678,-1.5666760840182703,7.67825834185785,-0.09983342059981633,0.10949615122147702,0.011054084158454817,0.9888992305702545,-0.6848605481955232,-1.197048083509278,1.4965373709764718
1729502167.4256508,-1.739617306491195,-1.3508506552937747,8.006481942370568,-0.082991939712454,0.10496546232301177,0.008790685965466342,0.9909678670382494,-0.6612220850569885,-1.2924847430178474,1.421521198184182
1729502167.4336855,-1.638968916609561,-2.0736911890747023,8.3566450089282,-0.12075981257680984,0.09321995424178146,0.011391306723895458,0.9882293994456429,-0.6461876270509437,-1.3957212653608886,1.34756457032939
1729502167.441408,-0.8986266111962053,-2.6050789370776335,8.066115281724109,-0.15533527348802598,0.05214348847232415,0.008210977683274355,0.9864505001599531,-0.6490862739682537,-1.5649370742551452,1.2593445172859254
1729502167.4494119,-1.2639008092470199,-2.1125166432524396,8.512613935880168,-0.1210016470799642,0.07096972644335185,0.00867354678957883,0.9900740724403304,-0.6465685615040193,-1.6575270683009964,1.1672489998053397
1729502167.457411,-1.5405261679212587,-1.9867281646624013,9.196385956742944,-0.10581762690933597,0.0806012800554012,0.00860583304922169,0.9910761843199727,-0.6092999688626679,-1.482357051416086,0.9353303138102452
1729502167.4654331,-1.6200707031941615,-1.943337379754472,11.046043207346546,-0.08673153311120407,0.07139437128501214,0.006231710473650117,0.993650668342537,-0.6235481585635918,-1.2142157477451816,0.640376539718085
1729502167.4734247,-1.5564670471606374,-2.645140213497214,10.156918591644256,-0.12668176887487384,0.07294912998501832,0.009342095554881155,0.9892132627092125,-0.6708348679771912,-1.0690814978167342,0.41487560825611725
1729502167.4814222,-1.9389660852299762,-2.7056551437233285,8.98658618062132,-0.144914890123443,0.10060666203752759,0.014813387943916395,0.9842045202658847,-0.6830306712897936,-0.917296058517437,0.1442056098340106
1729502167.4894273,-2.297752397720017,-2.4690251126011846,8.676796386107167,-0.13705204436743298,0.12318565757716476,0.017179637866199207,0.9827242191707575,-0.6460763868853037,-0.7253362503713572,-0.11525372323259664
1729502167.4974043,-1.6752930243253694,-3.1010924906564137,8.376719090209221,-0.1755633269713605,0.09111719578541988,0.016321530136656125,0.9801065158996479,-0.5983624125548879,-0.5339618444820057,-0.39991341169555655
1729502167.5054061,-1.3121124674272528,-3.538033177499317,8.535931087914594,-0.19469904977148844,0.06911544910995356,0.013754803093417048,0.9783282374051514,-0.5948497415828982,-0.4323335928537177,-0.579223026002573
1729502167.5134115,-1.4277164245481486,-3.3555943413140428,9.222586676430398,-0.17312226911359307,0.0710732122042698,0.012526670383538567,0.9822526971065184,-0.5855054079548498,-0.3539033493568017,-0.7068162274754984
1729502167.5214148,-1.2167177844163892,-3.286832467825535,8.84976072534066,-0.1764932605769713,0.0630352065453286,0.01132672284458423,0.9822160643444492,-0.5462692929225204,-0.26810740766560714,-0.8178530433376783
1729502167.5294497,-1.4906685380814741,-3.088755134992196,8.439796265526661,-0.17390552506060458,0.0808323199685288,0.01432455910785192,0.9813347091631206,-0.5035715711373313,-0.16086444459936428,-0.8759613316257455
1729502167.537442,-1.7821710984348218,-2.7410230565812554,8.454306730263264,-0.15532444807949725,0.09757768931177803,0.015419699276695023,0.9829115643086055,-0.4055856276176725,0.051195784567706376,-0.8759197195586993
1729502167.5454204,-1.5898020999788618,-2.665501421839378,8.419199118724364,-0.15207669320910394,0.08789748381322389,0.013579558860766604,0.9843588305608048,-0.2693184703197874,0.24526526171748775,-0.8831314833633261
1729502167.553435,-1.4042305922627076,-2.7851489353790173,8.428062072552978,-0.15839624220180495,0.07737360419967725,0.012451670074148788,0.9842605913790633,-0.15520573126994197,0.3910795622482367,-0.898100793182653
1729502167.5614138,-1.4169073336291087,-2.877288157614129,8.30840251818999,-0.1653699913704147,0.07869701249872406,0.01323922292550989,0.982997593666563,-0.027141479235350277,0.5313537101879781,-0.8713244139114384
1729502167.569413,-1.5502089656071527,-2.594031576209102,8.346500641773368,-0.1494931858560619,0.08666348153399817,0.013154634466322621,0.9848696278914629,0.08034675641067102,0.6423366728239308,-0.8114125100181205
1729502167.5774338,-1.4906079880068697,-2.52511293742468,8.410539784478084,-0.14478384736041605,0.08308134800865762,0.012200948209616652,0.9858936372750188,0.18698301388302493,0.7331907839088383,-0.7060778876638185
1729502167.5856469,-1.3890068557924031,-2.511534493411839,8.35008274153646,-0.14509423496751506,0.07806245440076343,0.011484126900870854,0.9862667139376878,0.27735755217708324,0.7834463499451625,-0.6028622484738064
1729502167.5934184,-1.4649945114246605,-2.4401805031760095,8.509893631738281,-0.13868652715076601,0.08110964462830066,0.01139762867936574,0.9869434466045245,0.34520435712030323,0.8225391808576596,-0.5170942215179253
1729502167.601403,-1.3089953250188588,-2.383481739405606,8.744643862148438,-0.13230314547250183,0.07102077788420334,0.009504471225831968,0.9886159981679045,0.4050684928520266,0.8298186570696007,-0.4183818085221112
1729502167.609412,-1.1670329396402215,-2.2635106415437543,8.943433680570312,-0.12337155752573328,0.06239295724308696,0.007772390209175601,0.9903666834211323,0.4443924947827569,0.7975769975110306,-0.33446433715982493
1729502167.6176546,-1.3097835064599141,-2.4275962665180493,9.027033966887108,-0.13064724126284202,0.06895032931752948,0.009108487145125925,0.988986443738912,0.46202723508072663,0.7241693639702106,-0.2594238307776553
1729502167.6254184,-1.138057168084933,-2.4429688438952044,9.215100154302187,-0.12897236698481665,0.05887406115524993,0.007670838368472953,0.9898692498083504,0.46366858796880583,0.6784220235998705,-0.2101426263337332
1729502167.6334174,-0.8911298452845534,-2.3578608449113414,9.323151463430921,-0.123401292508046,0.04583035811285362,0.005705266398147029,0.9912815690901942,0.4548625282880266,0.6496965491932803,-0.16567475151620886
1729502167.6414115,-0.7465647540945601,-2.1224425176889925,9.479201332160114,-0.10982944632622665,0.0381105246007161,0.00421427012950648,0.9932106123887362,0.4193548981157549,0.641400755840029,-0.08961397949609859
1729502167.649415,-0.7795357823883767,-1.9443208157891765,9.483527531473802,-0.10085236130814618,0.03995939070458954,0.004053956393215324,0.9940903448634087,0.37889426724660036,0.6500453617948629,-0.02822698400993726
1729502167.6574118,-0.8850308187982605,-1.8103933158895216,9.552921477380375,-0.09340844453523842,0.04517300561457954,0.004242477070916919,0.9945935166898864,0.3226911341154553,0.6956726812066565,0.020524535002696426
1729502167.6654325,-0.9679602942574719,-1.7180658076489475,9.590487702102052,-0.08840234505107282,0.04929689454192727,0.0043805005580145545,0.9948545887680542,0.27790131263875545,0.7473134063570683,0.055735107270745085
1729502167.673427,-1.1462866086833894,-1.6131093283393685,9.580226874190918,-0.08316104091682593,0.058485942912486794,0.004889144253071471,0.9948063791631716,0.23527688747864034,0.8136301165486641,0.07090178977110584
1729502167.6814325,-1.35671190905769,-1.6396785828434648,9.437840302981346,-0.08568163078015775,0.0700297331984671,0.006037452150556067,0.9938400493975547,0.19182324980116597,0.8738532656137991,0.06595402724307524
1729502167.6894114,-1.4949380975830515,-1.6714218665029539,9.35599966274584,-0.08799659823084566,0.07762441764514556,0.006878366624462035,0.9930678408636696,0.1602170963956749,0.9108385351758042,0.05574863868140234
1729502167.69741,-1.510357323881862,-1.6521606101361472,9.35861003446391,-0.08697633048373249,0.07842383039117015,0.006868443710544209,0.993094982991736,0.14849013539723482,0.9164277845159879,0.03685470370053766
1729502167.7054048,-1.5732389768486483,-1.6753197803883288,9.38603363542444,-0.08789381422216822,0.08135742134456103,0.00720284898115761,0.9927757885747401,0.14911637990448734,0.9078620123991614,0.022112822220322594
1729502167.713421,-1.7436067406013767,-1.6430071904986223,9.14630821836404,-0.08835623195575729,0.09223939952782244,0.00821751529389611,0.9917749451824853,0.1771619806038709,0.8873977069164323,0.0013483716112566713
1729502167.7214365,-1.878149121265123,-1.7828340469651889,9.379559729602407,-0.09331975947479682,0.09653839841087089,0.00909164522589032,0.990903174942394,0.219956434772685,0.8614970416600098,-0.03580032231898072
1729502167.7294502,-1.9708455579641517,-1.8080722201713006,9.581999299675505,-0.09263418524395112,0.0991168539287669,0.00926769389724086,0.9907112933853535,0.2528698383188279,0.8395712915842259,-0.07298869082829426
1729502167.7374442,-2.0185625545050536,-1.8572127876691868,9.466915917695928,-0.0961731002161851,0.10246442715939004,0.009953592615246502,0.9900266167915666,0.2841115121059886,0.8127937595719705,-0.117011905068446
1729502167.7454402,-2.185577608386626,-1.812237456537059,9.5314623411449,-0.09320770505965145,0.11006999832269883,0.010368348752476112,0.9894894726731059,0.3092418673002155,0.7890648192583007,-0.15151394478031563
1729502167.7534406,-2.213242330412835,-1.777830232711298,9.732517067772879,-0.08964743697618988,0.10937136279373981,0.009904896175697337,0.989900568277435,0.34007061269084676,0.7748274550700989,-0.19988502260246946
1729502167.7614079,-2.255698541558248,-1.7744241503689664,9.906301180605134,-0.08794505541969833,0.1095913187595618,0.009735067136219144,0.990030625055417,0.3504797487574469,0.7552170949591648,-0.2574289034137179
1729502167.7695322,-2.302959503352917,-1.8798801555045828,9.906663296253704,-0.09301350054878368,0.11154183685896352,0.010486667077249129,0.9893416685652136,0.343954528553546,0.7345113876019017,-0.30600300392871393
1729502167.7774048,-2.044011881210969,-1.6963115674238431,9.993550665740504,-0.0835376955507457,0.09897551574928634,0.008338714385904769,0.99154211536708,0.3132209225590975,0.6859043079632712,-0.3900614821663137
1729502167.7854028,-2.280334699527363,-1.5141049446046966,9.196459758575163,-0.08088736764037466,0.11928966666999014,0.009751308091361518,0.9895110515666213,0.2803072968727193,0.6435436682747699,-0.527337341647128
1729502167.7934291,-2.3658646515035273,-2.02966760421399,9.69815195377791,-0.1022345428793847,0.11630483606562753,0.012036439121415062,0.9878645694037554,0.2690729226901331,0.670912852082961,-0.8208451278207842
1729502167.8014061,-2.5577222601403977,-2.4117889304483158,10.104512143946433,-0.11599644856247666,0.1195867655617766,0.014069686870956655,0.9859238679201953,0.24743314602941024,0.79716239822508,-0.9360761207359074
1729502167.809404,-2.555999784306895,-2.022160597038521,10.634195936270203,-0.09316223567890677,0.1151696345844062,0.010849806683076424,0.9889080011851163,0.22125288812765354,0.8941966289834529,-0.933273096097898
1729502167.8174188,-2.742671708963043,-1.9940455196000655,9.980199757807044,-0.09755482574904142,0.13059924903124118,0.012914422052652962,0.986539461870936,0.2012878327719792,0.8660020849616841,-0.8013301225077107
1729502167.8254263,-2.59921354661806,-1.4157361838303517,9.864811182809227,-0.07060719061885591,0.12689543973182174,0.009056101382186408,0.9893584583132322,0.17355826728447943,0.7622445860103684,-0.6595878993186797
1729502167.8334317,-2.628778589396617,-1.1851087830521174,9.682571719451161,-0.06030920357977773,0.13099308224778425,0.007983798853598857,0.9895149677102735,0.12839929387402346,0.5867565302906786,-0.42767949420086016
1729502167.8414345,-3.0415608889895323,-1.1899056018625203,9.512894159600384,-0.061415311924665004,0.15270776824120402,0.009508718161834224,0.9863154065809302,0.09789838933605363,0.46571316458476963,-0.201693678591914
1729502167.849438,-2.965534204292157,-1.260539600131184,9.63805794107273,-0.06423801179152,0.1472089174644505,0.009581244848905554,0.9869707251013895,0.07406387581426532,0.3620117706744959,-0.05545993768999552
1729502167.8574233,-2.7396348084639657,-1.501638736885351,9.60469887475106,-0.07670649511169356,0.13650321199917795,0.01060205818647829,0.9876085171178901,0.031667623644698245,0.22827500400271036,0.05697033041595339
1729502167.8656812,-2.7886881189650987,-1.6539596642503511,9.352445873922901,-0.08648011321953118,0.1417682391838683,0.01243374964977161,0.9860366921397445,0.003250041912723777,0.1288768912338476,0.14954420490578257
1729502167.8734097,-2.808543298625153,-1.6230085158353666,9.279863308045146,-0.08552015889957769,0.14382105551165233,0.012476483971789645,0.9858225721502866,-0.02018585804839138,0.04369661988480806,0.2561713369751239
1729502167.8814042,-2.7524610792727477,-1.6010859444621577,9.81331636861615,-0.08001047448029958,0.13418015138271494,0.0108699328495752,0.98766181231644,-0.04488964956161126,-0.05168330931666695,0.34356056959714043
1729502167.8893998,-2.8797020992238047,-1.806762433376513,10.150865877077893,-0.08711073985042575,0.1352336965657739,0.011936619789089461,0.9869047995748518,-0.05417795367053678,-0.12849300966480542,0.40067669984643267
1729502167.8974192,-2.849504737317486,-1.7285765469399703,10.022038072389313,-0.08446696569283023,0.13567081363195901,0.011609716850114893,0.9870785057480224,-0.06954180754951882,-0.2094854149135751,0.40685083393951393
1729502167.905414,-2.7147886993240853,-1.8497379716210134,9.66701399699804,-0.09350010860256117,0.13356274856469896,0.012658532590957968,0.9865386375808075,-0.08855099129053476,-0.28149381144324864,0.38969650138372314
1729502167.9134178,-2.1247123834128105,-1.4306658054335455,10.18447047827695,-0.06934808559463874,0.10144062994409958,0.007088613259172502,0.9923962883762538,-0.09740236116637215,-0.37620734679795853,0.3985599546160401
1729502167.9214349,-3.112856044549639,-1.0669344478597367,10.807148263528669,-0.04868478100066119,0.13895813783472524,0.006839857118523756,0.9890771680627459,-0.07589470921976658,-0.2942605079741622,0.4566635941767222
1729502167.9294417,-3.6530698047082986,-0.5458291233056857,10.977966054064467,-0.024504704975027086,0.15969753288705715,0.003965471671923425,0.9868538354073988,-0.07065253915811981,-0.1480350706665412,0.45321367238154864
1729502167.937434,-3.4691484685183385,-0.82501257896388,9.600600682243368,-0.042182884590950084,0.17177054110470794,0.007362053805781693,0.984205916269529,-0.13093505627897448,-0.1369240193451343,0.2927870164405687
1729502167.945422,-3.6803369497633467,-1.7711170322416092,9.586055242109692,-0.08967636065067176,0.17877035299511515,0.01636434374264747,0.9796588791433093,-0.20030839134552572,-0.19198244746428472,0.1016021391699477
1729502167.953656,-3.2183158502779303,-1.312624872665278,9.256744375734565,-0.0693673105414616,0.16459549218055355,0.011604960824262153,0.9838505095116601,-0.19297803531732283,-0.2475790775932627,-0.21446018626396585
1729502167.9614136,-2.7471728561140236,-2.0581777446440888,9.104168847120427,-0.10975504708568073,0.14175183789135573,0.015816231170176078,0.983671740432353,-0.15878151739805887,-0.2762544649945671,-0.5169054478117523
1729502167.9694378,-2.3134129348598202,-2.7715052722747346,9.039438588545693,-0.14709258270076772,0.11837499259305463,0.017733888257372165,0.9818536767004985,-0.13656084640065239,-0.3070817794021347,-0.7098662363998991
1729502167.977402,-1.9605013778592515,-2.6881003142437474,8.964926828664526,-0.14433816843317282,0.10196895205585003,0.014955096027651747,0.984146925541503,-0.14919553755139242,-0.3549507822875555,-0.7937159549431347
1729502167.985742,-1.8531416360417228,-2.45609801325328,9.087335048614731,-0.13095528474758486,0.09619173072849413,0.012767542786635527,0.9866280221985018,-0.1712498143315455,-0.36962441199056095,-0.8150788618896581
1729502167.9934008,-1.7441936400722993,-2.247225364348452,8.268221601678604,-0.13160684665038203,0.09936190162595548,0.013259413538228756,0.9862205830201675,-0.18490807046109942,-0.29158781727410976,-0.7734082781904319
1729502168.0014274,-1.8543198241800984,-2.480074343364931,7.497589619942709,-0.15794737700053388,0.11359647559105138,0.018294973393211993,0.9807210412652951,-0.14585142731654624,-0.12089005255878782,-0.704985541701769
1729502168.0094385,-1.8188813842541527,-2.1375915164193486,7.293784210198048,-0.1410415139216687,0.11598809281027461,0.01664129228814961,0.9830448214948794,-0.09347051725039618,0.017286571433215978,-0.6498841277803242
1729502168.0174198,-1.3915617187360851,-2.1856477760625466,7.5660653979450005,-0.13958912591725028,0.08647263313168321,0.012237675628530155,0.9863506470521233,-0.015641754511344697,0.10785496693473483,-0.5848965248178051
1729502168.0254219,-1.274273035880323,-1.997088021106278,7.749066564206452,-0.12537346857056378,0.07824824334446515,0.009919674482982522,0.9889693149184372,0.037440854054016655,0.1549592731907916,-0.511423068061869
1729502168.0334115,-1.6180967133738968,-2.0343080323903293,7.839713650682075,-0.125962948798772,0.09764110460891323,0.01245939602025134,0.9871394600923822,0.08078405085270832,0.20408066995606522,-0.3813496015929769
1729502168.0414107,-1.9132158014618381,-1.9153821412115413,8.179490740458073,-0.11401021210432505,0.11099043525421402,0.012818413228606692,0.9871770272348864,0.12254050120601849,0.30506943834085065,-0.21987026966508344
1729502168.049417,-2.14679041349429,-1.8378016821878622,8.276336180114686,-0.10816520340625152,0.12294946406046989,0.013482094152109669,0.9864086126938476,0.1463173012336185,0.40695463533353904,-0.09658988669770144
1729502168.0574389,-2.105215274707902,-1.9509466575060768,8.747682650451626,-0.10873857338071549,0.11440604583345929,0.012599294787025775,0.9873846449620071,0.167394422233571,0.52214839133483,0.005899577200683882
1729502168.0654285,-2.167419131865757,-1.912531088986068,8.718765476501444,-0.10696395925084345,0.11813152177479942,0.012800465422808584,0.9871371754064951,0.1821691451408527,0.6125491480087063,0.09165758904305088
1729502168.0734277,-2.3914891756526573,-1.7637861607158596,9.052644555676256,-0.09526029900830416,0.12593140502252123,0.012149591886861858,0.9873799390705105,0.17741189691843667,0.7310688012937988,0.20952004573654798
1729502168.0814118,-2.620502167500969,-1.7652794466736563,8.977159971931144,-0.09594847881051034,0.13837129947174473,0.013470085381440325,0.9856296615343242,0.1643409865098983,0.8043090435721645,0.2870485607360388
1729502168.0894122,-2.7741905338990187,-1.5861314534045843,8.971852389408687,-0.0863864621591493,0.14668485555073255,0.012860375774489808,0.985320020624074,0.16458655143255388,0.8333540367880128,0.3361198101045054
1729502168.0974085,-3.367270541042536,-1.45901020382986,9.20186308159443,-0.07731379190376231,0.1720054472899489,0.013542648546177727,0.9819640015572878,0.1630311301402991,0.7958670147889195,0.36896808021728167
1729502168.105411,-3.5516937064614593,-1.5038840580889314,9.334362833087518,-0.07844506408056008,0.17813724920372717,0.014247971371755977,0.980770354200878,0.1510299357669334,0.7397452867339631,0.3678182292733079
1729502168.11342,-3.672403252685469,-1.6062257229392962,9.282660433006807,-0.08402668836235459,0.1841081452804072,0.015798926328167116,0.979180320682121,0.14425490920437603,0.6247654481617413,0.3134913709627076
1729502168.1214218,-3.645948451855422,-1.6300417557850622,9.99647512943299,-0.07947793731304457,0.1713456083788427,0.013869199966002908,0.9819020242682317,0.14657524418877207,0.45488900045190667,0.24598867093646087
1729502168.129668,-3.464875656806613,-1.395094982670256,10.250944906761356,-0.06666217378923119,0.16051841039670098,0.010866555782727327,0.984719204887785,0.1471160650564856,0.3116711958641889,0.20931826147387111
1729502168.1374362,-3.3612598032636547,-1.253648078469341,10.398838369838064,-0.05920101928873888,0.15436338773897246,0.00926638891816181,0.9861953751044158,0.1278588147498603,0.18274581690389302,0.23116209212690653
1729502168.1454206,-4.364270609741396,-0.6937703265737921,11.426101498465338,-0.029794082202945896,0.18103296791028944,0.005486932404613782,0.983010310611269,0.09799979192301775,0.08155194608584172,0.260870302915747
1729502168.1534333,-3.8364927503663218,-0.8168121336884159,12.00319446841514,-0.03354502652859055,0.1536449617612765,0.005219039099349152,0.9875427679606851,0.039218132326557194,-0.1566771320346562,0.2672015977295764
1729502168.161414,-2.8326901582764337,-1.1530417199103153,11.760476641986582,-0.04849471418769187,0.11722699135693469,0.005731290831626316,0.9919038499263215,-0.03904555963898433,-0.7414808627045438,0.40977533465449634
1729502168.1695812,-2.5622449531201568,-0.7504829726200172,12.240690260094294,-0.030443311448784895,0.1027533076384271,0.0031462863951795517,0.9942359194071166,-0.10899103813725895,-1.2468885934171938,0.5838631095935509
1729502168.1774032,-2.2577622514131095,-0.7603388985622448,12.380377928029231,-0.030534850891375167,0.0898621691737767,0.002756380705938853,0.9954822026524778,-0.1858649102761103,-1.6557043670873677,0.7376958216865793
1729502168.185403,-1.8777904135920065,-0.7640976726334405,12.152944312969883,-0.03129471172221346,0.07638948763096695,0.0023987813949527302,0.996583931761656,-0.23922596460427564,-1.8903515797529211,0.8355294197414027
1729502168.193407,-1.008400686143485,-0.6806405176425643,11.294153503065134,-0.030060574702077184,0.044409575161454724,0.0013369022964201131,0.9985601454969099,-0.2763508779387192,-1.922163251617973,0.9546775673019052
1729502168.2014194,-1.034799609684138,-1.0497909353413981,10.109939073274628,-0.0516410766543441,0.05063928057377844,0.0026219428699297206,0.9973775553322508,-0.31991032901248695,-1.8207799673432494,1.0823575439511948
1729502168.2094085,-0.7815306972069672,-1.2538035138415575,9.291431920527277,-0.0669553047171554,0.04147720311944975,0.0027857836841739033,0.9968895967963984,-0.34562030959528556,-1.715252540324902,1.1759931323992499
1729502168.2174203,-0.8996352969862897,-1.351550783842044,9.297603313693319,-0.0720290858435419,0.0475888945738098,0.003440650390783858,0.9962606435219022,-0.36913440911274337,-1.646402113314887,1.2641012400777354
1729502168.2254481,-0.6120860683284925,-1.4288739187915547,9.121741025081226,-0.07756873221343619,0.032992449383408666,0.0025683317635619494,0.9964376517065359,-0.39643926072854097,-1.6127542782151947,1.3152633444389785
1729502168.2334123,-0.6883140836240486,-1.4530017243218079,8.249360860165924,-0.0869869232060161,0.04082757745556835,0.00356799913100417,0.9953660901861493,-0.44687737661498206,-1.5201982667068337,1.3442578468098763
1729502168.241419,-1.2837595939732571,-1.6484800531477721,7.9076526672226,-0.10224929785352345,0.07830787245072546,0.008074435922083963,0.9916389270723707,-0.47203196540930237,-1.36675594566555,1.3646343786626494
1729502168.2494128,-1.7317671431027042,-2.2505928866249914,8.298783964835511,-0.1313478432678723,0.09834024512263592,0.013095404395277182,0.9863596963794813,-0.4892531689932047,-1.2482977692301338,1.3602583853772938
1729502168.2576728,-1.5267591640354505,-2.004930465861713,8.125969620844668,-0.12014427167964022,0.08943578471585678,0.010868446078676854,0.9886599371243191,-0.47532155764021033,-1.189993565212745,1.3325170757798206
1729502168.265413,-1.580207038948614,-2.0294366926029657,8.461856439254847,-0.11692937011077757,0.08907771850798916,0.010530784164532294,0.9890812833411561,-0.4469551579396982,-1.212904891161148,1.2864996757804565
1729502168.2734082,-1.3010295480761997,-2.589300146665295,8.646868538845876,-0.1445767141210029,0.0707600584862579,0.0103659907031792,0.9869058385143624,-0.43078669824231497,-1.364149576582426,1.1869476153937546
1729502168.2814317,-0.8809347784062665,-2.7767777161730054,8.436334515641509,-0.15811786493629285,0.048788504959985664,0.007822415268844677,0.9861831637130698,-0.4308764938375118,-1.5400344001275992,1.1033777357198598
1729502168.2894034,-1.2391599197781349,-2.596932235172553,8.243455295566546,-0.1516012669929791,0.07031525087632902,0.010812573661935136,0.9858782427821032,-0.42284226002685127,-1.5855429955885567,0.9949162694952245
1729502168.2974024,-1.4710938363883652,-2.1497665713281413,8.757163379976646,-0.11966425891193143,0.08018713122107542,0.009697127064281611,0.9895233473002502,-0.3809866843932582,-1.3808470693683237,0.7318935111805986
1729502168.305405,-1.6823196563252067,-2.426626891039072,8.65909220889419,-0.13558518541161013,0.0914776105994665,0.012573334051041605,0.9864534532996235,-0.3699211110413494,-1.1809796125115564,0.5076722066037462
1729502168.3134203,-1.381690151949421,-3.199433783549225,9.176055005512296,-0.16652661128223079,0.06956824968938552,0.011779213223490445,0.983509225429964,-0.4296894166182811,-1.0193415123742167,0.2833188208891461
1729502168.3214283,-1.6162275970290276,-2.7650528763307065,9.000688586803472,-0.14791736427451574,0.08395369480949466,0.012602848819024076,0.9853493789897871,-0.4638476397185919,-0.9036282895874836,0.09209001128593587
1729502168.329445,-2.0971661199849945,-2.5348306930835798,9.14207150657427,-0.13399600470048123,0.10757406826528393,0.014633750963794816,0.9850171287312187,-0.42346889478970795,-0.647322418933612,-0.20356555059735368
1729502168.337437,-1.4088949564148248,-3.032597344072804,8.812464951063705,-0.16447536581911906,0.0739222847657934,0.012362001583625703,0.9835296288218868,-0.38987646648021285,-0.4560781711326302,-0.47333363106458826
1729502168.3454173,-1.0711101904016291,-3.1157791852522765,8.44686748138041,-0.17545316404075734,0.058250943643360205,0.01040015266585165,0.9827079177544426,-0.38291740139983876,-0.3583592249105224,-0.6254036079313023
1729502168.353407,-1.3276472092116804,-3.1855601637392565,8.789906969541136,-0.17252190147447422,0.06941012525757047,0.012188287454714567,0.9824814876995298,-0.38001903253600045,-0.24353676906426958,-0.7289906058337297
1729502168.3614163,-1.237121430995758,-3.166855448829491,8.918397948814524,-0.16940243085896048,0.06400260531361326,0.011025162094637579,0.9834047634280261,-0.36763775968114665,-0.14612206143856174,-0.8060419567263573
1729502168.369408,-1.470110163284955,-2.931056504160976,8.314821004396137,-0.16804545549182934,0.08133879316936174,0.013914635746060276,0.982319249799346,-0.3180656798834932,-0.02637386801260448,-0.830136884065908
1729502168.3774335,-1.571596176095973,-2.6459250377504917,8.507411362403309,-0.1495989896470087,0.08620133051576169,0.013093408724130794,0.9848949363063502,-0.20616425014272907,0.16381688512941464,-0.8207551970277648
1729502168.385427,-1.3619429961849274,-2.6043724677186546,8.052427321592376,-0.15525131104198886,0.07872232439472522,0.012412207541360827,0.9846551493622453,-0.09134610541452304,0.317094822669133,-0.8215115357268092
1729502168.3934019,-1.418110414410175,-2.841606007486662,8.233616952037456,-0.1648372026374564,0.07949982977432815,0.013330871190484221,0.9830212416656181,0.03458724965831282,0.49462528754683244,-0.8147286079013814
1729502168.4014034,-1.4084758152964956,-2.8297595444334034,8.523092955646302,-0.15909190746043342,0.0767101637892681,0.012399872170955848,0.9842009748634517,0.13356021608242605,0.6356244614518767,-0.7863945177027889
1729502168.409443,-1.4024556356622724,-2.6062158365233232,8.313227451854578,-0.15081381557241078,0.0788012160808928,0.012061096060267965,0.9853426263683553,0.24104697288210356,0.7542791707118657,-0.6889386419673095
1729502168.4174204,-1.329651099903223,-2.4596397631444633,8.459768298505326,-0.14058941194541152,0.07407928100903054,0.01054941167818427,0.9872363381112309,0.331931810772556,0.8510133999555809,-0.5666116073067171
1729502168.4254265,-1.2637023030083399,-2.400185118873006,8.500048193458664,-0.13680971974039147,0.07032473398806652,0.00973747035433108,0.98804995523767,0.3966792749819163,0.9056484170101138,-0.471505193375798
1729502168.43342,-1.4257248046565663,-2.3527807441753663,8.559410894834963,-0.13328269765081618,0.07882712772430889,0.010635179818031285,0.9878810147947448,0.45468380627332383,0.9388551173042956,-0.3744264792398156
1729502168.4414866,-1.5136009191708928,-2.2788482878138137,8.690557161900978,-0.12740927765137636,0.08267066314432053,0.010657257435280799,0.9883414694768154,0.497574636215947,0.9587791374808048,-0.30000302842266896
1729502168.4494245,-1.345820614979098,-2.3111032671218816,8.96604829860543,-0.12545999416613746,0.07153466403955787,0.009070204555969588,0.989474766274458,0.5313972453492994,0.9196507422112664,-0.22810479399881095
1729502168.4574056,-1.2257593990167557,-2.2792203391793793,9.20197192960271,-0.12084241442187582,0.06377571525102764,0.007780018669736376,0.9905903494030264,0.5350888984322917,0.8335972660146247,-0.14282253725975502
1729502168.4654043,-1.1362449973202098,-2.073821693253721,9.327724377244047,-0.10896835374983356,0.058789329586986266,0.006455989262260395,0.9922842500062214,0.5224047381309159,0.7679174082683926,-0.07164575032760596
1729502168.4736817,-0.940081357522985,-1.8813900777198107,9.441961912723382,-0.09806177602358562,0.048413792098448566,0.004776245123204806,0.9939905333051575,0.49095559850821674,0.7187186222070268,-0.002972584419132604
1729502168.481402,-0.864760543029416,-1.6830917309580582,9.651762331960201,-0.08612882899745986,0.043839962150323625,0.0037936702570871695,0.995311755481751,0.43930798000202076,0.6977131517994479,0.06292133869074924
1729502168.489432,-0.9162938014035871,-1.573450109375616,9.808288364752292,-0.07936137466817114,0.04582883403690863,0.0036524335724575207,0.9957851926548188,0.3895890461939738,0.7029888521363059,0.11139718384738102
1729502168.497401,-1.119356855793324,-1.5409445395023227,9.748017397513484,-0.07818006825631539,0.05626578215977737,0.0044194555956396245,0.9953403976015565,0.3231483406234109,0.7593655300211746,0.14133407106428414
1729502168.5054317,-1.235448604442791,-1.4316586353224874,9.825818816193637,-0.07213571166965647,0.06169124349334409,0.004470369795361765,0.9954750852593197,0.26838476512990206,0.8153274199481214,0.14865395185787522
1729502168.5134108,-1.3742960816109873,-1.4362372014571643,9.758296248212275,-0.07281907004531948,0.06898086628952367,0.005048648574550826,0.9949439854942852,0.21126228633046096,0.8701890569773911,0.12580171640045984
1729502168.5214536,-1.5196143909099518,-1.3537507620364078,9.621296380519162,-0.0696174989685802,0.07730571711787922,0.005411272480577973,0.9945591727335238,0.17145482825178987,0.9082143199324972,0.10017105340507373
1729502168.5294514,-1.6573230315186274,-1.4007452252882509,9.63007612298923,-0.07189138056379146,0.08402448852447601,0.0060780262812739315,0.9938483648552009,0.157786914879676,0.9271982671524027,0.06010263204304424
1729502168.5374417,-1.7617354509912544,-1.5637354567061539,9.318591088832601,-0.08266694753846919,0.09171810629499744,0.007640749925645001,0.9923182874979707,0.15980272833149642,0.9147499920424722,0.005837584862022301
1729502168.5454302,-1.8519162217666274,-1.4869922945315048,9.262902319315184,-0.07911028767507029,0.09698559031979252,0.0077336021974032925,0.9921066218160935,0.17165446793913947,0.8983415356858113,-0.039917835351913844
1729502168.553411,-1.7700340299349766,-1.6889856892189028,9.472739946276612,-0.08772910414141058,0.09048176659492715,0.00800194577675071,0.9919942656407811,0.19536742410074454,0.8608266078767827,-0.08397299987729476
1729502168.5614345,-1.8078142350996576,-1.6981330883360293,9.576376447014013,-0.08725294714678788,0.09140844299699279,0.008040373066095514,0.99195099282375,0.20618967730601134,0.8204386686099603,-0.11806851969883989
1729502168.5694144,-1.8611281394484662,-1.683749654027008,9.623235456831454,-0.08610002081325967,0.09363378339294152,0.008128168492859026,0.9918434523151483,0.2122573391677094,0.7681103609933726,-0.15299929368147602
1729502168.5774314,-2.093750581178845,-1.7285102904630798,9.619747400807857,-0.08826202211040174,0.10490419937594873,0.009347731420644234,0.9905137779574607,0.22526311763689288,0.7086178323669259,-0.19737071145146945
1729502168.5854032,-2.193580298658479,-1.7793086889262852,9.753166381158543,-0.08954679348220482,0.10821810163962264,0.009788097145201598,0.9900375787862034,0.23434365490278908,0.6724966251295958,-0.24868358567826332
1729502168.5934112,-2.1931442473103213,-1.8112242490003025,9.893551651204891,-0.08986751966837168,0.10670030527092325,0.009684044550126815,0.9901742740774968,0.22531851517261775,0.6465670001725775,-0.324168766667853
1729502168.6014042,-2.219218834763146,-1.9563085923689316,9.899252998779577,-0.09680561178370327,0.10751572250615322,0.010519386115966861,0.9894232590033983,0.20628134936772993,0.6293064649525184,-0.38733885784301214
1729502168.6094356,-2.007653849686012,-1.8369790152846401,9.932361907910323,-0.09085663189455581,0.09753599788900016,0.008941950200044483,0.9910357425861057,0.16974333625853738,0.6168216935131727,-0.4818576907225578
1729502168.6174107,-2.514938878415123,-2.8099714533602373,9.637868575410257,-0.14026223526968035,0.1211942093875591,0.01730145671584272,0.9825167319509562,0.1312186159960026,0.6323180939685151,-0.7139532957726422
1729502168.62541,-2.7058247369611834,-2.783724333197783,9.604585255353577,-0.13930694349490974,0.13043756861586206,0.018514369102289183,0.9814462972187691,0.11959741549795659,0.6782252795274553,-0.9443083319555676
1729502168.633415,-2.615412589979444,-2.739485061344451,10.231528551893787,-0.1294392791148735,0.11971502232186244,0.01574445858965715,0.9842082597074749,0.11773297593667337,0.7900562230323016,-1.0497432189327465
1729502168.6414077,-2.522618655061885,-2.1869353934961238,10.332121918733927,-0.10335921758392555,0.11633032670989812,0.012173018013803445,0.9877428536114259,0.1000123998028842,0.8601346195654436,-1.0419139108548945
1729502168.6494133,-2.53589530192385,-2.0165353645156427,9.850191262812622,-0.0999934844380919,0.12259024904200727,0.01241554202163316,0.9873291184939583,0.07958918270898396,0.837902458204562,-0.9210029392290486
1729502168.6574094,-2.313778510500013,-1.9492506913656358,9.901248925168042,-0.09639760548290124,0.11192554458197049,0.01090969118656953,0.9889697430990525,0.04775350962539038,0.6419421250208215,-0.6922281036969755
1729502168.665406,-2.5140207269054766,-1.5396939914795378,9.947445833372308,-0.07610917414909095,0.12170995376253414,0.009360602371917706,0.9895991410104902,0.011624503316752959,0.46349224632150665,-0.4753591608843317
1729502168.6734028,-2.8857966512311766,-1.4179796175439725,9.812597685570259,-0.07094676143964512,0.14078514240914597,0.010115266785879784,0.9874430525837493,-0.011329970652815586,0.33471212596735417,-0.27627600523989637
1729502168.681405,-2.83999335939105,-1.6296215705752115,9.999839382826531,-0.07990084568492078,0.13577767141932381,0.010986621351297333,0.9874510483836978,-0.031062315895025155,0.23658524074322315,-0.14618386031668437
1729502168.6894147,-2.428720858163927,-1.628995793907627,9.736534160701778,-0.08216467414043152,0.1199116880563053,0.009958779410143411,0.9893285481090416,-0.07227433728123107,0.10747024946750933,-0.025133877155091966
1729502168.6974115,-2.5477913710995277,-1.5582307990984823,9.505767296958176,-0.08044492308737738,0.12850244919869358,0.010458841470809265,0.9883857281114957,-0.10381259109634713,-0.006182400522191642,0.12156618343625698
1729502168.705433,-2.556505595364795,-1.5943016166661206,9.661554562745218,-0.0809867910731737,0.1269156474739653,0.010397572970452396,0.9885471402893533,-0.125715373815651,-0.09140159297449349,0.22491106200369948
1729502168.7134097,-2.522948063029424,-1.6276756953414693,9.862047736426428,-0.08104433927265312,0.12289593619523281,0.010070253118333934,0.9890535849693327,-0.1401341136316194,-0.19446729594424245,0.3069254220328804
1729502168.7214396,-2.620368845141873,-1.664459554167772,10.244029882090231,-0.0798097291602501,0.1229429829068884,0.009919678147865844,0.9891496499876886,-0.143251386722194,-0.2682260394470287,0.36975612001717406
1729502168.7294486,-2.573715861528483,-1.7346533228326946,10.148086584039293,-0.08388802999109726,0.12174140358490766,0.010326688095820939,0.9889566161315475,-0.14597313069946286,-0.33121164825302984,0.390852626410731
1729502168.7374427,-1.9205980178936524,-1.9127602383285232,9.907603598372795,-0.09477425389222745,0.09347821584185817,0.008939245784478122,0.9910599143578552,-0.15228876776190653,-0.4303023823871631,0.3622185942850481
1729502168.7454534,-1.5902582943787693,-1.3736687797158638,9.812394941006099,-0.06925976401180427,0.07929589374774859,0.005522794290544128,0.9944268424911906,-0.14501020840135992,-0.49316234335933934,0.35270059611595495
1729502168.75341,-2.82857545636359,-1.0224411652904557,11.27223591846108,-0.04486045738943288,0.12201501478319544,0.005520582258641947,0.9914985621279504,-0.11893287965046832,-0.2890863650322111,0.41041761637234175
1729502168.761404,-3.664939618300576,-1.0468151996625545,10.836117995168445,-0.047474071298829607,0.16146576009852265,0.007776602761501779,0.9857051005851648,-0.11094890350624993,-0.06404947322358452,0.4399395477886294
1729502168.7694008,-3.023047982406127,-2.5250150951393295,10.411641528302237,-0.11751426633776883,0.13611037260106856,0.016262181212568158,0.9835648962522523,-0.1819313487599605,-0.04779486528631541,0.34186500992072943
1729502168.7774913,-2.7858746634671134,-3.625497820511332,8.006723137196186,-0.2084052331979894,0.1494326790161531,0.03223794413468366,0.9660216603035959,-0.24027134818628204,-0.11594338177150573,0.11061581230786663
1729502168.7854314,-3.2801888935392522,-2.4305205892794555,8.439150262932946,-0.13742541285370066,0.17603758337137038,0.024826928062818013,0.9744273440260804,-0.2275980609583274,-0.0865936315213847,-0.13029932101073866
1729502168.7934291,-2.8803041686430824,-3.161307994436814,7.749305580123049,-0.18970713339904105,0.16188901235455866,0.031730611903507025,0.9678823892832296,-0.1429441874969269,-0.08984259438295164,-0.41021784054682786
1729502168.8014271,-2.169194446986631,-3.6696911260077916,7.465882760915626,-0.224522560289517,0.12388895581031958,0.028790939400304114,0.966132614270793,-0.07682702120745347,-0.18033550488399436,-0.6177581279844503
1729502168.809433,-1.8385361005650256,-3.7046550576847532,8.863552316461485,-0.19574258324237195,0.09256422060378582,0.018562391945552977,0.9761004783191515,-0.056312774199560836,-0.329134444829191,-0.7486676513689543
1729502168.817421,-1.5762159083858904,-3.1064928673745236,8.672168495589782,-0.17050045980873568,0.08338422349218437,0.01448182952300886,0.9817163241442416,-0.09721548367757922,-0.4396983118694106,-0.776981938147137
1729502168.8254375,-1.4291188602170812,-3.0629119118309642,8.714397831973008,-0.1676760432538787,0.07558251895044708,0.012894441037210057,0.9828559206405416,-0.13325074102386508,-0.4434601930586237,-0.7773685978170273
1729502168.8334072,-1.6477972841478268,-2.6110742833290472,7.859387483363493,-0.1588874942086721,0.09678557869396204,0.015653256212248303,0.9824165570219783,-0.13273601223561096,-0.26394766552786403,-0.7507821197468534
1729502168.8414083,-1.6856304737601804,-2.405812251882194,7.596335927518095,-0.15189213793990786,0.10282637102028454,0.015890153195937822,0.9829053967123451,-0.10475732096762644,-0.11537390310905321,-0.7220595310608882
1729502168.8494127,-1.3501578191682175,-2.334369788873457,7.534991320915154,-0.14908954971868135,0.08370392270484055,0.012666937816599399,0.9851931324237159,-0.007514684590511758,-0.013033253752443755,-0.6843928548991316
1729502168.8574128,-1.2168695535614775,-2.4073836714197774,7.766095722724873,-0.14930139982183846,0.07337603517817871,0.01111066247363504,0.9860028410974114,0.1104275058404415,0.06795287868877536,-0.5979393399827728
1729502168.8654344,-1.2393684252521209,-2.1868721376663194,7.987597741252111,-0.13283772744210678,0.07354624433776519,0.00988481577578919,0.9883558966935468,0.1794900598531653,0.12761249975151967,-0.5094578857472228
1729502168.8734121,-1.5097655864012727,-2.0902388221505728,7.95051063449736,-0.1276403149681641,0.08994243347989925,0.011623652125541593,0.987665530109159,0.21794776183056536,0.23577558283771163,-0.35548046863939137
1729502168.8814175,-1.6035297156102948,-1.8275545908977655,8.022829336020681,-0.11121386983443554,0.09548308374408522,0.010735625285562603,0.9891406382435701,0.24315083332431556,0.3411139885283198,-0.21626811161386905
1729502168.889406,-1.8910680735068017,-1.8253277398902217,8.631252148731548,-0.10341241133962276,0.10481216404011348,0.010958988792486473,0.9890400315532224,0.27402320849466083,0.48179262312877447,-0.08804324094504232
1729502168.8974276,-2.0262415423462685,-1.8184849654673363,8.92831050920963,-0.09967046310520368,0.10864117561256352,0.010948629316636217,0.9890111330323846,0.31553389691581774,0.6121743305269467,0.00762204416058309
1729502168.905417,-2.307500882439011,-1.7214842763995424,8.855393771346092,-0.09507318396002908,0.12430748261231205,0.011966622921747267,0.9876059636282787,0.34597428076751824,0.7172218288379579,0.09481951952630055
1729502168.9134362,-2.8454423824907504,-1.5237019061717565,9.14036761656742,-0.08154450731079951,0.147908398243177,0.012237861232977192,0.9855576258185105,0.3574274700951461,0.8458065972897176,0.20120064255140907
1729502168.9214308,-3.1931069797874185,-1.5496422643085228,9.273044697137717,-0.08154372142648107,0.1624170191312952,0.013469640671811858,0.9832547493770865,0.3591911029541784,0.9284914291597798,0.25098154433822706
1729502168.92967,-3.4115219649720605,-1.4069497494542542,9.32392052555802,-0.07364090501930959,0.1722175953705942,0.012911863592047006,0.9822175933729185,0.3606749727310598,0.9602233457004117,0.2484976407392035
1729502168.9374106,-3.5155164773230796,-1.4491846091940368,9.306801409573094,-0.07587853042605086,0.17713564017706118,0.013698858954097849,0.981161431601753,0.3539028734908721,0.9013612143772392,0.23636504704323857
1729502168.9454153,-3.6645832848313478,-1.4417249622937658,9.50602258524581,-0.07389085790268815,0.18055645119904426,0.013604156522101648,0.9806907952938756,0.343028572963367,0.8158125083308159,0.21333495855156445
1729502168.9534318,-3.633834445996465,-1.3670990655110251,9.880298347290063,-0.06760197393251856,0.17338807865710248,0.011930661086357918,0.9824582467596615,0.34203796344587034,0.6648718103208465,0.15865065955620494
1729502168.9614177,-3.4372565391799097,-1.3601519136718496,10.2272075093506,-0.06517217279481333,0.15975415375373292,0.010570651409821092,0.9849464247259359,0.34527480828853063,0.5287585549384275,0.11817765905267268
1729502168.9694088,-4.028232906662242,-1.146490977304672,10.737501256098641,-0.05227930431208289,0.177325940839468,0.009433512906743382,0.9827173519788284,0.3314663829200316,0.3960077943335323,0.13348303446652227
1729502168.9774044,-4.354327727395783,-1.090359885455069,11.385569501217777,-0.04689853429914395,0.18067279090997618,0.008625208128981692,0.9823866224099979,0.2814637016756531,0.19886688100707448,0.1886407863527314
1729502168.9854026,-4.030203439415986,-0.6168663853746038,12.33968146025215,-0.024649020213834534,0.15695622936144638,0.003918622429108027,0.9872901358088174,0.22038671844229768,-0.08671386114337862,0.26558151381504613
1729502168.993426,-3.2441216364034973,-0.33348854582437165,12.815183468436446,-0.012904263152741863,0.1236013515278804,0.0016074473158644597,0.99224674451776,0.11392735842251123,-0.6722587362362072,0.46073747180414604
1729502169.0014277,-3.001597653472958,-0.4658495117719667,12.84286857471421,-0.018003487624905033,0.11445478828503043,0.0020745613870415585,0.9932631434151878,0.01642222755513887,-1.1776854635411598,0.6225285030511193
1729502169.0094488,-2.2613635713318216,-0.3448714123854456,13.002892317924228,-0.013206770150343307,0.08595163502184916,0.0011394607657832833,0.9962111218453797,-0.05016896213306314,-1.571187792954082,0.7774969701581396
1729502169.017433,-1.6467559638440146,-0.8006848591500173,12.001165102668597,-0.033222948752301765,0.06794282686789373,0.0022637504743451193,0.997133332803187,-0.07948142440943355,-1.76429449439417,0.9002763547246939
1729502169.025533,-1.2162209965192994,-0.662609661827901,11.225352052323812,-0.02943102430874525,0.053819976825565385,0.0015869675633236248,0.9981155776945807,-0.11537357441812315,-1.7528771868810755,1.019918512102526
1729502169.0334108,-0.9167197475697828,-0.6740960888447874,10.376552536325928,-0.03239783277896767,0.04392879122697974,0.0014253239415177243,0.9985081923470754,-0.17436958983199569,-1.6413070472535591,1.127887461753498
1729502169.041435,-0.9038948539129633,-1.1289430756701537,9.867512246893213,-0.05686563549359508,0.04529055978420995,0.002582317827689073,0.9973506887394119,-0.2148754798178636,-1.5441409691132448,1.2037367731420938
1729502169.049414,-0.5684337104434811,-1.1954710846599048,9.161059295157411,-0.06480345886308916,0.03065542469139568,0.0019917060370772447,0.9974250797746325,-0.2519497156532453,-1.4896725327822147,1.254354640712796
1729502169.0574179,-0.49333145185202615,-1.4561332831201617,8.849236161811245,-0.08142146280967666,0.027381930815507598,0.002237754218821959,0.9963010427149032,-0.28781633912125937,-1.4463492194470458,1.2770629401489004
1729502169.0654116,-0.6524954983084813,-1.334803209618191,8.309715797428542,-0.07948946049718786,0.038554474205272256,0.0030767194255345047,0.996085092743686,-0.3199785647386186,-1.3386227396452344,1.2779172179667022
1729502169.0734043,-1.033622184238995,-1.2708637116595864,7.719768354189547,-0.08130727493753596,0.06541152240843892,0.005347706257143076,0.9945259482870367,-0.32565381814224903,-1.2075792021760705,1.2401176791258004
1729502169.0814545,-1.4602986730922252,-2.134395778265283,8.351253291566461,-0.12432745848127004,0.08315708207896663,0.010456921884186563,0.9886952187364962,-0.3171396484634904,-1.0914923542859136,1.2089241545920189
1729502169.0894294,-1.5604420383279913,-2.244064215006045,8.465584970545345,-0.12867591201101414,0.08730998904249247,0.01137379082362872,0.9877702730715446,-0.28734112309143744,-1.0614294212677884,1.1731804374132686
1729502169.097409,-1.5396040413561698,-1.8815426000485485,8.794673118557675,-0.10479374842854013,0.08420078372294877,0.008904901367158335,0.9908830410509498,-0.260096826516041,-1.1068194806147558,1.1155505518817457
1729502169.1054049,-1.1763506999601863,-2.139757500947098,8.761564387492026,-0.1192185564403358,0.06433900569717446,0.007742009440532349,0.9907509724628102,-0.2599264709063603,-1.2472870725718368,1.013713590851831
1729502169.1134121,-0.9746792664116586,-2.139542173908102,9.015595818774512,-0.11607321915447735,0.05202273888039728,0.006088011412084031,0.991858648473433,-0.27387202956879897,-1.3869073357361494,0.8921634255062738
1729502169.1214137,-1.1323614795247297,-2.1659886161124393,8.457894465141662,-0.12475287961596694,0.06393817845455514,0.008056287242542265,0.9900927858535801,-0.27329987347555945,-1.4064002943539702,0.74601463572747
1729502169.129447,-1.559046577656244,-1.9927145502826977,8.441223633430699,-0.11517733091200034,0.08821420295239228,0.01026947218821154,0.9893669565850869,-0.25720604754552057,-1.177155494737153,0.4680419043866595
1729502169.1374385,-1.6996571165156216,-2.3340716195739155,9.135595262822092,-0.12422850313501613,0.08835767582018995,0.011107056629890135,0.9882493781558923,-0.2679828749376748,-0.9710725150716755,0.23144509550240003
1729502169.1454196,-1.3846706029171854,-2.9808554876134896,9.47153364450966,-0.1514825941617309,0.06842005332239297,0.010511257063987372,0.9860330792850349,-0.33659972034642394,-0.8286923645680595,-0.008847394025884942
1729502169.1534123,-2.0777025863596865,-2.7924020486716095,8.441519339537829,-0.15796242530168988,0.11306943220051768,0.018210711776251033,0.9807810895767021,-0.3360522015683943,-0.623645366995059,-0.29818319870140875
1729502169.161411,-2.375248214413468,-2.3980112902381214,8.778557798791056,-0.13180847461651599,0.12618168578840805,0.016918312656840087,0.9830658568415995,-0.3008171052616899,-0.41547915615885245,-0.5624566645981357
1729502169.1694071,-1.8003203287945653,-3.0003050968967795,8.72148883454807,-0.16411127145610543,0.09491987149193565,0.015867216682203436,0.9817361865652987,-0.2801017375391293,-0.2531187042484697,-0.7997734055066477
1729502169.1774092,-1.5245560254017392,-2.8426184609700984,8.393718332467122,-0.16193014363493435,0.08394861731735771,0.013827106790314403,0.9831276973774478,-0.27831476844214376,-0.16549330451586686,-0.9319468885766661
1729502169.1854005,-1.7376207258367466,-2.6484076903515903,8.942371008025196,-0.14283668203902947,0.09101963341818826,0.013192713287085548,0.9854638810796794,-0.25851222427962306,-0.0937620119105137,-1.0316841013688547
1729502169.1934047,-1.7948305971231417,-2.524938043166032,8.413720158526054,-0.14448972917878444,0.09953585782525506,0.014610135104005885,0.9843789286250874,-0.19852772083690107,-0.00560008983232646,-1.1132366221787315
1729502169.2014334,-2.0127917872289633,-2.6507720934777446,8.157581791160554,-0.15536449556912907,0.11357514396562099,0.017984705229844012,0.9811417382659522,-0.13656992502208393,0.10391384158903609,-1.1442891520832523
1729502169.2094522,-1.8718266128647216,-2.778466119856178,7.877006082752973,-0.16767427278711658,0.10842873149509498,0.018557694425682544,0.9796857457416022,-0.03171052776073062,0.2883897275897604,-1.1322709856006985
1729502169.2174106,-1.6816632150332862,-2.3357801955953477,8.220780392815847,-0.13729848809432932,0.09606571914895295,0.013380083485219216,0.9857694842798362,0.06696307575889202,0.43525891441446773,-1.1288912962643245
1729502169.225441,-1.6295749993324717,-2.361303562913849,8.326249088960992,-0.13711087329444274,0.09203598185457751,0.012795873824595677,0.9861877367324967,0.1683105539554067,0.5902137661588311,-1.113241400695715
1729502169.2335556,-1.6442907417869832,-2.3023973318401065,8.20996518213636,-0.13563914242941327,0.09421994561154459,0.01295896812697706,0.9861828887356822,0.27381649732682883,0.7483172566091398,-1.0280786324143079
1729502169.2414312,-1.730931741214768,-2.15763857732672,8.37554486123494,-0.125093079679888,0.09781811060978858,0.012394606146018278,0.9872333626814976,0.3558504260540115,0.8712748949358192,-0.9301550646846399
1729502169.2494338,-1.5961686113792515,-2.167987912021032,8.571378995598385,-0.12303953859805788,0.08850394708709149,0.011017441071739407,0.9883860274628599,0.42294976587172645,0.9629284605132322,-0.8075474148275346
1729502169.2574356,-1.5052550865052854,-2.133496084614963,8.607237199605125,-0.12074327231453008,0.0833536923020566,0.010175043829841466,0.9891257213587432,0.4683176504998998,1.0153664594909078,-0.7109955615943215
1729502169.265559,-1.6305115162586399,-2.0081743756224935,8.870087649352918,-0.11063804310824306,0.08803527363020622,0.009839377465043975,0.9899051473071213,0.5104375334279749,1.044700808570203,-0.5951706012955574
1729502169.2734025,-1.5548306695208087,-1.8716897877270116,9.09268078419183,-0.10096792322910138,0.0824514588779179,0.008396900103145285,0.9914316554742254,0.5463517147213708,1.035482944145672,-0.485660759338868
1729502169.2814102,-1.5589821358433447,-1.8120651104291756,9.232940429743614,-0.0964080562314635,0.08162192237466165,0.007932807538748107,0.9919578716085118,0.5721571241120287,1.0035594416803075,-0.40505570201368324
1729502169.2894292,-1.4937171086544443,-1.668551229343443,9.511744812045386,-0.08645199902358341,0.07636665137572866,0.0066465645238547215,0.9933025770642672,0.5850862293776511,0.9388565036246516,-0.3290228136235403
1729502169.297434,-1.4363621597239165,-1.5757391360435657,9.782217532979185,-0.07955521334170697,0.07168994243877037,0.005736392298260013,0.994232675980166,0.584755581369246,0.8906695594390932,-0.27233513899144174
1729502169.3054063,-1.1725846713226311,-1.3354589320655925,9.815693116223056,-0.0674381441693456,0.05874214998338145,0.003977431934359906,0.9959847571933679,0.5551845783233227,0.8515408314526695,-0.20937561003276445
1729502169.3134081,-1.1601250593853754,-1.1594479275987304,9.921490885602974,-0.05803345701864258,0.05768117594685276,0.0033587192484984905,0.9966412187005228,0.49359590016517957,0.8331718753983596,-0.1371189976791335
1729502169.3214095,-1.155761754381225,-1.060305669401035,9.968928396107879,-0.05286584572385232,0.0572777428585257,0.0030372910144055762,0.9969529765200705,0.43152697964403375,0.8315156831179383,-0.08397415885332822
1729502169.3294497,-1.31211876161311,-0.9663438105761678,9.981110331121759,-0.048133323677147295,0.06493304600431198,0.0031357185808916564,0.9967231561257992,0.3457569603246747,0.8539349211300973,-0.04740466488176271
1729502169.3374085,-1.4751253939307565,-0.9403730563652318,10.007333685245321,-0.04670021987452407,0.07271456669350657,0.003408558080488491,0.9962530115317387,0.2747132059058058,0.8797314757197916,-0.03057124923636778
1729502169.3454165,-1.6033357344053287,-0.9884763679988265,9.9332851354636,-0.049408704039868426,0.07944656638022547,0.003942675663288651,0.9956060859416777,0.1976060582760599,0.9054259699486971,-0.03920156255346022
1729502169.3534098,-1.8210409963072598,-1.0573215227035928,9.768906502420737,-0.05364547985395035,0.09136420800295272,0.004929080166298473,0.9943593154166892,0.13133433680949688,0.9250995671006605,-0.05970459275634882
1729502169.3614042,-1.9399325653136528,-1.0162680784170774,9.762695506677051,-0.05158188566188873,0.09727739413664123,0.005048512502411069,0.9939069021709536,0.08986854368371094,0.9369037253918386,-0.0805202121073226
1729502169.3694012,-2.0629822625768637,-1.1539628844037622,9.51595744072498,-0.05994948485623556,0.10560016300267502,0.006378003598764901,0.9925794607533316,0.07094872866870783,0.9307898284612226,-0.10620597562322986
1729502169.3774307,-2.2225245003683836,-1.0373821898707727,9.271188854083427,-0.05528994356654644,0.11649142433982959,0.006495167103416663,0.9916302652702692,0.06981340113479471,0.9220132095653086,-0.12715140453178064
1729502169.385467,-2.4283831194104835,-1.1065368896060574,9.350340338817244,-0.05837533457120831,0.12565228143387489,0.007406633097470827,0.9903277065044284,0.09339653811778265,0.900571015892203,-0.1627059251958608
1729502169.3934033,-2.4973104929841807,-1.270133994115197,9.636293715009097,-0.06494052191182303,0.1251471465689382,0.008209407783211276,0.9899765279759525,0.11946574202851232,0.8702524071683962,-0.22490488349466392
1729502169.4014015,-2.5046692535541806,-1.3745171811370869,9.590232809816005,-0.07052563511613866,0.12583760364995014,0.00896894934500926,0.9895001719286106,0.14149261529688056,0.835033639475631,-0.2720151298875725
1729502169.4094086,-2.6529760296715703,-1.3772920518463148,9.51830353598726,-0.07111284293555083,0.13382668212568452,0.009628456130550373,0.9884030936583499,0.1759932423310031,0.776441653451313,-0.3207144006734952
1729502169.417431,-2.689527078984583,-1.3796752347698984,9.629332558604075,-0.07042220519912916,0.134123309413747,0.00955598403968542,0.9884130381858737,0.2086129402724135,0.7331983506689437,-0.366535875542068
1729502169.4254167,-2.691585834793093,-1.3703312370533454,9.843432794439789,-0.06847812596147519,0.13154160430478978,0.009108824178702664,0.9889006936613038,0.22946182922164585,0.679156824943028,-0.42212430451970584
1729502169.4334347,-2.705989197409059,-1.3000813935991948,9.69368670303106,-0.06597993796375214,0.13425227479895518,0.008959126850972686,0.9887075950672541,0.21770682908784944,0.624596026311453,-0.4937894674378714
1729502169.4414115,-2.5027443680548105,-1.3414891254661572,9.764968819914339,-0.06766016629645766,0.12372056490114766,0.008455751417365414,0.9899716278688214,0.19916019734809676,0.5841971260261913,-0.5687153197984232
1729502169.4494147,-2.968813398176636,-2.0625676073597727,9.501519697710322,-0.10545850710467651,0.14679338984389903,0.015741872097184015,0.9834034764227071,0.17228168603014996,0.5757083181291296,-0.7690477036483956
1729502169.4574225,-3.3145347820700444,-2.2754269840935977,9.486144643333224,-0.11579959752052306,0.1619082858550367,0.01913543094731413,0.9798009978909131,0.16892528108324284,0.5995619575703106,-0.9875815381561084
1729502169.465431,-3.1877370606482764,-2.2274082082784243,10.404672754017511,-0.10409193821144594,0.14422110104229222,0.015257329819730095,0.9839371709109812,0.19372991198720657,0.7100800951254383,-1.1263642599670527
1729502169.4734294,-3.1341639234006844,-1.8768162396643202,9.810882386541365,-0.09323266170571393,0.15075996016946672,0.014283422828306186,0.98406051085961,0.1856254272106351,0.7738368372897428,-1.0789470441847755
1729502169.4814029,-3.1250043769896294,-1.5778755970700766,10.03185018631935,-0.07702200300233786,0.14825903555051073,0.011582796121769627,0.9858766191898162,0.17267462517691362,0.7452575429387865,-0.9845147551887943
1729502169.4894228,-2.7251836357152617,-1.495715798915874,9.997794430639265,-0.07351450872780858,0.13091791453486532,0.009735192850689519,0.9886158721568811,0.1351058396543385,0.5356980585473745,-0.7622619478824754
1729502169.4974303,-2.716092230989704,-1.1938316448768682,9.412808225766371,-0.062399500587621705,0.13867470129099962,0.008755395237020689,0.9883314082849493,0.08915161496038171,0.37463009281117865,-0.5539888126813663
1729502169.5054348,-3.050374603730541,-1.1103845801878396,9.34888128189537,-0.058320438564892205,0.1557535512622153,0.009212313634257188,0.986029761717318,0.04710561805429855,0.26606999164852424,-0.3443126093297567
1729502169.5134084,-2.5889472683418404,-1.163985273259188,9.836291800143082,-0.05835971685323352,0.12726132965194675,0.00750102706342636,0.9901224328420313,0.0014448969604711343,0.13835749191601296,-0.18445168240182838
1729502169.5214384,-2.4262942862980728,-1.2543247894437939,9.999211801277255,-0.06190219499682504,0.11762873425574596,0.007346869870422468,0.991099199190007,-0.04383051827723064,0.033208757958550085,-0.06299372255734947
1729502169.5294409,-2.4419482355972035,-1.2153940545744795,9.344705640336667,-0.06408282561528977,0.1261759735806303,0.008168193989071398,0.9899021647410906,-0.08546922950956076,-0.05797602647242174,0.06990335201548431
1729502169.5374093,-2.5698535873544155,-1.1249979671685157,9.494528039963718,-0.058407049539905276,0.1306860014053625,0.0077126413474286155,0.9896718146760403,-0.1138579767406551,-0.12375483872901766,0.17475731038544443
1729502169.5454152,-2.721535310371634,-1.352797270291344,10.01777198022823,-0.06646034668524776,0.13082203328377245,0.008789965976152888,0.989136671256361,-0.11003241206767217,-0.1836552490331527,0.26619091952537666
1729502169.5534306,-2.708157151799152,-1.1521338382490252,10.012331842922094,-0.056739460077224496,0.1306630045618609,0.007490347895779678,0.9897735638000301,-0.08176997951469847,-0.26812416222230534,0.30444917261231674
1729502169.5614057,-2.703960979311913,-1.2323698781447276,9.925031282266929,-0.06116887920714415,0.13139068833529524,0.008123057777409237,0.9894083439953718,-0.061406999491218,-0.3426441535776707,0.3078223816372273
1729502169.5694036,-2.2271519269426165,-1.3288743756173051,9.998825373364063,-0.06561094286165434,0.1082064361660872,0.007157248423459883,0.9919351516828326,-0.04195248043227518,-0.4516353476716567,0.29962974557708494
1729502169.577409,-1.488801801917523,-1.0561378248332738,10.017962710590703,-0.05234712660737681,0.07319914816693335,0.0038474041248323728,0.9959351688363489,-0.01282647647696619,-0.5557678597210931,0.31897849744433526
1729502169.5854144,-2.3597295979962167,-0.6899464339136362,10.835333391735281,-0.03160022472193358,0.10674819160187456,0.0033943866929596954,0.9937780071657006,0.025933628969320784,-0.4522282429805627,0.39231280747668007
1729502169.5934026,-3.0077424426356205,-0.5454095314907598,11.6654930159982,-0.023164947342455725,0.12566873039798937,0.0029351855905721245,0.9917974289643665,-0.018495027535370065,-0.2266394893348243,0.36309470292461754
1729502169.6014104,-3.0395746818899663,-2.0240164354471903,10.08302754788017,-0.09782695939825271,0.14249342059728567,0.014154164941892831,0.9848477906337483,-0.08431570709269148,-0.14918008550621756,0.2561689272863534
1729502169.6094296,-2.879108900930855,-2.8812530570690953,8.134447914226149,-0.16710022018309184,0.1580000191326475,0.02713951504755572,0.9728190772655668,-0.13743019679386934,-0.17379468347321278,0.01875760688834799
1729502169.6174173,-2.9796328088202317,-2.1829318891730978,8.506447742676313,-0.1235262900847654,0.16153983083518655,0.020384684942012444,0.9788925392153363,-0.1297097148986071,-0.176218430471011,-0.21436116844186792
1729502169.6254385,-2.6736342995499514,-2.8877774477128426,8.370996231055008,-0.1634821510553948,0.14408063594629703,0.02414199225749881,0.9756697806335146,-0.06931202770992363,-0.22407289536905137,-0.495987224106854
1729502169.6334362,-2.490274614153799,-3.0399005750730184,8.679501354355661,-0.16612242193933346,0.1299729152809291,0.022094001154169728,0.977252391828941,-0.03733031601133387,-0.3132335630354841,-0.7105116940822831
1729502169.641439,-2.2428316276231386,-2.59176081745592,8.84616907555285,-0.14096808587921153,0.11784683333900874,0.01690286815016267,0.982829799957153,-0.03304044114335111,-0.3760951449875084,-0.845611726989471
1729502169.649436,-2.092689894542633,-2.44881197020988,8.87841380128874,-0.13328548735636567,0.11047419731045387,0.014952062085421056,0.984787726582831,-0.0675015515697582,-0.35889807623012093,-0.8921908517553591
1729502169.6574225,-1.949453577838861,-2.518186929440381,8.1028856855584,-0.1490916725149417,0.1113993405238669,0.016906559700476012,0.9823828318718926,-0.09967184948507732,-0.289408916432466,-0.8886372620667016
1729502169.6654434,-2.1117904999748007,-2.1999633954571975,7.923197074176837,-0.13389571293013414,0.12421437481199417,0.016918811353600117,0.983034323394345,-0.09300693448508485,-0.11702857168502939,-0.8477673126604623
1729502169.6734095,-1.6518225067719898,-2.105036761639553,7.721770622435789,-0.13196431359368432,0.1006908881547287,0.013475792378075026,0.9860350744269408,-0.0328168973721012,0.04557055370665497,-0.8040892902509273
1729502169.6814005,-1.4119941559186626,-1.8333208924329505,7.7426514896724115,-0.11552300363116504,0.08711066242115925,0.01017083739419016,0.98942545054758,0.03607525962826542,0.14908968980213402,-0.7544695234247946
1729502169.6894665,-1.4780686310023692,-1.8977405286238327,8.088692301274149,-0.11450590309049316,0.08733358240943156,0.010106074999214332,0.9895246893276973,0.10508040782351745,0.23376274471690917,-0.659992773986886
1729502169.697432,-1.765752608044781,-1.7814874629262527,8.042291992092615,-0.10815078483679384,0.10476201492322035,0.011461526536484407,0.9885327315662673,0.1575514383386815,0.3207502328900469,-0.5590349579320897
1729502169.705403,-1.9079566331862436,-1.2482181821014549,8.28715137567549,-0.07419238191868903,0.1113784588845609,0.008338735075675055,0.9909696235803948,0.21116993984380555,0.43892468532054446,-0.404808454777565
1729502169.7134342,-2.049063946952762,-1.3244969883624353,8.256417242641621,-0.07885206416534594,0.11948741773500422,0.009520329589332823,0.9896537133282506,0.2475979413615003,0.5464387020645777,-0.28545407901274217
1729502169.7214394,-2.0820135793532977,-1.1799252401366018,8.989037823612316,-0.06477986809708097,0.11238746681391126,0.007342686073216847,0.9915234293518772,0.28563096460767434,0.6607528493020554,-0.17850917845249983
1729502169.7294362,-2.2360980719283847,-1.1939780810936798,8.784569925612702,-0.06695780319408412,0.1229430425432643,0.008314161283848917,0.9901174352589563,0.31143060898561303,0.7765929344668274,-0.07390168227746144
1729502169.7374327,-2.5627016898367185,-1.0518145012440985,9.033229864303168,-0.05735749189983979,0.13667444140448293,0.007927117148663943,0.9889223306223011,0.323930565182142,0.8797265004211912,0.025046470651834296
1729502169.7454233,-3.014843438218437,-1.0223012520159904,9.246351011843618,-0.054327041733436464,0.15582432612025038,0.008583477407303189,0.9862523388267638,0.3233424277322808,0.9573571722679045,0.09931451456058282
1729502169.7534373,-3.0787906234779365,-0.981848386707641,9.191546113697967,-0.05246865100638222,0.15983636293541084,0.008507965133966488,0.9857114142965117,0.3268207558155223,0.9971245343925401,0.13280739930781915
1729502169.7614303,-3.5031042422508247,-0.9559007263605221,9.53886239844339,-0.04912134507989305,0.17405918281711233,0.00869372099861259,0.9834708503813315,0.31698843094453033,0.9537259219563204,0.15673434070931921
1729502169.7694268,-3.584112793153229,-1.0006660119881883,9.560743859964472,-0.05125530189774422,0.17725213369073173,0.00924423819034227,0.9827864056801632,0.2872503925800614,0.8557451341075053,0.1425692714322631
1729502169.7774005,-3.741893519397797,-1.0433269143218191,9.645938206847823,-0.052896820847392396,0.1827457904424082,0.009847001619814447,0.9816867825222654,0.2664277391311458,0.7616243862968676,0.11491417710023805
1729502169.7854166,-3.7853260396171935,-0.8347705333587164,10.392570397253223,-0.03943320001799788,0.17311531147303297,0.006936874480718983,0.9840873901449881,0.2569139774920307,0.5919183812615846,0.07065126650599096
1729502169.7934034,-3.6641421496492224,-0.641880797798433,10.552048411447638,-0.02993323216253607,0.1659738751938503,0.005040399464255468,0.9856628575424158,0.2516314105700237,0.44795146215567366,0.042390759903594574
1729502169.8014042,-3.919437443109846,-0.2388427572435129,10.817484117669364,-0.0108642976207798,0.17288314773656174,0.0019070880450323014,0.9848805751364446,0.22717736734371788,0.32666472565224053,0.07183467264151819
1729502169.809466,-4.233265550582705,-0.17778215825235774,11.462768478414118,-0.007627904339482402,0.17593906208799368,0.001363354804970625,0.9843705617147744,0.17078731538465527,0.14789585844613473,0.11291397366468409
1729502169.8174176,-3.969537141628919,-0.13875159719750838,12.265811923230112,-0.005583728830146685,0.1558446506582217,0.0008809726140926208,0.9877654026745528,0.10247238923079316,-0.1270873460935692,0.16054881759753337
1729502169.8254178,-3.223523588688289,0.07237214959165122,12.698556856086505,0.002826691266928575,0.12397700671342322,-0.0003531708472469044,0.9922810019814015,0.006569415609873813,-0.6875433359156189,0.35344608768158714
1729502169.8334332,-2.8412771622461763,0.11764354121983447,12.389820341679245,0.004716066736603362,0.11246824969894671,-0.0005338006166859112,0.9936439838197043,-0.0752367020660136,-1.1468413575713758,0.5372948595659444
1729502169.841411,-2.246095292709034,0.15055246018111942,12.02405562785911,0.0062323505419905325,0.09219588575657321,-0.0005770662192680866,0.9957212177366018,-0.1588012676499706,-1.5454445983273573,0.6935786493344582
1729502169.8494089,-1.727856399258233,-0.26879877291476584,11.637242103522107,-0.011514168568278008,0.07360887210846564,0.0008499074028238602,0.9972203545488366,-0.2093656970618068,-1.704576811226084,0.8375803504480862
1729502169.8574085,-1.3194690556193927,-0.27500384260628136,10.764226204496076,-0.012746163354426408,0.06092288853206653,0.0007780418793196936,0.9980607855353729,-0.2537521267371556,-1.731520039069933,0.9469686344352126
1729502169.8654132,-1.0469033303442918,-0.45110940395244065,9.816403551066786,-0.022925531183969162,0.05302891038833793,0.0012177507517640452,0.998329039829086,-0.30635107829154884,-1.634452419427342,1.0479338799288374
1729502169.8734145,-1.0279736754526687,-0.8356972341683393,9.651372358911557,-0.04311034668992905,0.05278510907039363,0.0022808935770892006,0.9976723048141564,-0.33918751940857084,-1.5515218240769895,1.1293718402366517
1729502169.8814032,-0.89594811884582,-1.1483316290752223,9.296892326479746,-0.061336404403222564,0.047568909946314845,0.002926547948185757,0.9969786756087166,-0.3648490449392525,-1.5060203674813983,1.215269651768537
1729502169.8894074,-1.0511251274110076,-1.2480450650916175,8.811025897596831,-0.07017050521739117,0.0586071998423963,0.00412982841401978,0.9958033143354366,-0.4087671943756176,-1.4514753295904737,1.2638285082574339
1729502169.897402,-1.0348163166809794,-1.2578343120041893,7.91880084373388,-0.0785127867262196,0.06393263471676966,0.005045522935291191,0.9948481809989728,-0.4359694641603607,-1.3723480901565575,1.2950922724580822
1729502169.9054103,-1.3458540527039002,-1.0115984253372792,7.183310552627047,-0.06959021477149609,0.09136854519609974,0.006400845635136166,0.9933619784006031,-0.4412228844331937,-1.2529301261091244,1.2980999987043758
1729502169.9134276,-1.7520249865539805,-1.8983914306906486,8.343019028109431,-0.11104105884197507,0.10018504507652164,0.011251922296936062,0.9886891494493565,-0.43245561487595663,-1.1523324235012464,1.2896880729770634
1729502169.9214432,-1.6734680034069978,-1.7526687439124358,8.650265183955502,-0.09933205912424127,0.09308694493386764,0.009333820134203833,0.9906466789500279,-0.39356573828611396,-1.1285831472222543,1.2786812566802075
1729502169.9294562,-1.3543525049250582,-1.837857071542774,8.746506256369395,-0.10306675477677835,0.07472258807997723,0.007764826924899867,0.9918333964700119,-0.3693804322092843,-1.2254386874964491,1.2116291781744855
1729502169.937434,-1.1339133657480036,-2.0539305625057427,9.04175570450523,-0.11123828339867228,0.06042803339647605,0.006776585968004744,0.9919317390672452,-0.36125459948511696,-1.3320806786676376,1.1462822174447924
1729502169.9454474,-0.9640609161773178,-1.9657023060093048,8.97158434189259,-0.10748527849113124,0.05196461588318844,0.0056257578769748256,0.9928317805409466,-0.3746837724934839,-1.436080739147782,1.058971064061767
1729502169.9534743,-1.081458318505219,-1.903906805968864,8.661091518221491,-0.10777295513595832,0.060284779321513854,0.006547322943614428,0.992324477217856,-0.37720730549949766,-1.4210051842497786,0.9427308628126471
1729502169.961413,-1.4454258834371156,-1.6956440872434275,8.609349957319614,-0.09674275390012577,0.08115414162765149,0.007914679006284448,0.9919638111951092,-0.36339658309047274,-1.2037974112560432,0.6933455361261978
1729502169.969407,-1.818711269808363,-1.6250348336937128,10.2226427209738,-0.07843126567333568,0.0865851440696571,0.006837967555603459,0.9931287890253832,-0.40576726695903953,-0.9896118053517817,0.4355890645029721
1729502169.977405,-1.5925725895217366,-2.2789031243373215,10.254485530045217,-0.10880140484625342,0.0747105984189095,0.008200635187449706,0.9912181043392481,-0.4439603791240406,-0.8615261318706868,0.23623772507552337
1729502169.9854016,-2.345138197267729,-2.248408085539893,8.80522733731424,-0.12364365840266592,0.12495520896133845,0.01569630671713122,0.984302833200065,-0.4264356905841482,-0.67782652235506,-0.02981045972388474
1729502169.9934072,-2.5797628915051685,-1.9013871743219826,8.912506699019403,-0.1038623656800912,0.13673807421085066,0.014417600537072734,0.9850418472588849,-0.3801629122974022,-0.4756577033698851,-0.27925997357201826
1729502170.0014021,-2.100200057901148,-2.5198924608431894,8.587577126101095,-0.14124419964807577,0.11382545004702045,0.01635067648847884,0.9832733589219922,-0.3443111341575759,-0.32455810767643795,-0.5144933842347668
1729502170.0094392,-1.7997730889399075,-3.0200431022383354,8.995000520045421,-0.16051600191024712,0.0923652164977452,0.015088849739715653,0.9825861827471454,-0.33471938899461706,-0.2602911340710156,-0.6552077405709538
1729502170.017421,-1.9630848457955852,-2.6782480219875326,9.496352394546784,-0.1363247690451627,0.09711508600682982,0.013429880886575941,0.985801123814556,-0.32130192079052516,-0.20683179775659113,-0.7566639568311473
1729502170.0255187,-1.821412313727351,-2.4779593771573634,8.972600467489789,-0.1336669314447033,0.09559138652907158,0.012954623448518934,0.9863202400797186,-0.28473020575011393,-0.12409907865395467,-0.8362680492915928
1729502170.033409,-2.0689634050821137,-2.4779751135991055,8.498177220191138,-0.14041610753614336,0.11340015104780476,0.01619127496505955,0.9834437274708396,-0.24618526432884796,-0.010180247911606016,-0.8712598029239991
1729502170.0414214,-2.0616315318187994,-2.423396757612588,8.197960961020932,-0.14217429610874321,0.11683082034165426,0.01690142656106195,0.9827773759730535,-0.15707633994947345,0.19354049007872923,-0.8765043228293478
1729502170.0494251,-1.7617879229975295,-2.411000458132006,8.387974782178965,-0.1387686481796195,0.09845736018083356,0.013866341175717833,0.9853208285076598,-0.03422350530353761,0.378775061969311,-0.9005098477841964
1729502170.0574157,-1.5859519005270333,-2.4152942665784223,8.48857554557691,-0.1375927385851563,0.08793338997105303,0.012264546882624352,0.9865016665503407,0.06800942960198002,0.5218425597133125,-0.9127847124497955
1729502170.0654109,-1.569514588802548,-2.3759720225935377,8.47375807148677,-0.1357085776885059,0.08730736551750619,0.012006588593668878,0.9868213859146435,0.18128337804365846,0.6630227663497774,-0.8699182039966352
1729502170.0734098,-1.6298023104104349,-2.0463997040346382,8.527835090694797,-0.1169690199467497,0.09110750128764673,0.010776492280859919,0.988889042712042,0.27266070048907726,0.7719952238349923,-0.8050348132702321
1729502170.081405,-1.5022115498204796,-1.9894353705164862,8.655331108127816,-0.11231161394027764,0.0831500125129458,0.009431679888526457,0.990143030176806,0.35728539825867073,0.8539806107231404,-0.7073595503526299
1729502170.0894036,-1.3974055138766628,-1.9028237540481727,8.663593971273173,-0.10754776621536888,0.07759352718630579,0.008419679681166163,0.9911315914221174,0.4289190299320664,0.8950837316882505,-0.6121450473163339
1729502170.0974088,-1.4865536977302944,-1.7981843476437473,8.891451863720937,-0.09926577724720774,0.08072132600032818,0.008079533407720815,0.9917485034705976,0.48254146047265456,0.9222997446360888,-0.5286235616839103
1729502170.10542,-1.3458728534038016,-1.6214367047776546,9.178043623115375,-0.08708535444018534,0.0713714609587138,0.006255310229015,0.9936212189242866,0.5266342405179443,0.9190476095775384,-0.42870493311339847
1729502170.1134188,-1.2854063634094686,-1.5101208754056552,9.414642123576256,-0.07925398530718133,0.06673913801967422,0.0053180406966812374,0.9946036455354808,0.5526642184836561,0.8872980242400659,-0.3436380423448315
1729502170.1214232,-1.4887860555945092,-1.4299238484855805,9.65763653391138,-0.07321196218674984,0.07538784304568108,0.005550108760041936,0.9944475240084001,0.551680292866064,0.8158883954777525,-0.25556287253649457
1729502170.1294434,-1.5279744934641273,-1.3298514563081452,9.791701591977686,-0.06723647705659998,0.07645702309897015,0.005167624902996788,0.9947898649587875,0.5310825046067933,0.7611232964994277,-0.21676554267973946
1729502170.1374373,-1.3362488269378512,-1.2484996262262933,9.85801483702255,-0.06280085394876268,0.06665451732706082,0.0042036626007701606,0.9957889120109451,0.5110614105449143,0.7231559563748884,-0.1977440453803067
1729502170.1454096,-1.2655061577349762,-1.0129407986849945,10.009372581412748,-0.05030394698637243,0.06244591958703753,0.003151440116257335,0.9967748434173663,0.4615880286991281,0.7050581429762472,-0.1556814625753808
1729502170.1534343,-1.3111671773070013,-0.8900408549434187,10.041050447041009,-0.044094062666864206,0.06456406536613225,0.0028556450029790983,0.9969348225398416,0.4076396660883206,0.701861876043379,-0.11426769055686803
1729502170.1614099,-1.458273872058029,-0.8455101489523793,10.025341242345698,-0.04194339539195957,0.07184516488340362,0.0030239264615089913,0.9965289156540444,0.33185026225270886,0.7216543090182217,-0.09069649753014647
1729502170.1694112,-1.621476400871536,-0.7433743730628337,10.069785256882026,-0.03671454631703167,0.07947571573675108,0.002929174156321953,0.9961561487214882,0.25487555540315143,0.7616253128596214,-0.07655378171411352
1729502170.1774092,-1.7833231024858125,-0.7460180918552783,10.01624590998859,-0.0370140222591325,0.08768643516070458,0.0032604467804489387,0.9954548813139649,0.19549433938809402,0.7928446462093157,-0.06764246216303171
1729502170.1854162,-1.8979087955735185,-0.7715463397323076,9.866327580172841,-0.03882857779038166,0.09452447875007168,0.003689591222034022,0.9947581873904923,0.1360269663371858,0.8149817667108286,-0.07080947166162327
1729502170.1934023,-1.9544497829593457,-0.7502320030581345,9.794333094734565,-0.03802368867393764,0.09797131505168077,0.0037460003940543714,0.9944555233934393,0.09396119158471039,0.8235814483356539,-0.07313536742224024
1729502170.201431,-2.064031147851779,-0.7824543922645683,9.674282530180582,-0.04011085202929344,0.10449160969293057,0.004217787417420896,0.9937076196359601,0.06659327642591499,0.8036255436842893,-0.06857124401814198
1729502170.209414,-2.3294563852442707,-0.8779234385813972,9.398745050334911,-0.046198036533529836,0.12054419444560507,0.005615986677260424,0.9916165081822447,0.06549736954327089,0.770793187881831,-0.07860347181954397
1729502170.2174256,-2.4848808050235154,-0.9110234296039164,9.428549997730244,-0.04773183223037163,0.12777345180058353,0.0061565167087552644,0.9906350056952916,0.07590776701169726,0.7404515228638052,-0.10165041095886643
1729502170.225422,-2.5319273648500467,-1.0367071375963341,9.643236342632287,-0.05306803506101137,0.12714931807978708,0.006812697197555777,0.9904395093712199,0.09577608745953808,0.7026647810257363,-0.1533649899125807
1729502170.2334151,-2.445712461390497,-1.1743666055558473,9.612594319007107,-0.06026278639653057,0.12314586777129105,0.007492071819956659,0.9905288288012755,0.113231050527249,0.665944963894648,-0.194184608698436
1729502170.241406,-2.5658871985139853,-1.1343791613315553,9.629164449070279,-0.05808947738575725,0.1287728618047845,0.007556346538693381,0.9899424550480915,0.13732611033466055,0.6115606289448805,-0.2310213917523481
1729502170.2494056,-2.5644900498212815,-1.2133373661836988,9.914918558358183,-0.0603474479325379,0.12509095527568462,0.007623023980374352,0.9902789142164146,0.15306021640349357,0.5674363963155452,-0.27738779508803113
1729502170.2574306,-2.6158453567970654,-1.2097157937336567,10.089004645757099,-0.05913967705492783,0.1254245681241266,0.007490143489319558,0.9903105947424902,0.1544125688770148,0.5337251256930895,-0.31755264887183987
1729502170.2654107,-2.782888615445427,-1.3095358409862878,9.987315535256991,-0.06452643312962535,0.13408390427261474,0.008749705692790976,0.9888282402383489,0.12627705618170937,0.5011533515372171,-0.37400400581323956
1729502170.2734048,-2.4878318765426464,-0.9614559064472414,9.514978223742085,-0.04990723191030191,0.12674577317277202,0.006385178669978444,0.9906583703170534,0.09321952622896891,0.459048713786206,-0.4368217441574975
1729502170.2814288,-2.955795760447072,-1.5003171241906104,9.087444896891737,-0.080694787632132,0.15412756518826096,0.01263093299327024,0.9846692360533373,0.06231706665931182,0.43293455101267525,-0.6213754583684532
1729502170.2894084,-3.3292296950377747,-1.2150277928249131,9.64279868374051,-0.061743436715130794,0.16393997894648157,0.010281765407683791,0.9844824613093588,0.07229682503547369,0.4896333637971022,-0.8887616295130543
1729502170.2974153,-3.5860906185363364,-1.68166951627112,10.315269331093917,-0.07956795134085781,0.16397839354024207,0.013270904679090709,0.9831601653140646,0.08254158067579112,0.5670730377368857,-1.023226238450631
1729502170.3054054,-3.469901805203833,-1.0054104072724375,10.307427874291115,-0.04793769082653338,0.16075470454050927,0.007817225208251464,0.9857985563776998,0.07719480240050672,0.6220506433299964,-0.9608731431619344
1729502170.3134181,-3.0944489652023774,-1.44887827073065,9.64623290499459,-0.07356048491045293,0.1525687108429443,0.011388322547719341,0.9854856415194542,0.07270966525094999,0.604805779433343,-0.8655674376298801
1729502170.3214188,-2.433193138887052,-1.219119824987218,9.718061188309255,-0.06187721413455867,0.12121404294043805,0.007571048110492147,0.9906669699730017,0.03511199792132936,0.4429131992148677,-0.6521557617540819
1729502170.3294063,-2.5933309492501997,-1.0640265055880338,9.48390960605196,-0.055322637044103715,0.1320716514885813,0.007382834362394747,0.9896676100895404,-0.02022473720901945,0.2678763698362308,-0.3683061937334994
1729502170.3374417,-2.863232675995432,-0.8821456323567265,9.52633566353352,-0.04564483787810327,0.14473173165255845,0.006683822439689464,0.9883949621206738,-0.05172401804138061,0.15604323122565614,-0.15925865732810504
1729502170.345416,-2.406512003058197,-1.043083055683567,9.92648385783691,-0.05194357384910416,0.11785795341704071,0.006173501042369787,0.9916517815428,-0.08041445795442403,0.0723414356622921,-0.00914011192007061
1729502170.353411,-2.083877305594684,-1.0010212335566244,10.099774548100584,-0.04911193816299692,0.10095814232504527,0.004989859699085203,0.9936652214545568,-0.11593339454511745,0.0021129254355581953,0.09880999790615538
1729502170.3614213,-2.161559535212279,-1.113211315573428,9.329865356301756,-0.05894837486609777,0.11261851204383606,0.006693122825098272,0.9918655967178852,-0.16491461049456554,-0.07663352598621687,0.22232529228365133
1729502170.369408,-2.296754334408617,-1.1103752561409317,9.523691675939256,-0.05758396820532645,0.11708691219251034,0.006800627389034706,0.9914275026778644,-0.20579697172370925,-0.13154381794559847,0.34794296634705474
1729502170.3774042,-2.512185927061186,-1.3004491734599497,10.336221310495192,-0.06208241531411806,0.11780727014165852,0.0073796864737633635,0.9910664765988629,-0.22479241766218905,-0.17300379435046806,0.440341173243578
1729502170.3854284,-2.3981939939808523,-1.1827348031482354,10.17562870182446,-0.05742656535202277,0.1145363510988188,0.006632240313919654,0.9917356640039,-0.2123510417834032,-0.26130759935123254,0.48726629615225137
1729502170.3934312,-2.4648318077654645,-1.1506528276897223,9.84464137392671,-0.05769465870524259,0.12136102219616296,0.007066148739699974,0.9909050904049168,-0.2027577659488215,-0.3419597363467233,0.496691007193126
1729502170.4014304,-2.2383398512608412,-1.4084127744946928,9.978603587783759,-0.06961597673413376,0.1087969836689297,0.00763821578451518,0.9915939137507472,-0.19487335014076235,-0.43589985512045504,0.4797842605601631
1729502170.4094393,-1.6882477901510358,-0.8840731517573625,10.62425192806088,-0.041365735881546926,0.07837857174315896,0.0032550127721857167,0.9960597774623436,-0.15949301623066056,-0.5854900498448791,0.5245542305089874
1729502170.4174192,-1.9869099094421838,-0.5546253278219956,10.233764812842388,-0.026938982984888837,0.09556496535644946,0.0025872161330051675,0.9950552421372602,-0.12975101465535888,-0.5841464935266587,0.5901540080713269
1729502170.4254427,-2.8707207296008574,0.17527439559195887,11.055076055674181,0.007860075935270086,0.12667103147120348,-0.0010037612105650285,0.9919131320109364,-0.1395756677052099,-0.30621612972394396,0.5660860554508879
1729502170.433438,-3.0758746362468425,-1.003111311131153,11.35896029038693,-0.04362921830504691,0.1312261481811392,0.005780935391501688,0.9903750653816116,-0.18889084580424775,-0.17223604617489152,0.4754467628769208
1729502170.441417,-3.2291339211524024,-1.847809330624004,10.501967890540753,-0.08599502714302185,0.14594055093114466,0.012735250685962882,0.9854663993716632,-0.2780765612683549,-0.21316966356213907,0.25036147268626585
1729502170.4494107,-2.9839858983457384,-2.0948572621927615,9.01069875312328,-0.1125223151338466,0.1543674250297937,0.017698519601617058,0.9814255901954572,-0.24432152794710268,-0.22751327251939885,-0.07923005951627554
1729502170.4574447,-2.624531397405881,-3.266607230850813,8.320162672284123,-0.18399705732061464,0.13983272383106984,0.026454460324172747,0.9725698194845936,-0.1814995018081482,-0.2250514962957419,-0.3450953886717254
1729502170.4654086,-2.068882061099778,-3.39528823377416,8.739262621681021,-0.1830913296157476,0.10652522775292915,0.019960877212034968,0.9771036302525185,-0.12805575385068035,-0.2652920565848268,-0.5578258438477492
1729502170.4734313,-1.8377248702047886,-3.2165566780574646,8.738852576670721,-0.17456350226980102,0.09576105191309205,0.01706049909127801,0.9798297525501845,-0.10407761624397824,-0.3226402175523162,-0.6795044560928951
1729502170.4814286,-1.9772367885779514,-2.7140350505356503,8.847303305035636,-0.1474217342161312,0.10389147573555424,0.015573146045156503,0.9834789630045236,-0.1386450907480906,-0.3336361607523981,-0.7141995179083998
1729502170.4894283,-1.784892488185833,-2.3866646960928746,8.644941416615131,-0.13360231370324735,0.0971815759735182,0.013165755403010281,0.9861707894422297,-0.1793930083392735,-0.296387650341858,-0.7175632624777593
1729502170.4974139,-1.9737889389564218,-2.199579869901818,8.043726270867516,-0.13213260303262153,0.11491570427440691,0.015424306587070665,0.984427471626655,-0.20597020920129339,-0.1373920343662218,-0.691911655224343
1729502170.505407,-1.7366156863719,-2.111749831120778,7.698798914375978,-0.1326598188792925,0.10593840124408321,0.014262274376618991,0.9853806447898025,-0.16402268135966902,0.05080576861788283,-0.673540860442059
1729502170.51341,-1.1789177467840775,-1.9934506823638731,7.498785685295508,-0.12916527770687639,0.07468615884134822,0.009756537813895192,0.9887583722438543,-0.09841360881580141,0.17436670194489637,-0.65655872271222
1729502170.521405,-1.2280895091544308,-2.11400732592223,7.699361350142148,-0.13317753579351807,0.07555130371204792,0.010182337167921055,0.9881558907769437,-0.024567270311056287,0.25871982341619326,-0.5748535097486954
1729502170.5294042,-1.633482227221174,-1.8454069956509942,8.074449805690758,-0.11155584349570738,0.09659298536523894,0.01089544236542593,0.9889926078064758,0.03251123463565174,0.3395556906627757,-0.48028154539414325
1729502170.5374107,-1.7347416996139544,-1.4302220013456748,8.126402098990626,-0.08651049977632237,0.10303312746915527,0.008995596069723683,0.9908678960001308,0.09698233196748081,0.4604245214592705,-0.3418058749807019
1729502170.545613,-1.973386566399232,-1.6326574378679517,9.038400265742032,-0.08871564365619684,0.10520091604002088,0.009423041194726738,0.9904410674692612,0.16163208411576216,0.607867270754485,-0.21061749578742756
1729502170.5534084,-1.9824981935016484,-1.2376894016856148,9.451523872824124,-0.06470350803918053,0.10213146361089323,0.006657247463486827,0.9926420811371692,0.2127669471871299,0.7146375929744809,-0.1208365266734501
1729502170.5614233,-2.2259488147826296,-1.2159473092242594,9.045302143518693,-0.06626723117388472,0.11906123143254015,0.007964396715982288,0.9906410276317373,0.2528130463821152,0.8331881141736186,-0.029507219796404874
1729502170.5699832,-2.431634808889109,-1.154060339880259,9.428131680398325,-0.06036535844308222,0.124750533091811,0.007604212506498535,0.9903209095770438,0.2721581152230241,0.942204842363222,0.05849418912386073
1729502170.5774105,-2.9476954776186215,-1.004161260080499,9.636999848082745,-0.05130013813804041,0.14693044402337344,0.007630752814303539,0.9877861671726322,0.27950825591294903,1.0131488500759904,0.13811350834812808
1729502170.585429,-3.1855058290516416,-0.8498177875424399,9.650032690832068,-0.043328242336162934,0.15802674764342153,0.006941007021689005,0.9864593417200863,0.28519541051129016,1.0071865876969799,0.18758786012853662
1729502170.5934093,-3.5046447022649687,-0.889132215494214,9.803419857419163,-0.04452114109547723,0.17001243088289464,0.00768905306722332,0.9844056683114817,0.2707287206888895,0.9567833235087502,0.22110368174994005
1729502170.6014225,-3.5831217078335906,-0.9507886786617626,9.650525327537435,-0.0482831706757253,0.1758353128892291,0.00863498099916688,0.983196885305171,0.22245953107948013,0.8520456042399567,0.21652315115798426
1729502170.6094232,-3.827729548137654,-1.0483558585642452,9.882245253895508,-0.05189159358223681,0.18254120105981433,0.009648138390881507,0.9817804672413925,0.18626128626897998,0.7585532882534143,0.19547016015994345
1729502170.6174095,-3.7147233721931396,-0.8351542780780002,10.277217367181054,-0.03990093922303176,0.17189366200598022,0.006968242306117267,0.9842824430063034,0.16113681889098366,0.6007179739720634,0.15644558175047296
