Time,              Accel_x,             Accel_y,              Accel_z,                                                Orientation_x,Orientation_y,Orientation_z,Orientation_w,Gyro_x,Gyro_y,Gyro_z
1729842497.0207767,-0.18428839197951516,0.5153113883944089,   9.806442350980989,   0.026245765461790724,0.009378874534331172,-0.00024625141185263523,0.9996114924649657,-4.711588616618941e-68,0.02293784893136888,0.00226650441269799
1729842497.0287786,-0.1826385051584122,0.5134122346479735,    9.801497587102265,   0.026162421861074623,0.009299719421432937,-0.0002433970323311943,0.9996144174925302,-2.8269531699713646e-68,0.023127890710986025,0.001359902647618794
1729842497.0367794,-0.20032334601496918,0.5012594147633934,   9.78320783815003,    0.025591788330002335,0.010219757961548611,-0.00026164125333245485,0.9996202021073475,-1.6961719019828187e-68,0.024093295901680373,0.0008159415885712764
1729842497.0447364,-0.20925830936679402,0.49971380681702043,  9.786120358407597,   0.02550532781340224,0.010672375928223711,-0.000272306555067386,0.9996176791625474,-1.0177031411896911e-68,0.02467253901609698,0.0004895649531427658
1729842497.0527308,-0.20240885891109203,0.48442123208825916,9.789543811724245,0.02471771453035349,0.010320573765526484,-0.00025519256860297954,0.9996411632292356,-6.106218847138147e-69,0.024168704761822882,0.001996499217733786
1729842497.0607326,-0.19782034830563958,0.48745611571779923,9.788724841722047,0.024874422484083437,0.010087331185737696,-0.0002510069860096638,0.9996396580023851,-3.663731308282888e-69,0.023440714147796395,0.0011978995306402716
1729842497.0687623,-0.19051825878807124,0.48879820556349207,9.790627661380883,0.024938037982953354,0.009713123228953338,-0.0002423130370945564,0.9996417812312028,-2.1982387849697326e-69,0.02342960984084253,0.002421499964232289
1729842497.076767,-0.18398222358338961,0.4975043249494233,9.817626731105873,0.025311789811673542,0.009353760196909259,-0.00023684666785060623,0.9996358158701419,-1.3189432709818394e-69,0.023848637318132245,0.0014528999785393736
1729842497.0847735,-0.1872432074410494,0.5032068369130134,9.806771694181101,0.025629590277167234,0.009529653789542696,-0.00024433248898911866,0.9996260551338739,-7.913659625891037e-70,0.024100053804506073,0.0008717399871236241
1729842497.0927684,-0.21266297402517653,0.5135715289056205,9.801455772856317,0.02617021493381748,0.010828061465438483,-0.0002834864261390874,0.9995988158109556,-4.7481957755346217e-70,0.02425090369633037,0.002225804238122301
1729842497.1007817,-0.21043716185651215,0.5092558567964972,9.79036535458293,0.025980112664510266,0.010727169664523393,-0.0002788032416933374,0.9996048638565542,-2.8489174653207727e-70,0.024341413631424946,0.003038242788721507
1729842497.1087663,-0.2105381955514073,0.5186374618318046,9.789696607769288,0.026459529375258764,0.010732375732314146,-0.00028408945376627993,0.9995922312170912,-1.7093504791924636e-70,0.024821409653943728,0.0018229456732329042
1729842497.1167924,-0.19910664779959436,0.5132530972162702,9.797914485657667,0.026163651309366497,0.010141712597642332,-0.00026544876800359605,0.9996061917338749,-1.0256102875154781e-70,0.024683717205992963,0.0010937674039397424
1729842497.124737,-0.21259843325983477,0.5102618986129652,9.799493330066474,0.026007105043192563,0.01082717404122983,-0.00028169526226450785,0.9996030829470928,-6.153661725092868e-71,0.024175411675760473,0.0006562604423638454
1729842497.1327312,-0.2020187315867602,0.4986509526443416,9.803074258537931,0.025407361371183303,0.010285585456941268,-0.0002614278229368915,0.9996242315867775,-0.0017027602458481264,0.023444738296158948,0.0003937562654183072
1729842497.1407256,-0.20093815423525926,0.49671220854949555,9.800194992134477,0.02531620360914595,0.010233709457562336,-0.0002591753246426881,0.9996270773912188,-0.0010216561475088757,0.023432024329860066,0.0019390140050991106
1729842497.148734,-0.19598024483607743,0.5106324325515723,9.793918449138108,0.026040973526942922,0.009986745786780682,-0.00026016579839309087,0.9996109567827459,-0.0006129936885053254,0.023424395950080733,0.0032918587103696246
1729842497.1567426,-0.19396317986063083,0.5041405166598496,9.798532229150833,0.02569850887614253,0.009879776138115741,-0.0002539918070837077,0.9996208842121924,-0.00036779621310319523,0.023419818922213134,0.003677875472069901
1729842497.164725,-0.18844337788708165,0.5009636276228628,9.793639051845968,0.02554969052576276,0.00960367432071763,-0.00024546236808771884,0.9996273918324794,-0.00022067772786191713,0.023842762766954607,0.003909485529090067
1729842497.1727364,-0.19829960583381145,0.5071977798452021,9.802913573929846,0.02584245086636471,0.010095890404513974,-0.0002610030347160324,0.9996150121959831,-0.00013240663671715028,0.02409652907379949,0.00234569131745404
1729842497.1807723,-0.2070863845940369,0.5174026156610275,9.804408144357907,0.02635719279484741,0.010540783826943642,-0.00027793748720989246,0.9995969752930639,-7.944398203029017e-05,0.024674478919368453,0.001407414790472424
1729842497.188781,-0.21164019135212525,0.5122727693477883,9.809375029437009,0.02608315558922399,0.010767429124449751,-0.00028096042249129723,0.9996017469601578,-4.7666389218174096e-05,0.02544693888817186,0.0008444488742834544
1729842497.1967566,-0.2050350889323689,0.5024910969114074,9.816664723472753,0.02556722822254888,0.010424450340314364,-0.0002666259612639198,0.9996187156044625,-2.8599833530904456e-05,0.025059034746529842,0.0005066693245700726
1729842497.2047703,-0.21112767445317132,0.513142084904657,9.805955069435214,0.026136427732975018,0.010745033400697573,-0.00028094900098748777,0.9996005964735294,-1.7159900118542672e-05,0.024826292261544633,0.00200676184059017
1729842497.2127395,-0.20305163763088718,0.5176173163724817,9.8012052181748,0.026376763856472047,0.010338829834450843,-0.00027281438906413553,0.9995985696760591,-1.0295940071125602e-05,0.024260956709091473,0.0029068173502022282
1729842497.2207365,-0.18815036856486042,0.504021883964114,9.792848643600191,0.02570743109709073,0.009589325443866379,-0.00024660977536524863,0.9996234851220426,-6.177564042675361e-06,0.023496065316157548,0.003446850655969463
1729842497.2287347,-0.18208264911743188,0.5061596916577652,9.794538463503864,0.025811885323491136,0.009278432067737421,-0.00023958397298009826,0.9996237291470882,-3.7065384256052164e-06,0.02303713048039719,0.003770870639429804
1729842497.2367313,-0.18227274010522476,0.5244412080610654,9.806326262916771,0.02671012012974662,0.009275858767004187,-0.0002478584073375504,0.9996001533078108,-2.2239230553631297e-06,0.02318745964040301,0.0022625223836578823
1729842497.244739,-0.1752041897174317,0.5251150507643736,9.812441261900455,0.02672782712278562,0.008910651696605085,-0.00023825694501275206,0.9996030045859529,-1.3343538332178779e-06,0.023703347197868534,0.003060273676042856
1729842497.252733,-0.18077928629139653,0.5271952975484678,9.811082437804336,0.02683711781202789,0.00919526106805674,-0.00024687367207263273,0.9995974966629436,-8.006122999307267e-07,0.024012879732347846,0.0018361642056257134
1729842497.260733,-0.18220898290765042,0.5231762019665808,9.798056714879866,0.02666826983245371,0.00928049094254789,-0.00024759336999252663,0.9996012277751223,-4.80367379958436e-07,0.023772909191573405,0.001101698523375428
1729842497.2687547,-0.18785520419771523,0.508314895984636,9.784734617306826,0.02594741261018116,0.009581926207999364,-0.000248721364882362,0.9996173550947702,-2.882204279750616e-07,0.023203236805646704,0.002789469421335415
1729842497.2767365,-0.20105916377839478,0.5015528938896097,9.782487442747376,0.025608614007345324,0.01025801782727557,-0.00026279364379524025,0.9996193790130216,-1.7293225678503694e-07,0.023712813497014748,0.0033764418986493754
1729842497.2847402,-0.2082632790287556,0.5037206169490002,9.791194784984363,0.025696149277986455,0.010615883139771734,-0.00027289282001493166,0.999613393501185,-1.0375935407102216e-07,0.024444249573297605,0.0037286253850377514
1729842497.292738,-0.20324836170436275,0.5227383430697907,9.798573971820694,0.02664430293536134,0.010351253872559679,-0.00027591469792615924,0.9995913447681677,-6.225561244261329e-08,0.024031731096143257,0.0039399354768707776
1729842497.3007836,-0.19760578948355514,0.5193049284492963,9.788396853795541,0.026497209412025102,0.010074629084839885,-0.00026705689119573033,0.9995980834429381,-3.735336746556797e-08,0.02420991007131268,0.0023639612861224664
1729842497.3087373,-0.18440401934442996,0.5220332829973121,9.785403045138652,0.026644439468209758,0.009404433728783487,-0.00025067595910255986,0.999600704098006,-2.241202047934078e-08,0.024742507517876364,0.0014183767716734797
1729842497.3167367,-0.19084816722189232,0.5267827578843247,9.788155743098816,0.026878696330290334,0.009729945539446417,-0.00026163517805149924,0.9995913141831602,-1.3447212287604468e-08,0.024636375924352544,0.0008510260630040878
1729842497.3247404,-0.19447523578235412,0.5229286781680949,9.779751714902257,0.026705293335715224,0.009923557327676562,-0.0002651191324609443,0.9995940576202238,-8.06832737256268e-09,0.024147006906776222,0.002213375883650579
1729842497.332734,-0.1885111912741,0.5184614488442162,9.780694802134715,0.026475173807601532,0.009618681220172233,-0.000254757354533393,0.9996031618808198,-4.840996423537608e-09,0.02427907555769246,0.0030307857760384737
1729842497.340732,-0.18780580656133497,0.521527195234264,9.797301805597234,0.026586361677803524,0.009566319271545509,-0.0002544352166587061,0.99960071337062,-2.9045978541225646e-09,0.02478400680970423,0.0018184714656230842
1729842497.3487363,-0.18067881108523848,0.5190570800800116,9.797689201034123,0.02645975524326119,0.009203174555554366,-0.00024360936659035745,0.9996074847584142,-1.7427587124735386e-09,0.024661275499449263,0.0010910828793738506
1729842497.3567302,-0.19268318508864307,0.5221239941417569,9.790739033315786,0.02663445548573865,0.009821202709872358,-0.0002616878572187785,0.9995969594180323,-1.045655227484123e-09,0.02416194665183425,0.0006546497276243103
1729842497.3647313,-0.19892812882662336,0.5124719746100542,9.799018781317598,0.02612097907723682,0.010131537381638817,-0.00026474961372778734,0.9996074110919612,-6.273931364904738e-10,0.02343665928180321,0.0003927898365745862
1729842497.37274,-0.19070408676863027,0.5188911913578294,9.790579100821807,0.026470350711876416,0.00972072618253579,-0.0002574134040745658,0.9996023017950758,-3.764358818942843e-10,0.023001486859784592,0.00236412420925491
1729842497.3808467,-0.19558588834047505,0.5090957719436039,9.79341615800285,0.025964100505080277,0.009967266953587283,-0.00025889127272237964,0.999613151198876,-2.2586152913657055e-10,0.02316607346803545,0.0014184745255529459
1729842497.388768,-0.19252946513319127,0.5075280832833499,9.813314324928664,0.025831975516775168,0.009791832611819798,-0.00025303896281826525,0.9996183096693888,-1.3551691748194232e-10,0.023264825432985962,0.0008510847153317675
1729842497.3967896,-0.1952445943631179,0.5065874700871974,9.813042796617355,0.025784871487517104,0.009930215507563452,-0.00025614713795347446,0.9996181599045654,-8.131015048916539e-11,0.02289838655049424,0.0005106508291990604
1729842497.4047995,-0.19663425173505822,0.5172758499722403,9.793726266349319,0.026379576123904142,0.01001981402227321,-0.00026442375446473755,0.9996017463823081,-4.8786090293499235e-11,0.02310421328246124,0.0024348408048295946
1729842497.4127502,-0.1933979033359568,0.5126755502665473,9.796501558149435,0.026138110780314937,0.009852470892295951,-0.0002576255127985176,0.9996097546599111,-2.927165417609954e-11,0.0240790894445655,0.003589354790207915
1729842497.42076,-0.18259754815391782,0.5123095721032878,9.79074470808302,0.02613495848561702,0.009307876597122976,-0.00024335464539494115,0.9996150599889562,-1.7562992505659722e-11,0.02466401514182806,0.004282063181434907
1729842497.4287643,-0.18952486434156945,0.5187937498537695,9.786093497213093,0.026477510526318814,0.009665052480496008,-0.0002560082530583345,0.9996026523857628,-1.0537795503395834e-11,0.02458928049872356,0.004271998154709071
1729842497.436757,-0.18721690957173856,0.5107132482032773,9.786415232849341,0.026065130928232084,0.009547591899491767,-0.00024895517501307497,0.99961462097147,-6.3226773020375e-12,0.024970129774322895,0.004691649200135601
1729842497.444737,-0.17577648973718374,0.5005977035606383,9.787326534729136,0.02554765689986694,0.008964069427783388,-0.00022909495915198142,0.9996333878986436,-3.7936063812225e-12,0.025198639339682496,0.005794819950315581
1729842497.4527338,-0.17058817899856024,0.5060205447438049,9.793379979675372,0.0258079911439693,0.0086938753524735,-0.00022445471103023124,0.999629088084451,-2.2761638287335e-12,0.02405867489451216,0.006031032338961538
1729842497.460737,-0.18375576384444864,0.5083165687896423,9.787195819836473,0.025941040024604175,0.009370533330106536,-0.00024317390155734328,0.9996195258267041,-1.3656982972401e-12,0.02337469622740996,0.005321379649225049
1729842497.4687438,-0.18303718877541916,0.5152008470355041,9.780851702106961,0.026308669575959738,0.009339503188544252,-0.0002458057165879444,0.9996102076133896,-8.1941897834406e-13,0.02338999908861067,0.0031928277895350294
1729842497.4767709,-0.16871967410509522,0.5202890946470836,9.773932769311052,0.026586900514788486,0.00861489491203695,-0.00022913286298281813,0.9996093576016595,-4.916513870064359e-13,0.02382487086679313,0.0019156966737210175
1729842497.4847593,-0.18598654323258837,0.5075403122570001,9.777682275112022,0.025926624620910586,0.009493503557947145,-0.00024622838041967214,0.99961873876871,-2.9499083220386154e-13,0.024511483995164635,0.0011494180042326105
1729842497.4927974,-0.19251594205283426,0.5053977066413095,9.77849545759651,0.025815164394980966,0.009826020203912314,-0.00025375715853673465,0.9996184083046474,-1.7699449932231692e-13,0.025349141933649573,0.0006896508025395663
1729842497.5007885,-0.1897298166965443,0.5129706894144731,9.772519022604781,0.026217220436288272,0.009689269871068624,-0.0002541250160366043,0.9996092790797997,-1.0619669959339015e-13,0.025426046635278504,0.00041379048152373975
1729842497.508758,-0.20074741028159845,0.5065011514416526,9.777073447254274,0.025875055493340383,0.010247435140162455,-0.000265255706191881,0.9996126255783663,-6.371801975603408e-14,0.02504649939479383,0.0019510345347623702
1729842497.5167422,-0.18916203381544344,0.5028588488239759,9.773102337395533,0.02569992889185697,0.009660354905017944,-0.00024836406895028477,0.999622993689797,-3.823081185362045e-14,0.024818771050503022,0.002873380966705548
1729842497.5247376,-0.19082993391231295,0.5033070890795418,9.781732999117008,0.02570012122346105,0.00973691254325826,-0.00025033439765702743,0.9996222454687139,-2.293848711217227e-14,0.025107824105390572,0.001724028580023329
1729842497.5327327,-0.1970979176227784,0.4959145879203813,9.785235454987783,0.025314243786208685,0.010053531443819529,-0.00025459201058207714,0.9996289565383492,-1.3763092267303362e-14,0.02570694599978513,0.0031628674553241557
1729842497.5407348,-0.20085870784905763,0.5032106753596507,9.790928231000482,0.02567098973468888,0.010238879985951174,-0.0002629426336025463,0.9996179752704761,-8.257855360382017e-15,0.025640729074959838,0.00360048071904262
1729842497.5487373,-0.1944960560082627,0.5238688991122747,9.779260426149117,0.02675454695891824,0.00992505244849841,-0.0002656484736378318,0.9995927255546662,-4.95471321622921e-15,0.02432392873567857,0.0021602884314255717
1729842497.5567234,-0.20193121270652012,0.5230957242329899,9.78590669270119,0.026696934782889762,0.010297429754447671,-0.0002750224331958918,0.9995904966416554,-2.972827929737526e-15,0.022682468409185738,0.0029989333047034696
1729842497.5647264,-0.20327984456727144,0.518082836151122,9.79324633495665,0.026421841081037106,0.01035879306230495,-0.0002738086818217047,0.9995971722393909,-1.7836967578425155e-15,0.022548972336214106,0.003502120228670208
1729842497.5727465,-0.20408902368372223,0.5256095906066888,9.78879157416735,0.026817037867777355,0.010404197560467234,-0.0002791252689785679,0.9995861749955354,-1.0702180547055092e-15,0.02332025481535519,0.003804032383050251
1729842497.5807784,-0.19451888418093646,0.5102537695007321,9.791864801678143,0.02602716783831228,0.009914396086894237,-0.00025814380119572637,0.9996120370655439,-6.421308328233055e-16,0.024208714364301873,0.003985179675678277
1729842497.5887723,-0.19524114496168687,0.5103776633117674,9.786286713038136,0.026048271812752915,0.00995684093484087,-0.00025945941187910615,0.9996110651323248,-3.8527849969398325e-16,0.024316100032207848,0.004519558112717125
1729842497.5967712,-0.19663218209419964,0.5169163440808104,9.783658120352179,0.02638834896340252,0.010030004915724545,-0.0002647808081332629,0.9996014125297642,-2.3116709981638996e-16,0.024806221494413465,0.004840185174940433
1729842497.604776,-0.1986639052037854,0.5258673760285645,9.784235746234744,0.026842705810514494,0.010132397760860603,-0.0002720929983638817,0.999588280056237,-1.3870025988983397e-16,0.025100294371736838,0.00290411110496426
1729842497.6127725,-0.21496640952852125,0.5230977095526855,9.790807246080691,0.02668350734825365,0.010956458340172663,-0.00029247845333403095,0.99958384386333,-8.322015593390037e-17,0.02485104803666883,0.001742466662978556
1729842497.6207666,-0.20463661817805023,0.5264637331534864,9.784455078849588,0.026872392129284023,0.010436648498308663,-0.0002805743317641016,0.9995843497111272,-4.993209356034022e-17,0.024701500235628022,0.0010454799977871335
1729842497.628746,-0.20801555000839264,0.5239343641596699,9.795248408637876,0.026714110138015907,0.010597458192581857,-0.0002832186630635757,0.9995868996673473,-2.995925613620413e-17,0.02461177155500354,0.0027557383059824384
1729842497.6367364,-0.2014237831300356,0.5295993477438489,9.77275456642296,0.02706443185964081,0.010284872157310847,-0.00027847097278486883,0.9995807423048625,-1.7975553681722478e-17,0.02455793434662885,0.003356203229437589
1729842497.6447365,-0.1883707566944276,0.528688774906075,9.777454193711197,0.027005229840118387,0.00961402018606187,-0.00025973556940207994,0.9995890259074368,-1.0785332209033486e-17,0.024525632021604037,0.0020137219376625535
1729842497.6527345,-0.18676386514946905,0.5207204060569262,9.796315121207186,0.02654800195546274,0.009514266524575826,-0.0002526852768897363,0.9996022301269755,-6.471199325420091e-18,0.024080560565127116,0.001208233162597532
1729842497.6607606,-0.190827553708822,0.5075596789368901,9.80715283737275,0.025849799362370633,0.009711373298127948,-0.00025113282473593096,0.9996186342970472,-3.8827195952520545e-18,0.024239207752702996,0.0007249398975585191
1729842497.6687381,-0.19422344750849632,0.5111554106336184,9.791868231964665,0.02607306026872951,0.009899279764791174,-0.0002582049620055297,0.9996109908952377,-2.3296317571512327e-18,0.024334396065248523,0.00256341424584527
1729842497.6767447,-0.1883601183097853,0.5159464714778272,9.806878905487393,0.026276823523692563,0.009585572018721332,-0.0002519769792784329,0.9996087143788717,-1.3977790542907395e-18,0.024391509052775838,0.00366649885481732
1729842497.6847463,-0.1898699442768868,0.5159480659921651,9.802238360138139,0.026289297282260253,0.009666942179963209,-0.0002542368787631299,0.9996076022324478,-8.386674325744436e-19,0.02442577684529223,0.0039026595587385183
1729842497.6927414,-0.1993949658337102,0.5197797453570178,9.788201285125853,0.02652188882082502,0.01016598905812274,-0.0002697300667564218,0.9995965032579581,-5.032004595446661e-19,0.024872027582264096,0.004044355981091237
1729842497.700775,-0.208461861092023,0.5239941143040544,9.786722224932932,0.026740366756509152,0.010629399857109492,-0.00028435181256996115,0.9995858581374848,-3.0192027572679964e-19,0.025139778024447217,0.004129373834502868
1729842497.7087502,-0.2016915697802138,0.5119181055453232,9.780806965330852,0.02614124654228114,0.010291330369077834,-0.00026913444585609984,0.9996052477428778,-1.8115216543607977e-19,0.025300428289757086,0.002477624300701721
1729842497.7167425,-0.19331983200484704,0.514009886764694,9.785876935546169,0.02623439194036821,0.009859059844954983,-0.00025874808487720265,0.9996071671751465,-1.0869129926164786e-19,0.02539681844894301,0.0014865745804210325
1729842497.7247288,-0.18159302469118946,0.5176591571564726,9.784609354687076,0.026423829890093446,0.00926213528282833,-0.000244837090158783,0.9996078901843168,-6.521477955698872e-20,0.025454652544454566,0.0008919447482526195
1729842497.7327251,-0.18652794860377617,0.5270313243720085,9.77403257936498,0.026930180171880216,0.00952342141028952,-0.00025657215672071,0.999591918740483,-3.912886773419323e-20,0.0254893530017615,0.0022379270947996983
1729842497.7407289,-0.18446107946500007,0.527626801215002,9.794262152599456,0.026905009899792425,0.009398507854504941,-0.0002529697082889212,0.9995937797419148,-2.3477320640515937e-20,0.025084483214683626,0.003045516502727945
1729842497.7487245,-0.17819313449540627,0.5342090116372044,9.776232955622174,0.027290113954248914,0.009095493713371178,-0.0002483198284676954,0.9995861443676262,-1.408639238430956e-20,0.024841561342436903,0.0035300701474848934
1729842497.7567234,-0.1859245354824,0.52642674975576,9.779541227230725,0.026884245272907507,0.009487334860350654,-0.00025516356168099326,0.9995934987408184,-8.451835430585737e-21,0.024695808219088868,0.0038208023343390624
1729842497.7647243,-0.1833807710941275,0.5179266699706435,9.793736618662653,0.02641284854255454,0.009344594326491684,-0.00024691429011381436,0.9996074124485446,-5.071101258351442e-21,0.024182666283618016,0.003995241646451564
1729842497.772778,-0.1964591425881171,0.5027709751269173,9.804887475347982,0.025612223182913,0.01000049993733707,-0.00025623191821230626,0.999621897704245,-3.042660755010865e-21,0.023874781122335504,0.004099905233719065
1729842497.780779,-0.19161689668568277,0.5140282723320098,9.793621476908008,0.02621465024254211,0.009764537284762646,-0.0002560741536456713,0.9996086135834882,-1.825596453006519e-21,0.024115740087028027,0.002459943140231439
1729842497.788775,-0.19517589362664403,0.5147971465046746,9.799551146642852,0.026237880240219787,0.009939798801212027,-0.00026090197406370195,0.9996062754757251,-1.0953578718039112e-21,0.024260315465843542,0.0014759658841388633
1729842497.7967708,-0.19204404813887704,0.5061605046996797,9.798320545163445,0.025801854462228723,0.009782131799490881,-0.0002524932948319357,0.9996191827145493,-6.572147230823467e-22,0.024772750754594883,0.0025883397763314443
1729842497.8047788,-0.18896784001613873,0.5033727212768391,9.80045522626799,0.025654489812198075,0.009623569866382011,-0.0002469805123163728,0.9996245160339603,-3.9432883384940805e-22,0.025505901989307717,0.003255764111646993
1729842497.8127723,-0.17730588833585512,0.5076855553735253,9.78784966530181,0.02590725672690034,0.009041143213570486,-0.0002343194542495366,0.9996234375366914,-2.3659730030964484e-22,0.02552010266867339,0.003656218712836322
1729842497.8207288,-0.18491334745463808,0.5107520961635683,9.805425446153741,0.026016709611889906,0.009411929243543983,-0.0002449612085355062,0.9996171699220113,-1.419583801857869e-22,0.025528623076292792,0.0038964914735499195
1729842497.8287416,-0.19881520940051722,0.5262389701004847,9.797056721549668,0.026826557512531213,0.010126868444040914,-0.00027178078323267756,0.9995887696861894,-8.517502811147213e-23,0.0251080452594024,0.0040406551299780775
1729842497.8367472,-0.19159401577702906,0.5293061701462284,9.805682436250112,0.02695899764199168,0.009750400210263898,-0.0002629691091996069,0.99958895201434,-5.1105016866883276e-23,0.024004318446344104,0.0041271533238349725
1729842497.8447251,-0.18510651810879555,0.5208514230350026,9.80870308357624,0.026521226064450638,0.009417986532832935,-0.0002498755372627487,0.9996038533638821,-3.0663010120129965e-23,0.023342082358509125,0.004604742301611142
1729842497.8527238,-0.18504474216410544,0.5224823394167047,9.809557791307853,0.02660178263778768,0.009413923358867007,-0.0002505269150746379,0.9996017509207105,-1.8397806072077978e-23,0.02337043076727017,0.004465605626814811
1729842497.8607292,-0.17926159261291638,0.5244185699097884,9.811985977274947,0.026693636865719704,0.009117419442976908,-0.00024347397365019946,0.9996020523858512,-1.1038683643246786e-23,0.023813129873988828,0.0026793633760888867
1729842497.8687778,-0.19326937500134359,0.5119333587427481,9.808415065368875,0.026068715989372455,0.009834058624272616,-0.0002564608526320168,0.9996117484130881,-6.623210185948071e-24,0.02365305927655799,0.001607618025653332
1729842497.8768003,-0.17988680932697804,0.5166526605093207,9.8057936778932,0.026315731085355114,0.00915544583785594,-0.0002410258347898866,0.9996117256292567,-3.973926111568842e-24,0.023557016918099485,0.0009645708153919991
1729842497.885164,-0.19364450502978056,0.5170900399091081,9.782912450632406,0.02639924683420175,0.009878390069565736,-0.00026088572446822595,0.9996026356081996,-2.384355666941305e-24,0.023499391503024387,0.0005787424892351995
1729842497.8929024,-0.17747826551786836,0.5123246440626523,9.786900806561084,0.026146034100440172,0.0090505265209516,-0.00023672600911812673,0.9996171351228973,-1.430613400164783e-24,0.023464816253979327,0.0003472454935411197
1729842497.9008732,-0.18166489143962725,0.5013251209102476,9.785702517628055,0.025588871728616402,0.009265772124656908,-0.00023718851353890836,0.9996295808209156,-8.583680400988698e-25,0.02344407110455229,0.0019111075419727982
1729842497.908774,-0.1822615056645576,0.5014291716672423,9.791926729082693,0.025577929310228013,0.009290299843529205,-0.0002377146743178699,0.9996296330905522,-5.1502082405932185e-25,0.023857314076358098,0.0037008048939558688
1729842497.916825,-0.18094353303740646,0.5086742071019079,9.798294877781645,0.025929947048213924,0.009216725843287426,-0.00023907976582716157,0.9996212445980087,-3.090124944355931e-25,0.024105259859441584,0.004348933243683679
1729842497.924777,-0.17057594282049074,0.5096693460384885,9.798524464510784,0.025980092578860088,0.008688494923292824,-0.00022581265527575324,0.9996246764932358,-1.8540749666135587e-25,0.024254027329291675,0.004737810253520366
1729842497.932738,-0.17058031300674756,0.5152942528867649,9.798183376216235,0.02626714128175026,0.008688693726413736,-0.00022831455073073578,0.9996171726029316,-1.1124449799681353e-25,0.02434328781120173,0.005396826520884409
1729842497.940728,-0.17345597711068916,0.511486592015262,9.788162496432866,0.026100044598345303,0.00884437148854688,-0.00023092619985589765,0.9996201835887605,-6.674669879808812e-26,0.024396844100347762,0.005366546219840803
1729842497.9487236,-0.18092745955742912,0.511356776986501,9.791487355037452,0.02608449893701772,0.009222127484746365,-0.00024064670052953034,0.9996171734064123,-4.004801927885287e-26,0.024854667935297416,0.004922687977752608
1729842497.9567244,-0.1799036852071137,0.5210951147758849,9.802819656674815,0.026549566144516635,0.009158798332395373,-0.00024325808475000603,0.9996055110773193,-2.402881156731172e-26,0.024703672174805173,0.002953612786651565
1729842497.9647255,-0.1900633280676276,0.5199949326350621,9.797887449522468,0.026506803466637745,0.009680802937333923,-0.0002567093821861785,0.9996017234502763,-1.4417286940387032e-26,0.025038764779971863,0.0017721676719909389
1729842497.9727776,-0.19208897096167032,0.5255597476669748,9.785351318590434,0.026824078710381262,0.009796064603795684,-0.00026287762650669755,0.9995921352306504,-8.650372164232219e-27,0.024814130281609843,0.0027660608490426893
1729842497.9807985,-0.18564291138559594,0.5284197963540911,9.80751774061715,0.02690900669647302,0.00944592163318173,-0.000254283804802171,0.9995932248984362,-5.1902232985393314e-27,0.0242536595211306,0.00336239675527374
1729842497.9887767,-0.20116830908721692,0.5272627835741734,9.788974711753102,0.02690074332420401,0.010255043457637924,-0.000275982695478903,0.9995854680445485,-3.1141339791235986e-27,0.024768757187767117,0.00372019829901237
1729842497.996775,-0.19851253940740823,0.5311175590605197,9.788143961573347,0.02709931444856937,0.01012028810326032,-0.00027436769847145415,0.999581478243515,-1.868480387474159e-27,0.02507781578774903,0.004786259348179611
1729842498.0047927,-0.1966796574335074,0.5303179621941243,9.78333594847721,0.027071899937216745,0.010031838551383501,-0.0002716941951135939,0.9995831134184554,-1.1210882324844955e-27,0.025688941009200206,0.005000205916217925
1729842498.0127728,-0.1843271804464326,0.5185854562715527,9.796252871576561,0.026439583886712678,0.009390362869409398,-0.0002483750779446674,0.9996062763903091,-6.726529394906973e-28,0.026055616142070914,0.005128573857040913
1729842498.020727,-0.19295684537723454,0.5084334905598066,9.794905059127576,0.02592649452391503,0.009831881008346186,-0.00025500426615458494,0.9996154690531571,-4.0359176369441836e-28,0.02627562122179334,0.0052055946215347065
1729842498.028725,-0.19526160234352824,0.5133556387694777,9.805588539626935,0.02614848509035088,0.009938158009795027,-0.000259969519646791,0.9996086344958716,-2.42155058216651e-28,0.02640762426962679,0.003123356772920824
1729842498.0367234,-0.18658880955064822,0.5215761713476241,9.797393997799599,0.02658861979567189,0.009504253357806058,-0.0002528057863478824,0.9996012457748871,-1.4529303492999058e-28,0.026061136036864833,0.0035767743096006208
1729842498.04473,-0.19718686483195141,0.5135798019296682,9.790561911375072,0.02619991663345233,0.01005144897526762,-0.0002634508842452639,0.9996061541104724,-8.717582095799435e-29,0.025427553035745624,0.0021460645857603725
1729842498.0527298,-0.1839132443874521,0.49944459380428535,9.791251062840669,0.02547862698177382,0.009375236426966537,-0.00023895623684920482,0.9996313757625752,-5.23054925747966e-29,0.02462171317361207,0.0034160890587663817
1729842498.0607245,-0.17499139145669,0.4955124520833525,9.797650057870417,0.025262051515539806,0.008914964374528092,-0.00022529114936984887,0.9996410862941384,-3.138329554487796e-29,0.024138209256331936,0.005455173926956082
1729842498.0687683,-0.187355371983389,0.5151798223242302,9.795264530571858,0.026268915888300794,0.009545766844527896,-0.00025085495450337104,0.9996093034106851,-1.8829977326926774e-29,0.024273796967425886,0.005827244724945838
1729842498.0767841,-0.19644970146151775,0.519797639488288,9.798861037679053,0.026494052495490632,0.010005017184373886,-0.00026517982293398326,0.9995988667926591,-1.1297986396156065e-29,0.024355149594082255,0.0034963468349675027
1729842498.0847743,-0.18466804719527,0.5098790609878948,9.783062429492196,0.026031576065183238,0.009420909134897569,-0.0002453351501518141,0.999616698204516,-6.778791837693639e-30,0.023978271108614047,0.0020978081009805014
1729842498.0927699,-0.19531614692067764,0.511349939034143,9.774062104912113,0.02613036265807899,0.009973012080012528,-0.00026070041859632616,0.9996087610724012,-4.0672751026161834e-30,0.02332645395587109,0.0012586848605883009
1729842498.1007965,-0.1926070404473285,0.5174997095142359,9.780154078132814,0.02642756759252297,0.009828214821260525,-0.0002598391281849204,0.999602382124111,-2.44036506156971e-30,0.02336105372568735,0.0007552109163529804
1729842498.1087763,-0.1866720135750377,0.5231049331304165,9.76441622861797,0.026756245093175313,0.009540381486607095,-0.00025536784460046194,0.9995964281933324,-1.464219036941826e-30,0.0246588837719632,0.00045312654981178826
1729842498.1167412,-0.18478693861377263,0.5130605380032499,9.77652133385047,0.026211157280596628,0.009433056849731534,-0.00024734733459245306,0.9996118904313702,-8.785314221650956e-31,0.025437581799728708,0.002826016298659263
1729842498.1247303,-0.1850924146331073,0.5134982454093718,9.782826716325907,0.026216596681363075,0.009442551598359472,-0.0002476477388981704,0.9996116580694507,-5.271188532990573e-31,0.025479110554925983,0.003398370025043684
1729842498.1327236,-0.19245830522517687,0.5214223151655449,9.79642617261781,0.02658333356867107,0.00980411726994467,-0.0002607308062196748,0.9995984882343413,-3.1627131197943436e-31,0.025078337746582316,0.0020390220150262105
1729842498.1407247,-0.196638419414403,0.5324016813356551,9.811768451373421,0.027099461477526534,0.010000643051174754,-0.00027112518726049904,0.9995826793303914,-1.897627871876606e-31,0.024837874061576115,0.0012234132090157262
1729842498.1487236,-0.19531576527168867,0.5449748051881118,9.796792381859209,0.02778029838539874,0.009947645467050072,-0.00027646895693566855,0.9995645166452218,-1.1385767231259636e-31,0.024267905789110363,0.0007340479254094356
1729842498.1567242,-0.19260681145793507,0.5417447720288827,9.783736597328415,0.027652826786485254,0.009822976079989361,-0.00027175010278437326,0.9995692854742638,-6.831460338755781e-32,0.02435161488709294,0.00044042875524566134
1729842498.1647284,-0.19002375850562042,0.5381308109712359,9.787874134910721,0.027457226951289403,0.009687443277363773,-0.0002661031559106908,0.9995760017727535,-4.0988762032534686e-32,0.02440184034588249,0.002392707560457555
1729842498.1727538,-0.197811313208841,0.5469757619733666,9.785807674305808,0.027913245258085344,0.010085826528901524,-0.00028165223798632484,0.9995594267047896,-2.459325721952081e-32,0.02358059549823216,0.0035640748435846912
1729842498.1810288,-0.2010473250346796,0.528580136139098,9.771639108978015,0.027015542553911757,0.010266895397991575,-0.0002774816675142187,0.9995822499040931,-1.4755954331712486e-32,0.02308784858964196,0.004266895213460973
1729842498.1888845,-0.19628516748174524,0.5283166681092402,9.785404045220794,0.026964278965288434,0.010009753680329827,-0.0002700175119235407,0.9995862441939087,-8.853572599027491e-33,0.02279220044448784,0.005114277496848773
1729842498.196924,-0.20515946108475028,0.5291162679553879,9.78384678015982,0.027009158072424225,0.010463762516671832,-0.0002827360576863001,0.9995803795165925,-5.312143559416494e-33,0.02346619168031943,0.006048396928343485
1729842498.204815,-0.1973159281156939,0.5226528430486234,9.781954740459172,0.026685198907439547,0.010066226670540905,-0.00026872858867430405,0.9995931667557724,-3.1872861356498964e-33,0.024296276483280414,0.006608868587240312
1729842498.2129173,-0.1851877831877757,0.5154229057803459,9.783692558630971,0.026312331340112627,0.009446460798675817,-0.0002486556046381579,0.9996091054848477,-1.912371681389938e-33,0.023942947242132945,0.006519461521116377
1729842498.2207875,-0.18772712303766542,0.5070148005971138,9.784735249534052,0.025881181500053703,0.009575476619681665,-0.0002479190722679367,0.9996191340844776,-1.1474230088339627e-33,0.02373094969744446,0.006465817281442016
1729842498.2287524,-0.20241883607845862,0.5053218198113932,9.77865709942746,0.02581073334641329,0.010331141277484898,-0.00026675745404456205,0.9996134264827007,-6.884538053003776e-34,0.024455131293555435,0.005582250614713336
1729842498.23673,-0.21147328406895013,0.5110097959883985,9.786262957166242,0.026080298572132034,0.010784344868781952,-0.0002813710213141022,0.999601639035515,-4.1307228318022655e-34,0.02488964025122202,0.0033493503688280016
1729842498.244725,-0.19392161692574506,0.526872430327414,9.788432270149356,0.026882461153132864,0.009886308256841225,-0.00026587739312097493,0.9995896775680574,-2.4784336990813594e-34,0.025150345625821968,0.002009610221296801
1729842498.2527235,-0.18602423846599392,0.5150816161554328,9.789015597441177,0.026280665976824834,0.009483997970581784,-0.00024934313061409844,0.9996095828903961,-1.4870602194488157e-34,0.024455388727657873,0.0029085263786262066
1729842498.260724,-0.1836800130502995,0.5206963964510722,9.800378921452987,0.026535837816004652,0.00935334438120838,-0.0002482971370961342,0.9996040729252863,-8.922361316692894e-35,0.024038414588759417,0.0038735661344858822
1729842498.2687368,-0.19280796510557033,0.5130519369917371,9.799535470547573,0.02614918826301928,0.009819371429899724,-0.00025686882471673663,0.9996097908265573,-5.353416790015736e-35,0.024213920166882376,0.004452589988001687
1729842498.2767444,-0.1961299548445922,0.5118171436403547,9.800465921000418,0.026083865197685328,0.009987641509382809,-0.0002606179802422376,0.9996098294193076,-3.2120500740094417e-35,0.02431922351375615,0.00480000430011117
1729842498.284749,-0.18974344287745842,0.5108368474635097,9.798390569445955,0.02603959672557174,0.009664611988945448,-0.0002517597373733345,0.9996141612114684,-1.9272300444056648e-35,0.024382405521880417,0.005434142948838892
1729842498.2927442,-0.19453066167374067,0.5140793924136526,9.789005072868745,0.026229549090739285,0.009917629366270811,-0.0002602372938825124,0.9996067144926551,-1.1563380266433989e-35,0.024420314726754974,0.005388936076613494
1729842498.3007507,-0.20027603494369753,0.5153066588856916,9.778106531270076,0.026321197469762705,0.010221705154582216,-0.0002691548480583688,0.9996012399267812,-6.938028159860392e-36,0.02401737018821768,0.004936121891816222
1729842498.3087432,-0.1929493514349685,0.5105363549505556,9.773482767638999,0.026090448488213194,0.00985283214857983,-0.0002571648476949552,0.9996109963693761,-4.1628168959162356e-36,0.023775603465095302,0.00466443338093786
1729842498.3167405,-0.18304667751137174,0.5165327187320522,9.790819803405665,0.02634974385368725,0.00933043010048266,-0.0002459505581047015,0.9996092104324109,-2.497690137549741e-36,0.02448192355414594,0.004501420274410842
1729842498.3247466,-0.19386448477830742,0.5292285033095439,9.784223193078555,0.02701400254554776,0.009887471498921614,-0.0002672107735861626,0.9995861194375548,-1.4986140825298447e-36,0.025331405669038354,0.0027008521646465053
1729842498.3327332,-0.18503227851346885,0.5217625035970545,9.787687252028773,0.026624438839308137,0.009434289308418654,-0.00025128293174838214,0.9996009555310685,-8.991684495179067e-37,0.024138334692125674,0.001620511298787903
1729842498.3407292,-0.19481642521355003,0.5213530465918264,9.790723368062967,0.026595224316520442,0.009929971252913292,-0.00026419630286869666,0.9995969287241652,-5.39501069710744e-37,0.02342249210597807,0.002675067025120868
1729842498.3487246,-0.18153329995234876,0.5079392632578301,9.795896920007703,0.025898875759263692,0.009249059338790496,-0.00023963087876888652,0.999621751320366,-3.237006418264464e-37,0.024270056738675598,0.003307800460920647
1729842498.3567243,-0.1936747187409405,0.5097072200640731,9.806662496487043,0.02596020910431124,0.00985657747482851,-0.00025597752988356146,0.9996143505868887,-1.9422038509586785e-37,0.024778595518294116,0.004113130583862546
1729842498.364727,-0.2043114523383143,0.5208236411204751,9.805460397062149,0.026528297884854706,0.010398233689058704,-0.0002759594961874623,0.9995939425555942,-1.1653223105752071e-37,0.024232338663141166,0.004596328657627686
1729842498.3727727,-0.18914567755533232,0.5195926282758007,9.787979725786116,0.026513102854420368,0.00964381698060328,-0.0002557893376356025,0.9996019141352673,-6.991933863451242e-38,0.023904584550049394,0.0027577971945766115
1729842498.3807871,-0.19129896048827752,0.5186146004029804,9.801672759788076,0.026426384547166528,0.009740063415775504,-0.0002574968162909384,0.9996032768352711,-4.195160318070745e-38,0.02370793208219433,0.0016546783167459668
1729842498.3888013,-0.2045619385488259,0.5247315483277256,9.794326269398235,0.026757234154391716,0.010422490839305793,-0.00027899208779752857,0.99958758709206,-0.0017027602458481264,0.02401563066294332,0.00099280699004758
1729842498.3967733,-0.20797074223085804,0.5219373726001509,9.797819240642848,0.026605538646260272,0.010592550568579513,-0.00028193615026501315,0.9995898477364612,-0.0010216561475088757,0.024200249811392717,0.0005956841940285481
1729842498.4047782,-0.2052276211197648,0.5142753630132155,9.803985166211879,0.026199370036842574,0.010446870561250118,-0.00027381037361238033,0.9996021113088089,-0.0006129936885053254,0.025162401423386417,0.0020601707622652553
1729842498.4127474,-0.20693363077732763,0.5218885857278512,9.811994284541582,0.02656472577236495,0.010524581000632974,-0.0002796968218500848,0.9995916517804098,-0.00036779621310319523,0.024888312267658575,0.003790242826131343
1729842498.4207323,-0.20197173242147468,0.5142460908898357,9.80219512541245,0.02620270247890618,0.010283058875328661,-0.00026955074885801896,0.9996037236952262,-0.00022067772786191713,0.02387247865129781,0.004828286064450996
1729842498.4287271,-0.18534764394507228,0.49768958568624516,9.801104033255282,0.02536378033648751,0.009438979559908288,-0.00023949593238328787,0.999633696387636,-0.00013240663671715028,0.02368866854294338,0.005025421945980756
1729842498.4367266,-0.19356912347641833,0.49158640522034086,9.803561840119185,0.02504695883676367,0.009855468710659357,-0.00024693899408384236,0.9996376636615169,-7.944398203029017e-05,0.024004072539392754,0.005143703474898611
1729842498.444726,-0.19682607003311664,0.5049233287279076,9.795220297430886,0.025746978915173725,0.010028883785423614,-0.0002583120955771546,0.9996181510164875,-4.7666389218174096e-05,0.02419331493726238,0.003086222084939167
1729842498.4527245,-0.18824575066244809,0.5055034576859633,9.789975951651892,0.02579039620112292,0.00959689721483774,-0.0002476015543350561,0.9996212751442954,-2.8599833530904456e-05,0.023881170314522124,0.0018517332509635
1729842498.4607253,-0.18956190352246885,0.4972324090842342,9.798560932319258,0.02534703559870751,0.009656060002239376,-0.0002448425873126112,0.9996320464769517,-1.7159900118542672e-05,0.023693883540877966,0.0011110399505780998
1729842498.468763,-0.19561883889082507,0.5071138302161654,9.794613954411085,0.025860067143515082,0.009967861392159856,-0.00025786862709806664,0.9996158422966148,-1.0295940071125602e-05,0.024007201538153507,0.0006666239703468599
1729842498.4767563,-0.19159155479933881,0.5147186240574336,9.798470691982589,0.026236821987083193,0.009758387464507346,-0.0002561294539882866,0.9996080919259375,-6.177564042675361e-06,0.02419519233651883,0.00039997438220811595
1729842498.4847696,-0.19540010866085328,0.5125777357137571,9.79144734805088,0.02614656708583358,0.009959566896534294,-0.0002605104812975339,0.9996084714482709,-3.7065384256052164e-06,0.024307986815538023,0.0019427448751729959
1729842498.4927776,-0.19792466114377757,0.513926824533723,9.781966098039513,0.026240561406438052,0.010097855166743976,-0.00026507819523734016,0.9996046198330902,-2.2239230553631297e-06,0.02480135356441157,0.0032940972324139554
1729842498.500778,-0.20207301445970402,0.5135391769956243,9.780347490854957,0.02622508042910829,0.010311158353783,-0.0002705183943020124,0.999602847129643,-1.3343538332178779e-06,0.0250973736137357,0.004104908646758531
1729842498.508775,-0.20719564827543177,0.5192920926231558,9.78608009119266,0.02650267558923384,0.010565885480727856,-0.00028013828986988047,0.9995928630063134,-8.006122999307267e-07,0.02570067570479221,0.005017085556827308
1729842498.5167415,-0.2176912537113528,0.5181948588453779,9.7897590715613,0.02643671848268424,0.011096839367777334,-0.000293484683922791,0.999588852448172,-4.80367379958436e-07,0.025636966897964082,0.004713011579944511
1729842498.5247295,-0.20363790286157732,0.5036501489498049,9.79867022443092,0.0256730677537185,0.010372303551934954,-0.00026639100069097846,0.9996165454547931,-2.882204279750616e-07,0.024747361490943143,0.002827806947966707
1729842498.5327315,-0.19472705201968077,0.5143163564597266,9.804256336318707,0.02620087934014112,0.0099122375023076,-0.0002598113095410343,0.9996075199635028,-1.7293225678503694e-07,0.024639288308192613,0.001696684168780024
1729842498.5407279,-0.1821979365340741,0.5149699969813046,9.803777280795131,0.026235555338866862,0.009275046372611496,-0.00024343026562858588,0.9996127299572335,-1.0375935407102216e-07,0.024574444398542294,0.0010180105012680143
1729842498.5487254,-0.17755350923489757,0.5060247948196421,9.792715940010282,0.02580986929429326,0.0090493828425117,-0.00023365080124086095,0.9996258823802454,-6.225561244261329e-08,0.024961228114214133,0.0006108063007608085
1729842498.5567281,-0.18410423933000103,0.5104739003292853,9.78895217753156,0.02604624336981209,0.009386486451224526,-0.0002445764712958771,0.9996166401479974,-3.735336746556797e-08,0.025193298343617238,0.0003664837804564851
1729842498.5647275,-0.20359698817807875,0.5026088763303836,9.786693920044327,0.025651381896794372,0.010382935431802643,-0.0002664386901775613,0.9996169917868685,-2.241202047934078e-08,0.024906850419797066,0.0027740306370460806
1729842498.572838,-0.19302656204747226,0.511057971061902,9.788690847876206,0.026076560062428034,0.009841482156916588,-0.00025673174837745176,0.9996114706890248,-1.3447212287604468e-08,0.025160671726966996,0.0033671786280757747
1729842498.5809066,-0.18357184421090525,0.5127755455765942,9.784861181089004,0.026174363462119904,0.009363104916474263,-0.00024516806555117607,0.9996135127419474,-8.06832737256268e-09,0.024887274449806922,0.003723067422693591
1729842498.5889025,-0.19370074446599625,0.5145243507834565,9.790224826329183,0.026248952818816913,0.009874075507951439,-0.0002592861358207826,0.9996066365723462,-4.840996423537608e-09,0.023871855960586816,0.004787980822388344
1729842498.5968592,-0.195229101464754,0.5162918944056208,9.786739248824853,0.026348277523055266,0.00995537502560497,-0.00026241110448507846,0.9996032162413644,-2.9045978541225646e-09,0.023688294928516783,0.005001238800743164
1729842498.6047807,-0.18848467035150865,0.5187889415750131,9.788718045144522,0.026470196249875715,0.009609454142831531,-0.0002544650623062238,0.999603382521839,-1.7427587124735386e-09,0.02485522849366086,0.0030007432804458984
1729842498.6128051,-0.1985638014784833,0.5147805060582891,9.787032280944135,0.026270474120677446,0.010125171082278589,-0.0002660985376373086,0.9996035575624957,-1.045655227484123e-09,0.025555388632747304,0.001800445968267539
1729842498.6207883,-0.20413243982263682,0.5133331254123172,9.773810393957106,0.026232045045951776,0.010423165294595652,-0.0002735299426891466,0.9996015019092954,-6.273931364904738e-10,0.025124104593275107,0.0010802675809605234
1729842498.628749,-0.1981362363545196,0.5148588986848903,9.7783271103977,0.02629781234820855,0.010112330775378346,-0.00026603780246554557,0.9996029687110155,-3.764358818942843e-10,0.024865334169591788,0.000648160548576314
1729842498.6367328,-0.18591938829708674,0.5229569676289029,9.783910182254244,0.0266955267854062,0.009483077020837755,-0.000253257394789957,0.999598597418263,-2.2586152913657055e-10,0.02428438185391977,0.0003888963291457884
1729842498.6447392,-0.18649014494114266,0.5299705904894512,9.807371319313486,0.026988196949360072,0.009489059366477951,-0.0002561974695645344,0.9995906808992462,-1.3551691748194232e-10,0.023935810464516556,0.002361788104797631
1729842498.6527328,-0.19760650639827937,0.5265173188932801,9.799900186607623,0.02683296359819882,0.010062392403867696,-0.00027011475890392295,0.9995892493227733,-8.131015048916539e-11,0.02415235769233666,0.003971213231650768
1729842498.6607318,-0.19661487796006136,0.5196569526152649,9.792783885157933,0.026503295227316138,0.010019626869382717,-0.0002656597979545147,0.999598475311144,-4.8786090293499235e-11,0.024707976090490753,0.004936868307762651
1729842498.6687493,-0.20248424537955245,0.5131465311882996,9.788035263956086,0.026184526936373055,0.010324077858703741,-0.0002704382486608281,0.9996037769179543,-2.927165417609954e-11,0.024189967006459145,0.005090571291967749
1729842498.6767783,-0.22180759678827833,0.4999028918575109,9.780397687914666,0.025529671037150564,0.011318743745138216,-0.00028907656067038,0.9996099431135671,-1.7562992505659722e-11,0.023879161556040182,0.0047571030210287754
1729842498.684778,-0.20347408688156077,0.5091949602121628,9.78491310859841,0.025991557234983774,0.010378101412521167,-0.0002698487290573744,0.9996082538400908,-1.0537795503395834e-11,0.023692678285788804,0.002854261812617265
1729842498.692903,-0.19869890525393644,0.5063904954144071,9.783073377854357,0.02585361042662808,0.01013670825722363,-0.00026217162320067293,0.9996143102415331,-6.3226773020375e-12,0.023580788323637976,0.001712557087570359
1729842498.7007866,-0.2078048045781431,0.5080596988599724,9.780533018411834,0.025945252237357535,0.010603722672813043,-0.00027522439853196065,0.9996070874115232,-3.7936063812225e-12,0.02393934440780951,0.0027302944983903414
1729842498.7087698,-0.20560689886016711,0.5047516579390302,9.788825029552958,0.025754899605828056,0.010482980517784523,-0.0002700925596810496,0.9996132848835927,-2.2761638287335e-12,0.02415447805831243,0.004192317067806394
1729842498.7167673,-0.20189395376922525,0.5235963878298243,9.802419362214197,0.026677518531139095,0.01027821918100985,-0.0002743095168517675,0.9995912129314547,-1.3656982972401e-12,0.023006488064228094,0.0054952206709180575
1729842498.7247572,-0.20134212787676953,0.5291571417799259,9.798604953510159,0.026970706853415998,0.01025372040492015,-0.0002766652916970042,0.9995835961269078,-8.1941897834406e-13,0.02274338412923952,0.005425582709860993
1729842498.732745,-0.2048417549975461,0.5243533085054555,9.787697182311172,0.026756052477920962,0.010443810919354434,-0.00027955049666984896,0.9995873960393855,-4.916513870064359e-13,0.023011211829708406,0.005383799933226754
1729842498.74073,-0.20646269093798075,0.5296112941853045,9.803179174865218,0.026981161529799527,0.01050948968136373,-0.0002836771971288765,0.9995806556133368,-2.9499083220386154e-13,0.02274621838852771,0.005784420328708242
1729842498.7487273,-0.21198423565653848,0.525104640280714,9.791399395788272,0.02678409205882305,0.010803717296703099,-0.00028948852830746577,0.9995828171300012,-1.7699449932231692e-13,0.023438602446743353,0.0034706521972249454
1729842498.7567239,-0.1906368853880637,0.5221612277719441,9.77571240236554,0.026677231525619464,0.009731807558061871,-0.0002597224311172384,0.9995966935639794,-1.0619669959339015e-13,0.02385403288167274,0.002082391318334967
1729842498.764726,-0.19530614734611948,0.5199163399346508,9.786172080091198,0.026534390491680996,0.009959634369550422,-0.00026437904172923435,0.9995982502526614,-6.371801975603408e-14,0.023677601081168335,0.0012494347910009802
1729842498.772743,-0.1825453937299373,0.5111473820857904,9.79316614722464,0.02606935848850675,0.009302998270830675,-0.0002426161629557191,0.9996168185402685,-3.823081185362045e-14,0.023571742000865696,0.0007496608746005881
1729842498.7807558,-0.19140893301530615,0.5140262930210054,9.786828100200019,0.02623270942181178,0.009760688243916921,-0.00025614966368885876,0.9996081773918947,-2.293848711217227e-14,0.02308253649122208,0.0021525567706084793
1729842498.7887397,-0.1964876364205118,0.5049797321114314,9.790686717297744,0.025761752449674522,0.010016260189860484,-0.0002581350496588048,0.9996178970030632,-1.3763092267303362e-14,0.023214703246897943,0.0038456744311372772
1729842498.7967403,-0.19833775763355707,0.5055372997160776,9.809761299177476,0.02574007230254977,0.010090918913639224,-0.00025984031830298256,0.9996177041831276,-8.257855360382017e-15,0.024145383423227522,0.004435854965992525
1729842498.8047745,-0.20040551102544676,0.5118573444292559,9.813065762660782,0.026052428071590486,0.010192243195120375,-0.00026563665751231036,0.9996085826999448,-4.95471321622921e-15,0.0251294815904873,0.004789963286905673
1729842498.8127787,-0.19206935641995554,0.5132551695970067,9.807626415604282,0.02613800107206914,0.009773713237929594,-0.00025556486162722547,0.9996105312150831,-2.972827929737526e-15,0.024868560367919106,0.0050024282794535625
1729842498.8207397,-0.18850418465275456,0.5133756041996103,9.807475269528585,0.02614457158980742,0.009592484757082475,-0.0002508887201492225,0.999612116106753,-1.7836967578425155e-15,0.02471200763437819,0.0030014569676721373
1729842498.8287368,-0.18780160258852774,0.5179968481154692,9.78631560727379,0.02643634916908048,0.009577031877431773,-0.00025328190899056603,0.9996045897009995,-1.0702180547055092e-15,0.02504376605571567,0.0018008741806032824
1729842498.8367739,-0.19025309534217913,0.5229243759591252,9.79349168370021,0.026667749999135095,0.009694606566827484,-0.00025863749542914425,0.9995973083297814,-6.421308328233055e-16,0.02481713104705613,0.0010805245083619693
1729842498.8447313,-0.1833442851838231,0.5182194473528189,9.788220522915438,0.026442609245390717,0.009347962449430857,-0.0002472818004227696,0.9996065940489042,-3.8527849969398325e-16,0.024255459980398374,0.0006483147050171816
1729842498.8527334,-0.17752305792670012,0.5177906918491914,9.786733767606686,0.026424857483349662,0.009052632511840344,-0.00023930790584229513,0.9996097836072416,-2.3116709981638996e-16,0.023918457340403716,0.00038898882301030893
1729842498.860735,-0.16565061576187945,0.5230401023653741,9.791827218571823,0.026678478861073347,0.008442664492665567,-0.00022532568643576022,0.9996083880251599,-1.3870025988983397e-16,0.023716255756406922,0.002787533662578375
1729842498.8687346,-0.1793567049063464,0.5163735218684433,9.798235171475124,0.02632179491016125,0.009135505403778067,-0.00024055629597598803,0.9996117485235922,-8.322015593390037e-17,0.023594934806008848,0.004226660566319215
1729842498.8767533,-0.17776413158638596,0.5188379180527066,9.808783707865544,0.02641879354560837,0.009044557330595856,-0.0002390395141628884,0.9996100170518495,-4.993209356034022e-17,0.023947832297232033,0.005090136708563718
1729842498.8847613,-0.2033842260221441,0.5205559759292802,9.793325594592373,0.02654748756547113,0.01036385396058354,-0.0002752460917719097,0.9995937903341706,-2.995925613620413e-17,0.024159570791965946,0.004756842270986357
1729842498.8927398,-0.2060670138847708,0.5254175333114743,9.793627533269095,0.026794023634210677,0.010499846605655904,-0.0002814497170097886,0.9995857913680065,-1.7975553681722478e-17,0.02428661388880629,0.0028541053625918142
1729842498.9007702,-0.1909172749812531,0.5295315685708689,9.781837688174347,0.027036056457108305,0.009739546031692173,-0.0002634277182292407,0.9995869764558669,-1.0785332209033486e-17,0.0243628397469105,0.0017124632175550885
1729842498.9087672,-0.20457234741062685,0.5315211493944745,9.798466377553046,0.027091268140970015,0.010418149401986172,-0.0002823598558140009,0.9995786340385951,-6.471199325420091e-18,0.024408575261773025,0.0010274779305330531
1729842498.9167397,-0.20558278588778237,0.5430099650273097,9.793120700555265,0.02769056960148499,0.010474442834086892,-0.00029017049298062434,0.999561621013705,-3.8827195952520545e-18,0.024010326509228512,0.0006164867583198318
1729842498.9247406,-0.19014789785102876,0.5408052880984171,9.788476773360502,0.027591680386010075,0.009692993915359558,-0.00026756044034812685,0.9995722452398546,-2.3296317571512327e-18,0.024197067319163833,0.0003698920549918991
1729842498.9327495,-0.19046377166960163,0.5174558266676439,9.788563459035831,0.026402708281512876,0.009710565621272881,-0.0002564867514373586,0.9996041897297463,-1.3977790542907395e-18,0.024309111805125024,0.00022193523299513944
1729842498.9407387,-0.19089271612676098,0.5319371495650395,9.787418369610952,0.02714315665373628,0.009732601086543466,-0.00026428342048170054,0.999584141369417,-8.386674325744436e-19,0.02395064843523971,0.00013316113979708365
1729842498.948722,-0.18779820047683785,0.5442172457937111,9.781224652137665,0.02778592595958749,0.009580086772711145,-0.0002663066386477442,0.9995679533362251,-5.032004595446661e-19,0.024586950536232582,0.0017826569297263765
1729842498.956746,-0.18713859191696208,0.5448815388824767,9.788282329124396,0.027799762634828924,0.009539547828225569,-0.00026531179148032514,0.9995679565864112,-3.0192027572679964e-19,0.024968731796828306,0.002772354403683952
1729842498.9647324,-0.19224949059939597,0.5330696862689391,9.78509491016995,0.027207243227249836,0.00980399714074844,-0.00026685135854781543,0.9995817006860369,-1.8115216543607977e-19,0.02519780055318574,0.0016634126422103712
1729842498.9727397,-0.19172472731862195,0.5252643142027698,9.789167962947673,0.026798608763478664,0.009773716829417137,-0.00026202864934352733,0.9995930373750446,-1.0869129926164786e-19,0.024909551745538168,0.0009980475853262228
1729842498.9811187,-0.19883189449664188,0.5232147127892399,9.797597298764696,0.02667124845662918,0.010127370038856724,-0.0002702196032241677,0.9995929210749879,-0.0017027602458481264,0.023885222338025563,0.0005988285511957336
1729842498.9887638,-0.19663185032103198,0.5119293049684659,9.799063597764677,0.026093288309998505,0.010014612349139583,-0.0002614162991749048,0.9996093134350972,-0.0010216561475088757,0.024122004816442062,0.00035929713071744014
1729842498.9967718,-0.19866370613988482,0.5025244384498295,9.788930049527947,0.02564130333450224,0.010129128448047265,-0.0002598228250991844,0.9996198561514725,-0.0006129936885053254,0.024264074303491964,0.00021557827843046408
1729842499.0047722,-0.195094416310884,0.5153168713218508,9.775188475273408,0.026329631455871774,0.009960285588573363,-0.00026235463073063104,0.9996036586509874,-0.00036779621310319523,0.023923625934259875,0.002683487335830468
1729842499.0127409,-0.18696733826309292,0.5213163898829543,9.763112808064434,0.02666850640041897,0.009556858190923362,-0.00025496947461372556,0.9995986155544917,-0.00022067772786191713,0.02371935691272062,0.003738542708808439
1729842499.02074,-0.18113341077035575,0.5100720507266475,9.78387956716288,0.026039284268915216,0.009239854218631001,-0.00024069108922127104,0.9996181885282904,-0.00013240663671715028,0.024022485561259098,0.0043715759325952215
1729842499.0287423,-0.1972655078879947,0.5040437077309103,9.789396437807493,0.02571746702688968,0.010057283744912927,-0.00025874654248304597,0.999618625268468,-7.944398203029017e-05,0.024204362750382184,0.004751395866867291
1729842499.036747,-0.19401607719373434,0.5162284328904994,9.785284535047778,0.026348970412800946,0.009895006645741574,-0.0002608265774075559,0.9996037977974886,-4.7666389218174096e-05,0.024313489063856036,0.0028508375201203744
1729842499.044729,-0.19062989778108433,0.5254546293143777,9.778986670735698,0.026836160970767242,0.009727986444642662,-0.0002611682424166771,0.9995924762298048,-2.8599833530904456e-05,0.02395327479047832,0.0017105025120722247
1729842499.0527213,-0.1929077531217756,0.5149491960456578,9.781432876464857,0.02629415452951477,0.009842441628697525,-0.0002589007499927134,0.9996057606630553,-1.7159900118542672e-05,0.023737146226451684,0.0010263015072433349
1729842499.0607224,-0.19499272682423724,0.5225323057133322,9.784815961230477,0.02667130676541654,0.00994485264947228,-0.00026534974785186606,0.9995947533329277,-1.0295940071125602e-05,0.024033159149497735,0.0006157809043460009
1729842499.0687368,-0.1883428455671986,0.5246879698537806,9.784691030595708,0.02678153447116062,0.009605777752802221,-0.0002573616675347281,0.999595124142823,-6.177564042675361e-06,0.0246364569647874,0.00036946854260760053
1729842499.0767515,-0.20063348810203788,0.5118555785431277,9.785094912546878,0.026126645872184884,0.010232893528340576,-0.000267456501852577,0.9996062298387934,-3.7065384256052164e-06,0.024572745592499168,0.0019244413714126867
1729842499.0847538,-0.1986704871483321,0.5008042614325172,9.78533724171758,0.025563066362151478,0.010133293686405458,-0.0002591360595888395,0.9996218179120201,-2.2239230553631297e-06,0.02496020883058826,0.001154664822847612
1729842499.092777,-0.18719761943743676,0.5042291181388072,9.780694235899688,0.025749885514361213,0.00955258146887041,-0.00024607071075464143,0.9996227443553308,-1.3343538332178779e-06,0.025192686773441712,0.0023955591395566937
1729842499.100771,-0.19850983142808704,0.5235222841157061,9.784851617223406,0.02672158235457701,0.01012406934496315,-0.0002706416800898753,0.9995916101135738,-8.006122999307267e-07,0.02448079341622972,0.003991475852506206
1729842499.1087456,-0.20457889812443036,0.5051706629498924,9.78279706286334,0.025792100760499384,0.010436959445976455,-0.00026929537881781703,0.9996128074889209,-4.80367379958436e-07,0.02490503752482659,0.004523335818813881
1729842499.1167407,-0.19265802735122073,0.5008634548988418,9.780606649583238,0.025578503435869152,0.00983144745094083,-0.00025156819154585353,0.9996244392352788,-2.882204279750616e-07,0.02515958398998471,0.004416761737136455
1729842499.124747,-0.1881391267134668,0.5095318778709457,9.788629788089787,0.025999077074937416,0.009592522178694779,-0.00024949255084391316,0.9996159108692547,-1.7293225678503694e-07,0.024035241684693488,0.004352817288129999
1729842499.1327498,-0.20266603828393948,0.5120993098280362,9.781951503224965,0.02614741373954757,0.010339818860139637,-0.0002704664680377094,0.999604585698046,-1.0375935407102216e-07,0.022934946240056726,0.0026116903728779996
1729842499.140736,-0.2022842189176293,0.5066965841878373,9.76333990217912,0.025921331180779567,0.010340316782751928,-0.0002681392242720064,0.9996104694029595,-6.225561244261329e-08,0.0227004590347367,0.0015670142237267997
1729842499.1487215,-0.2068435306181557,0.5223691419189523,9.771805395164893,0.026698244409265243,0.010563063583924132,-0.0002821315795334951,0.9995876879168515,-3.735336746556797e-08,0.022985456773006716,0.0026429687800842063
1729842499.1567209,-0.2045512941521434,0.5303361555615277,9.77568759012628,0.027093843196766776,0.010441339312201555,-0.00028301535141030484,0.9995783220921246,-2.241202047934078e-08,0.023582145477430753,0.0015857812680505237
1729842499.164723,-0.19671160779011415,0.5231453554462916,9.790466755735924,0.026687129671619788,0.01002668122330026,-0.00026769215537907065,0.9995935129413588,-1.3447212287604468e-08,0.023940158700085177,0.0030799190681404724
1729842499.1727417,-0.19081069514281848,0.5279288416857437,9.776589339330226,0.026968843677513343,0.009739423005952095,-0.00026276902889307727,0.9995887934859247,-8.06832737256268e-09,0.024154966633677832,0.004402091809656473
1729842499.1807582,-0.18894608871655044,0.5245740091130087,9.772811872641105,0.026808195337485453,0.00964821124900253,-0.0002587561867169811,0.9995940004460199,-4.840996423537608e-09,0.024709541455295456,0.002641255085793884
1729842499.188742,-0.20530499697993027,0.5156179247549146,9.782516400928412,0.026325144223759846,0.010473562676952942,-0.000275828785816901,0.9995985270021815,-2.9045978541225646e-09,0.025893666471190097,0.0032875132973244564
1729842499.1967392,-0.20362817396920815,0.5164691984564643,9.769185504619548,0.026404443322501768,0.010402109915977944,-0.0002747726051006259,0.999597181859843,-1.7427587124735386e-09,0.026178451419264847,0.0036752682242428003
1729842499.2047446,-0.19639715584636863,0.512670399689113,9.777706958289306,0.026187940797754335,0.010024380023345138,-0.0002626211489866665,0.9996067399693006,-1.045655227484123e-09,0.025923632326647666,0.0022051609345456803
1729842499.2127395,-0.1946921667988368,0.5087151792665928,9.793354317795849,0.02594490501800258,0.009921822823742994,-0.0002575201272564458,0.9996141020508089,-6.273931364904738e-10,0.025770740871077356,0.001323096560727408
1729842499.2207403,-0.1960633750304739,0.5046661058509713,9.808967657816181,0.025697908015512184,0.009976099936281794,-0.0002564623689966643,0.9996199423684687,-3.764358818942843e-10,0.02525331593627314,0.0007938579364364448
1729842499.2287788,-0.18778813366086247,0.5046308634617547,9.794633065392834,0.02573375555903792,0.00956909315776105,-0.00024634157458981346,0.9996230017345512,-2.2586152913657055e-10,0.02494286097539061,0.00047631476186186687
1729842499.2367446,-0.1923997954797206,0.5170595666610371,9.783398688112653,0.026396402393251108,0.00981442815215497,-0.00025916839618451916,0.9996033412171461,-1.3551691748194232e-10,0.02475658799886109,0.0024142391644272785
1729842499.244732,-0.19157549008080113,0.5187707045962316,9.789826170875402,0.026466236146755504,0.00976588750966402,-0.000258569203248789,0.9996019702498289,-8.131015048916539e-11,0.02421913415148135,0.004002683867428557
1729842499.2527282,-0.1896443858453557,0.5068686983925046,9.78242991273032,0.025879797755974803,0.009675524590336746,-0.00025049625757698503,0.9996182058884465,-4.8786090293499235e-11,0.023470971781591472,0.004955750689229324
1729842499.2607234,-0.19111934513026027,0.5140927046312059,9.772246073858895,0.026275159914958074,0.009760409386457385,-0.00025655712771899904,0.9996070650803206,-2.927165417609954e-11,0.023022074359657547,0.0055275907823097836
1729842499.2687578,-0.19391968202932802,0.5076532009037236,9.779543299832916,0.02592734932561179,0.00989644216821756,-0.0002566873867537048,0.9996148093645593,-1.7562992505659722e-11,0.02360411602942125,0.0054450047766960285
1729842499.2767508,-0.19727582533087806,0.5162393473000466,9.782724534587249,0.02635636105436849,0.01006382903862737,-0.00026535154384326853,0.9996019163475084,-1.0537795503395834e-11,0.023953341031279475,0.003267002866017617
1729842499.2847624,-0.19402226765946434,0.5247429174620591,9.79828022490274,0.02674719094479332,0.009881678775712796,-0.0002644146726447706,0.9995933524618985,-6.3226773020375e-12,0.023737185970932377,0.0019602017196105703
1729842499.292741,-0.19350665405270986,0.5310421603893449,9.805458857597895,0.027047811153211553,0.009847814192146111,-0.00026647224547499435,0.9995855968650207,-3.7936063812225e-12,0.02360749293472412,0.0028788812776144685
1729842499.3007421,-0.1927184455566259,0.5271602608332163,9.799470970076314,0.026866902260823746,0.00981394359466431,-0.00026377819887648824,0.9995908095291242,-2.2761638287335e-12,0.023955367174461197,0.0017273287665686811
1729842499.3087413,-0.19248494062499116,0.5229157597714141,9.794202296401258,0.0266653502488604,0.009807592312818919,-0.0002616285115577486,0.9995962693906241,-1.3656982972401e-12,0.024164091718303443,0.0027391575057893348
1729842499.316742,-0.2045552661328072,0.5201296389683172,9.787689209872005,0.026541015135447994,0.010429516781224304,-0.00027692259303702636,0.9995932787935139,-8.1941897834406e-13,0.024715016506070824,0.003771944810783759
1729842499.3247745,-0.1993476128046843,0.5282741932930998,9.78066889579625,0.026975095019633175,0.010170783189725275,-0.0002744719339099254,0.9995843256489904,-4.916513870064359e-13,0.02504557137873125,0.003965927132318381
1729842499.3327503,-0.1981383821359356,0.5307667242278129,9.778132648512905,0.027109121805109132,0.010111544669564432,-0.0002742299159220701,0.9995813008341564,-2.9499083220386154e-13,0.025243904302327508,0.004082316525239155
1729842499.3407423,-0.1940609614104676,0.5229248563140315,9.790257849605789,0.026676510684601785,0.009891838902188092,-0.00026398662356448126,0.9995951408504795,-1.7699449932231692e-13,0.02493721399502323,0.005003530283915683
1729842499.3487341,-0.18347422333065558,0.523726399384122,9.786280222458785,0.026728292590811123,0.009356084219803688,-0.00025017249588954856,0.9995989193056254,-1.0619669959339015e-13,0.024753199810640662,0.004704878416197536
1729842499.3567374,-0.18334710479917457,0.5215737034000045,9.774795679861992,0.026649870895748277,0.009360683801860784,-0.000249560596921261,0.9996009702373793,-6.371801975603408e-14,0.025068481361473154,0.004525687295566648
1729842499.3647237,-0.17441228753770788,0.5377597579286746,9.791846970905477,0.027427441870859385,0.00888819504695889,-0.00024388184648746147,0.9995842515480488,-3.823081185362045e-14,0.024831960230510618,0.0027154123773399886
1729842499.3727415,-0.1810224054816091,0.5275995168665798,9.798486443041332,0.026892094857605436,0.009219389326132458,-0.00024802894643150675,0.9995957965979371,-2.293848711217227e-14,0.024264357490471067,0.0016292474264039932
1729842499.3807526,-0.18379137541787172,0.5217427923953385,9.786668395365814,0.026626217169341562,0.009372008920610395,-0.00024964062801132846,0.9996014944404594,-1.3763092267303362e-14,0.023498105784985304,0.000977548455842396
1729842499.3887486,-0.19215652202806677,0.5373823709938438,9.789872633899176,0.027413510824956504,0.009794200335318604,-0.00026860726324534997,0.9995761606371871,-8.257855360382017e-15,0.02431542494607994,0.002714979380815596
1729842499.3967445,-0.18233155970121503,0.5280913452037281,9.78916155519302,0.026942674355016624,0.009294826730000937,-0.00025052927096196097,0.9995937353393843,-4.95471321622921e-15,0.025231506504198753,0.004183127997261548
1729842499.4047484,-0.184098027617604,0.5143764440851275,9.773651437510344,0.026285953665641203,0.00940056491981338,-0.0002471991641141378,0.9996102324964713,-2.972827929737526e-15,0.02492977531614598,0.005064017167129118
1729842499.4127455,-0.19641065617017178,0.5188367722127952,9.767457829058939,0.026530015954415072,0.01003513221621528,-0.00026633938990539685,0.9995976107605454,-1.7836967578425155e-15,0.02389735648039025,0.005166860607587629
1729842499.4207451,-0.1812927376962437,0.5239071707495522,9.772600210130676,0.026774871591243973,0.009257750494386584,-0.0002479746204904518,0.9995985888423631,-1.0702180547055092e-15,0.02327790517893681,0.004802876610400703
1729842499.4287431,-0.1832353142486056,0.5214427460532469,9.77616447910575,0.026639473199060727,0.00935368138870365,-0.00024927652797528425,0.9996013130110263,-6.421308328233055e-16,0.02375761452098881,0.002881725966240422
1729842499.4367483,-0.171472171215179,0.5211611920655419,9.785964485803294,0.026598665614552992,0.008744630529206182,-0.00023268673581833236,0.9996079172762268,-3.8527849969398325e-16,0.02404544012622001,0.0017290355797442531
1729842499.444727,-0.19242644481895113,0.5214711000049501,9.768141893386273,0.0266626252452957,0.009830766356383965,-0.00026221994612542324,0.9995961142824511,-2.3116709981638996e-16,0.025069515612282794,0.0010374213478465519
1729842499.452724,-0.1875213368620738,0.5142350196221107,9.770137606734888,0.026288126780278448,0.009578761099244082,-0.0002519063119064856,0.9996084824917192,-1.3870025988983397e-16,0.025683960903920465,0.0023252130545560576
1729842499.4607234,-0.1788321881035724,0.5110904722224853,9.776602278396402,0.026110577949236262,0.009129199112805722,-0.00023845991266988758,0.9996173460777807,-8.322015593390037e-17,0.025626938017441037,0.003097888078581761
1729842499.4687397,-0.19851839611409658,0.5087249034506787,9.772340795748777,0.026001018711675074,0.010138427605860789,-0.00026371216994785173,0.9996104690165701,-4.993209356034022e-17,0.02559272428555338,0.0035614930929971826
1729842499.4767513,-0.1981196924536142,0.507784402519626,9.770741586824267,0.02595729107536412,0.010119784984358542,-0.0002627842187075036,0.9996117946164669,-2.995925613620413e-17,0.025572196046420786,0.0021368958557983096
1729842499.4847507,-0.19668336942724665,0.5129661859453694,9.788217414252763,0.02617493922678385,0.010028224955653652,-0.0002625913661591975,0.9996070419452273,-1.7975553681722478e-17,0.02555987910294123,0.002984897759327112
1729842499.4927452,-0.209947365406348,0.522060760151206,9.796787549381735,0.02661458142935693,0.010694304082290846,-0.0002847415915120182,0.9995885227621223,-1.0785332209033486e-17,0.02470110881392943,0.0017909386555962671
1729842499.5007465,-0.19228780523013692,0.5361366306512705,9.794986445644666,0.02733585700995116,0.00979587872335913,-0.00026789171776673697,0.9995782710301362,-6.471199325420091e-18,0.024185846640522354,0.0010745631933577603
1729842499.5087752,-0.17953728763026966,0.5294986824923248,9.787441438920002,0.027019092170727076,0.009153931193939374,-0.00024743162184232736,0.9995929736545565,-3.8827195952520545e-18,0.02387668933647811,0.0027731882233248146
1729842499.5167472,-0.19080117018558365,0.5176150481184417,9.799913266672313,0.02638028991432535,0.009716528318586418,-0.0002564261932040222,0.9996047236918589,-2.3296317571512327e-18,0.02369119495405156,0.003792363241305047
1729842499.5247486,-0.18558849141799083,0.5109637078261431,9.797340716351044,0.026048890112880595,0.009454037589899275,-0.000246361805458991,0.999615934148209,-1.3977790542907395e-18,0.02400558838605766,0.004403868252093187
1729842499.5327535,-0.19275595129610698,0.5163102901253734,9.808486454957112,0.026290954551520133,0.009807584831647004,-0.00025795235188302753,0.9996061876804905,-8.386674325744436e-19,0.02419422444526132,0.00477077125856607
1729842499.5407357,-0.18508541892219543,0.5173634580107709,9.816131578784814,0.026324100626369,0.009410034174895391,-0.0002478075447228283,0.9996091394012266,-5.032004595446661e-19,0.02430740608078352,0.004565223000987768
1729842499.5487227,-0.19891845228105162,0.5256568040545094,9.793424754155653,0.026806857741610676,0.010135908831126016,-0.00027182352944461974,0.9995892065454474,-3.0192027572679964e-19,0.023949625000634807,0.0027391338005926607
1729842499.5567257,-0.18902233967917784,0.5270415091905181,9.794644709671127,0.026874119918329744,0.009630509378724693,-0.0002589169982548577,0.9995924008963402,-1.8115216543607977e-19,0.024586336475469643,0.0037719305876657543
1729842499.5647306,-0.18619713427625673,0.5185349457975139,9.79753146447455,0.026433546805873964,0.009484370181067216,-0.0002508044734529314,0.9996055479150995,-1.0869129926164786e-19,0.024968363360370546,0.004817298721371642
1729842499.572744,-0.1974306999993478,0.5141492682597584,9.787771349387855,0.02623636607876043,0.010066694758217894,-0.00026421784317661834,0.9996050444753456,-6.521477955698872e-20,0.02434619936838702,0.004593139478671112
1729842499.5808308,-0.19531229329062427,0.5198975675476519,9.787661364320213,0.026529405989919153,0.009958439233396494,-0.00026429762083141924,0.9995983944828165,-3.912886773419323e-20,0.023972900973196907,0.002755883687202667
1729842499.588746,-0.19763255175562455,0.5056294548352317,9.78807421361166,0.025801686844218057,0.010077242492379136,-0.00026010967118875335,0.9996162536107052,-2.3477320640515937e-20,0.02417461199754487,0.0016535302123216
1729842499.596777,-0.1949545640123591,0.5119126375007484,9.786885402190434,0.026124861731274134,0.009941522888382464,-0.0002598224445963824,0.9996092187522476,-1.408639238430956e-20,0.02472132867361568,0.00099211812739296
1729842499.6047466,-0.18640458655194672,0.5171190680961522,9.79527008164629,0.026367589631197834,0.009497208600852286,-0.00025051691006665224,0.9996071680850985,-8.451835430585737e-21,0.025049358679258168,0.0027237211837459344
1729842499.6127443,-0.1786409782495274,0.5264678507698006,9.793597124671368,0.026847935475711973,0.009102729746527238,-0.0002444877718506323,0.9995980536683647,-5.071101258351442e-21,0.024394796559719593,0.003762683017557719
1729842499.6207445,-0.1826019392446383,0.5292040783818023,9.780382922019616,0.0270234959919863,0.009316857730605473,-0.0002518769975308445,0.9995913481940392,-3.042660755010865e-21,0.02357636922653442,0.004811750179306821
1729842499.6287458,-0.19479474264834548,0.5325217561111126,9.774369761756692,0.02720905714074889,0.009944651467451524,-0.0002706982126660683,0.9995802608291042,-1.825596453006519e-21,0.023936692949547377,0.005441190476356283
1729842499.6367476,-0.1946883995440854,0.5294845392623706,9.78752127722003,0.027017944966248018,0.009926130130898204,-0.00026829481107212974,0.9995856294526846,-1.0953578718039112e-21,0.024578577244817185,0.005393164593123927
1729842499.6447237,-0.19342749285145125,0.520958444504688,9.78248349753319,0.026597491672691164,0.009867495937262667,-0.0002625563232225908,0.9995974875042586,-6.572147230823467e-22,0.024538017760517037,0.005364349063184514
1729842499.652724,-0.19338920933391762,0.5206311909703909,9.783530972543351,0.026577980147799097,0.009864513185399751,-0.00026228426444358823,0.9995980359913893,-3.9432883384940805e-22,0.024513682069936947,0.004921369683758834
1729842499.660746,-0.18378943258277244,0.5060696288888752,9.777695113067026,0.025851643237899846,0.009381462847262398,-0.0002426180034143865,0.9996217393760753,-2.3659730030964484e-22,0.024073390594126862,0.0029528218102553004
1729842499.66874,-0.20125332263560095,0.5061912377825438,9.786404025848029,0.02583464518652335,0.010263513995416609,-0.0002652567626321871,0.9996135058248273,-1.419583801857869e-22,0.023809215708640814,0.00177169308615318
1729842499.6767557,-0.19257804338604806,0.51967173241562,9.784686188702176,0.026525989735153563,0.009822057220079106,-0.0002606440895105048,0.9995998354967824,-8.517502811147213e-23,0.023650710777349183,0.001063015851691908
1729842499.6847527,-0.191443018658582,0.5181832225548408,9.78676794857287,0.026444571935815384,0.009762213208030541,-0.0002582601873037213,0.9996025795835504,-0.0017027602458481264,0.023981297880036237,0.0006378095110151448
1729842499.6927817,-0.1936350458142898,0.5208814191286076,9.786341063333174,0.026583105262367995,0.0098742072467735,-0.0002625927043811685,0.999597803914619,-0.002724416393357002,0.0246053402031105,0.0003826857066090869
1729842499.7007463,-0.19159837978349573,0.5100504884400552,9.804520284972561,0.025983348823514243,0.009753038450353245,-0.0002535142625658621,0.999614765574929,-0.001634649836014201,0.024554075535493027,0.00235806173127561
1729842499.7087371,-0.18103899369040993,0.5100162745093456,9.802499128991348,0.025987093027305248,0.009217564549456152,-0.00023962882563509643,0.9996197527449089,-0.0009807899016085206,0.02409762667346051,0.003543287346075524
1729842499.7167444,-0.18763205099940222,0.5260368972739667,9.793864410256136,0.026825156059053484,0.009560519366116538,-0.0002565664903046446,0.9995943885624277,-0.0005884739409651123,0.024249447417703032,0.0021259724076453145
1729842499.7247462,-0.1963762887051101,0.524396523130005,9.798739225987665,0.026728289945908694,0.010001091690550865,-0.00026742100717986125,0.9995926696247674,-0.0003530843645790674,0.024340539864248546,0.0012755834445871887
1729842499.7327511,-0.19970747000040978,0.5140749121690186,9.791129628121897,0.02622356950470311,0.010179273458928531,-0.0002670425699778194,0.999604239428058,-0.00021185061874744044,0.024820885393637887,0.0007653500667523132
1729842499.7407548,-0.20074849811352713,0.49926281961586433,9.807872264177824,0.02542607541530344,0.01021591030620243,-0.0002598480864615918,0.9996244706611392,-0.00012711037124846426,0.025534782772733522,0.0004592100400513879
1729842499.7487216,-0.1963452914950694,0.48989672375194043,9.794694089707868,0.0249835461975005,0.010005901102042802,-0.00025007348022275773,0.9996377553022835,-7.626622274907855e-05,0.02553743113872887,0.0002755260240308327
1729842499.7567217,-0.19681582968219788,0.4976845955304611,9.79516689083644,0.025378718738311653,0.01002888935621314,-0.00025461518875724765,0.9996275692399585,-4.575973364944713e-05,0.02553902015832608,0.001868075860266626
1729842499.76472,-0.19111264844408435,0.5131312260682767,9.795211151347567,0.02616476525559297,0.009737332413266716,-0.000254874370342769,0.9996101862504446,-2.7455840189668277e-05,0.025539973570084407,0.0011208455161599755
1729842499.7727458,-0.20804145381254435,0.5233568850550285,9.80242031263471,0.026665248566749098,0.010591094626194014,-0.0002825304965332371,0.9995882719450099,-1.6473504113800965e-05,0.025966235678601436,0.0006725073096959853
1729842499.78075,-0.2100584513890891,0.5201548939724703,9.804830448078873,0.026495920214853304,0.01069135511194825,-0.0002833929993953009,0.9995917070615613,-9.884102468280579e-06,0.02622199294371165,0.0021062646316657176
1729842499.7887368,-0.20480430545259407,0.5194308001530134,9.797417983202791,0.026479165143455694,0.010431930180625127,-0.0002763407492897269,0.9995948940855002,-5.930461480968347e-06,0.025524067179853716,0.002966519024847557
1729842499.7967427,-0.20524312038093145,0.5058282347304799,9.802786731083783,0.025773045157873712,0.01044951555872428,-0.0002694200567340508,0.9996131677707688,-3.558276888581008e-06,0.024679621660076922,0.004334051783680724
1729842499.8047464,-0.18826815738480887,0.514186686932038,9.78134770271277,0.026255591116444148,0.00960592132299925,-0.00025230777549991424,0.9996090768652758,-2.134966133148605e-06,0.024172954348210846,0.005154571438980625
1729842499.8127446,-0.1867023055636978,0.5110614726084415,9.770639067184304,0.026124898328086073,0.00953665055894933,-0.00024924044114149016,0.9996131651107173,-1.2809796798891629e-06,0.024294644022553234,0.005221193170698532
1729842499.8207543,-0.18360801297689053,0.5137353271685805,9.7883953226348,0.026213805981531266,0.009361520445038504,-0.0002454962119080046,0.9996124939407919,-7.685878079334977e-07,0.025219037950082727,0.0031327159024191194
1729842499.8287756,-0.19204650456347808,0.5103118164183358,9.78635980710627,0.02604476749331598,0.009793900461098676,-0.0002551786738972111,0.9996127672673162,-4.611526847600986e-07,0.025347984245138393,0.0018796295414514716
1729842499.8367493,-0.1997432213416025,0.5226229199291265,9.79136342210556,0.02665805623759192,0.010180266711592981,-0.000271496693526381,0.9995927353161684,-2.7669161085605913e-07,0.02499966196070976,0.0011277777248708829
1729842499.8447356,-0.18640473895730522,0.5345585651898977,9.782394582804352,0.027290659873312955,0.009508534261118608,-0.0002596026148681203,0.9995822828893911,-1.6601496651363546e-07,0.02393928846712852,0.0006766666349225297
1729842499.8527274,-0.18366889317907062,0.5333402465358137,9.782041102709956,0.027229618809441636,0.009369431959459544,-0.00025523191503318656,0.9995852622267493,-9.960897990818128e-08,0.022877374309517744,0.002534450288263676
1729842499.8607235,-0.19328013351486426,0.5230324487027382,9.784702056645504,0.026697114846325826,0.009857614786318145,-0.0002632765197321095,0.9995949290463017,-5.976538794490876e-08,0.02309160593787534,0.003223430418806332
1729842499.8687363,-0.20383528103665294,0.5118199465165648,9.800424418801756,0.026084009515940938,0.010379943477273123,-0.0002708573092795546,0.9996058262421738,-3.585923276694526e-08,0.02364583497635193,0.0036368184971319255
1729842499.8767636,-0.20370402506730428,0.5117962098532982,9.800041609288865,0.026083820823146395,0.010373666991522902,-0.00027069155160994244,0.9996058963664124,-2.1515539660167153e-08,0.023978372399437883,0.004310541405589313
1729842499.8847585,-0.20769541430796068,0.506275304036979,9.795262940426836,0.025815515602302195,0.010582388600526267,-0.0002732962196321013,0.9996106729696673,-1.2909323796100292e-08,0.023752204791827422,0.004714775150663746
1729842499.8927457,-0.20673836552813582,0.5077511638674999,9.776115167820555,0.025941236109755666,0.0105540945648517,-0.00027389370281282485,0.9996077172267397,-7.745594277660174e-09,0.023616504227261147,0.004531625336246374
1729842499.9007812,-0.197784430449694,0.5225230493947186,9.77420331089741,0.02669968945239655,0.010098100343541425,-0.00026972606791803033,0.9995924580550044,-4.647356566596105e-09,0.023960773949983416,0.002718975201747824
1729842499.9087462,-0.19289090973466014,0.5285131387188625,9.782633003384149,0.026981956131616268,0.009839473042856945,-0.0002655977999717864,0.9995874590406579,-2.788413939957663e-09,0.024167335783616774,0.0016313851210486942
1729842499.9167473,-0.19402494012790544,0.514629520194208,9.791282121366425,0.026251473707931544,0.009889525847304306,-0.00025971684776459323,0.9996064175233351,-1.6730483639745977e-09,0.02386558282233476,0.002681591318477343
1729842499.9247751,-0.19087463570760263,0.5228193405344935,9.777796819206575,0.026705097928937955,0.009741828116332112,-0.00026026165815273204,0.9995958517288009,-1.0038290183847586e-09,0.02368453104556555,0.0033117150369345325
1729842499.9327548,-0.19544879753784283,0.5318033755609305,9.774733461396991,0.027171414895999654,0.009977712238022587,-0.0002712222132023648,0.999580955155487,-6.022974110308551e-10,0.024001590040966053,0.0036897892680088458
1729842499.9407315,-0.18885590816137757,0.5163642421334332,9.773853127375304,0.02638671670961111,0.009643121642153309,-0.00025455079897884655,0.9996052653873788,-3.613784466185131e-10,0.02504320556113042,0.004768013929577497
1729842499.9487216,-0.19256161984799838,0.5250572745281068,9.775958548788463,0.02682417155680998,0.00982959393412061,-0.0002637783874767617,0.9995918033499192,-2.1682706797110782e-10,0.02524248481176701,0.005414948726518688
1729842499.9567232,-0.1813775175630959,0.5235693293164735,9.782967885620733,0.02672934820102614,0.009252321958004633,-0.000247407533532862,0.9995998575793447,-1.300962407826647e-10,0.02493636230068693,0.005377419543221371
1729842499.9647226,-0.18879284598707627,0.5262678646797279,9.790285949878298,0.02684667997760786,0.009623136880243396,-0.0002584544130389616,0.9995932093667306,-7.805774446959881e-11,0.02347561860965279,0.0032264517259328225
1729842499.9727437,-0.19755160602974578,0.5245351035734617,9.800901712749244,0.02672943583281896,0.010058709607562614,-0.00026897335789230085,0.9995920604298649,-4.683464668175928e-11,0.023024862456494335,0.0019358710355596935
1729842499.9807565,-0.18652629076628496,0.5230166065776707,9.79314538067689,0.026673435166911945,0.009505083023648962,-0.00025363492896073015,0.999598978051915,-2.8100788009055567e-11,0.023605788887523328,0.001161522621335816
1729842499.98874,-0.18900906791680222,0.5170776848938681,9.776281152966682,0.02641654794535574,0.009648505639931085,-0.0002549810758704017,0.9996044254194846,-1.686047280543334e-11,0.02395434474614072,0.0023996738186496157
1729842499.9967415,-0.1852314905547688,0.5173450545398364,9.791541153938212,0.026389128128258686,0.009441022339339354,-0.000249238265845182,0.9996071322745278,-1.0116283683260005e-11,0.02416347826131116,0.0031425645370378955
1729842500.004745,-0.18176784330747067,0.5213361989836675,9.786571364726209,0.026605801282933824,0.009268967538728598,-0.0002467062509253304,0.9996029995527649,-6.069770209956003e-12,0.02428895837041342,0.0018855387222227373
1729842500.0127783,-0.18304153728331052,0.5201395831597317,9.795321079333773,0.02652118671390556,0.009325670183674832,-0.00024742564244966054,0.9996047205328029,-3.641862125973602e-12,0.023938556374412747,0.0032597735406438007
1729842500.0207398,-0.19553734180358007,0.5143937901790421,9.803443950090497,0.026206971591275777,0.009954288239138763,-0.00026097432711759763,0.9996069420917738,-2.185117275584161e-12,0.02415400523827437,0.00451000449315847
1729842500.028748,-0.19465511870519492,0.5135799362168002,9.800895647398049,0.026172393843900747,0.009912010563107978,-0.0002595227074566588,0.9996082685207446,-1.3110703653504967e-12,0.02470896461805338,0.005260143064667272
1729842500.0367343,-0.19268926385007007,0.5133310440054708,9.80918289258922,0.026137709572029485,0.009803693950139062,-0.00025634601733082906,0.9996102450505295,-7.86642219210298e-13,0.02546763030738282,0.005284536146110521
1729842500.0447254,-0.18815786861277642,0.5083933053583606,9.793804525592595,0.025927420538603543,0.00958849929548925,-0.0002487001040589353,0.999617810812579,-4.719853315261788e-13,0.025071449598056416,0.0031707216876663124
1729842500.052724,-0.19405815744696273,0.5248236956173601,9.783140984398525,0.02679260294713552,0.009898735943877645,-0.00026532116153700486,0.9995919672840072,-2.8319119891570724e-13,0.024833741172460573,0.0019024330125997873
1729842500.0607212,-0.20621745672403702,0.5296541062864316,9.778418800844193,0.027051509658644626,0.010523481754461047,-0.0002847960794723266,0.9995786067379318,-1.6991471934942433e-13,0.02469111611710307,0.0011414598075598723
1729842500.0687366,-0.19507768350707844,0.5256091678734215,9.782289255360032,0.02683493190845693,0.009951535230718562,-0.00026715822313425373,0.9995903070771065,-1.0194883160965459e-13,0.024605541083888568,0.0006848758845359234
1729842500.0767474,-0.20611091186205957,0.5265340871498342,9.792751813714066,0.026853235114703465,0.010502937959248686,-0.00028215519107401075,0.9995841697658816,-6.116929896579276e-14,0.024554196063959866,0.000410925530721554
1729842500.0847409,-0.21368852953911074,0.5244554168895099,9.787058340425705,0.02676286038566884,0.010895405104617124,-0.0002917140283619184,0.9995823899781894,-3.6701579379475654e-14,0.024949079113464678,0.0002465553184329324
1729842500.0927496,-0.21272843632698207,0.5188986517450341,9.798246886579642,0.026449743685702028,0.01083454054245073,-0.0002866879646383137,0.9995913873179408,-2.2020947627685392e-14,0.02476031888170553,0.00014793319105975943
1729842500.1007802,-0.22196860720634548,0.5124521305001454,9.802565812611848,0.026110197124677645,0.01130050340979762,-0.0002951778736329692,0.9995951525987001,-1.3212568576611235e-14,0.024647062742650043,8.875991463585566e-05
1729842500.10878,-0.2081196762866979,0.5167245033977435,9.796538042254607,0.026343805456729957,0.010601887193599054,-0.000279406743587597,0.9995966815840596,-7.92754114596674e-15,0.02457910905921675,5.3255948781513394e-05
1729842500.1167417,-0.21321784703178434,0.5116264818238023,9.805371228673076,0.026060906439859935,0.010852125163972465,-0.0002829289910103091,0.9996014108063996,-4.756524687580044e-15,0.024538336849156777,0.0017347138151170343
1729842500.1247392,-0.19712313619758623,0.5138349125317814,9.791756947408924,0.026209712776169028,0.010046962571448102,-0.0002634318105747722,0.9996059424107882,-2.8539148125480264e-15,0.024513873523120792,0.002743588534918347
1729842500.132739,-0.19417007434550487,0.5206666347749282,9.781912437488323,0.02658416299097321,0.009905962456270975,-0.00026344776842324467,0.9995974613719052,-1.7123488875288158e-15,0.0244991955274992,0.0037746034282611666
1729842500.1407242,-0.19527127922644355,0.5171042228083162,9.786300798674635,0.02639082627478544,0.009957915230173777,-0.00026290222800993724,0.9996020683728206,-1.0274093325172895e-15,0.024064698668664213,0.0043932123642668585
1729842500.148727,-0.19210127949875674,0.5154456159603804,9.800186563189156,0.026269205272127696,0.009782587724225212,-0.00025708183698736916,0.9996070046476855,-6.164455995103737e-16,0.023804000553363222,0.004338687664408241
1729842500.1567295,-0.19163580065823843,0.5161263930137282,9.799420055589275,0.026305887851023595,0.009759606429622278,-0.000256836237706739,0.9996062646771754,-3.6986735970622417e-16,0.024073271745644657,0.004305972844493071
1729842500.1647217,-0.1832162277093962,0.5033667501148775,9.806861016507861,0.025637537520700828,0.009324662301595755,-0.00023915039479712561,0.9996277858032582,-2.219204158237345e-16,0.024660524522475552,0.004286343952543969
1729842500.1727417,-0.1920508535689971,0.5134280566607234,9.80055168558831,0.026165621697828805,0.00977978925459415,-0.00025599416788299695,0.9996097490672486,-1.3315224949424068e-16,0.02501287618857409,0.002571806371526381
1729842500.180769,-0.19543626775663261,0.5120428154417466,9.789583482056111,0.02612429841906851,0.009963334420088246,-0.0002603869287193846,0.9996090161648165,-7.989134969654441e-17,0.024372907065309146,0.003245844068763955
1729842500.1887405,-0.19794635660124518,0.5174365950267666,9.786593862427027,0.02640692706037028,0.010093966417315439,-0.0002666572238025371,0.9996002775805534,-4.7934809817926644e-17,0.023988925591350182,0.0036502666871064994
1729842500.1967413,-0.20352255273027833,0.5075047536469194,9.789109653637857,0.02589437287627006,0.010376254872213617,-0.0002687912274676308,0.9996107955296639,-2.8760885890755984e-17,0.024609916829898867,0.0021901600122638996
1729842500.204784,-0.1824474134741045,0.4979543463287766,9.795646951850681,0.025391392720844685,0.009296463760010218,-0.0002361365098741536,0.9996343317317604,-1.725653153445359e-17,0.02498251157302808,0.0030168562532064663
1729842500.212741,-0.18991362386571267,0.5013220682464847,9.797653969450252,0.025557460581150274,0.009674607101464632,-0.000247350772982204,0.9996265087539797,-1.0353918920672154e-17,0.024780378357443573,0.003938564059234038
1729842500.2207386,-0.19367508960263075,0.5093282055475002,9.79359093635765,0.025975494257259583,0.0098697285395757,-0.0002564701197018986,0.9996138236237652,-6.212351352403292e-18,0.024233408366630838,0.004491588742850581
1729842500.2287612,-0.1856369019061097,0.5172443500863126,9.804800065964981,0.026348395561577875,0.009448939427811465,-0.0002490619931061546,0.9996081320013077,-3.727410811441975e-18,0.0239052263721432,0.0048234035530205065
1729842500.2367516,-0.19733398074327516,0.509304768010772,9.791893090116098,0.025978745331825273,0.010057869239910696,-0.0002613922796998505,0.9996118625403628,-2.236446486865185e-18,0.024134007236912645,0.005022492439122462
1729842500.244727,-0.19549368190299632,0.5062169599275569,9.799711215397783,0.02580102575451617,0.00995638199263858,-0.00025698316875157284,0.9996174825838544,-1.341867892119111e-18,0.024271275755774313,0.004716255709321604
1729842500.2527275,-0.1919953009386728,0.5103497792280185,9.799613687246483,0.0260115488729096,0.009778093457339682,-0.00025444162447280306,0.9996137871563355,-8.051207352714666e-19,0.024353636867091313,0.004958203732903121
1729842500.2607222,-0.18582612953781305,0.4996613616774361,9.796682128363514,0.025475537177834347,0.009467475955586717,-0.0002412781675549692,0.9996305846108237,-4.8307244116288e-19,0.02397736347241948,0.004677682485589999
1729842500.2687361,-0.19457447533010971,0.49396657164513347,9.797556814859904,0.02518338315531801,0.009912540710034931,-0.0002497227914200841,0.9996336710955928,-2.89843464697728e-19,0.02375159943561638,0.004509369737202125
1729842500.2767546,-0.18114870985626894,0.5025207059265332,9.798321046923755,0.025616819111891554,0.009227522372774029,-0.00023646744910987196,0.9996292190070247,-1.7390607881863678e-19,0.024467521136458587,0.004408382088169401
1729842500.2847617,-0.18913440169501136,0.5066955058313105,9.796145964335894,0.02583483223127896,0.009636061952726049,-0.00024904074151856006,0.999619750571353,-1.0434364729118206e-19,0.024471384095501876,0.004347789498749767
1729842500.2927387,-0.18722205214981932,0.5094398059401926,9.80944554491013,0.02593935689215749,0.009525599982380024,-0.00024718233577647854,0.9996181028822406,-6.260618837470923e-20,0.024048011809465822,0.00260867369924986
1729842500.3007693,-0.19158130624106348,0.5132411674996624,9.807130226116,0.02613861562665827,0.009749377554252543,-0.0002549344649775013,0.9996107529527906,-3.7563713024825534e-20,0.023793988437844187,0.001565204219549916
1729842500.3087885,-0.18533831255323183,0.5222257490837818,9.79975553068913,0.026615278960256963,0.009438266177246626,-0.0002513023161427562,0.999601161916382,-2.2538227814895318e-20,0.024067264476333238,0.0030675728390401075
1729842500.3167706,-0.19069048264912658,0.5319260610225347,9.786711587456447,0.027144550597059162,0.009722993300389912,-0.00026403607056549663,0.9995841970835262,-1.352293668893719e-20,0.0246569201608887,0.0035433039492721906
1729842500.3247645,-0.1998872888570541,0.5286482818771927,9.787264927327383,0.026975996619987522,0.010191436904893035,-0.0002750385585669676,0.9995840907967489,-8.113762013362314e-21,0.024159333448697917,0.0038287426154114406
1729842500.3327231,-0.2135456582263418,0.5307517572122531,9.801004460546821,0.027045012706100366,0.010872222438534146,-0.0002941643998982616,0.9995750474748156,-4.868257208017388e-21,0.023860781421383447,0.004000005815094991
1729842500.340733,-0.2066572093889301,0.5291408004211018,9.797756012509733,0.026972128315948984,0.010525221380460671,-0.00028400669604074355,0.9995807337825179,-0.0017027602458481264,0.02453303032791883,0.0024000034890569945
1729842500.3487313,-0.20396066108257682,0.5207522011999267,9.80346838899998,0.026530049550758127,0.010382492430349619,-0.000275559899478106,0.9995940598005322,-0.0010216561475088757,0.025362069733302087,0.0014400020934341967
1729842500.3567286,-0.20641287492103047,0.5123671593430029,9.798755529249597,0.02611624068846129,0.01051290484006156,-0.0002746664325289112,0.9996035941124246,-0.0006129936885053254,0.025008113253607977,0.002992451563370676
1729842500.3647237,-0.19663145542136826,0.5090120753909579,9.803349838545852,0.025933577058008424,0.010010423132217372,-0.00025970645308568205,0.9996135120946738,-0.00036779621310319523,0.024370049304329483,0.0034982311838705317
1729842500.3727365,-0.18693188106532097,0.5062807645216841,9.808021785451729,0.02578256628453363,0.009512413797606882,-0.00024534711049799306,0.9996222851979252,-0.00022067772786191713,0.023987210934762384,0.0038016989561704454
1729842500.3807638,-0.1868582204360676,0.505839078830198,9.81106437376127,0.025752146943659085,0.009505755729276352,-0.0002448859078248725,0.9996231327688949,-0.00013240663671715028,0.024183197974484157,0.003983779619550393
1729842500.3887389,-0.18968706605070304,0.5194604370442125,9.807143842762622,0.0264546822318525,0.009652593736867507,-0.0002554576203062008,0.9996033773270111,-7.944398203029017e-05,0.02430079019831722,0.002390267771730236
1729842500.3967404,-0.18324408777495307,0.5226054284862931,9.800960801507182,0.02663134782420625,0.009330479601813504,-0.00024858224638419935,0.9996017465322543,-4.7666389218174096e-05,0.024371345532617057,0.0014341606630381414
1729842500.4047418,-0.20571451907122185,0.518985759533182,9.794617354927746,0.0264640605841732,0.010481293736020495,-0.0002774900376688557,0.9995947773864645,-2.8599833530904456e-05,0.02441367873319696,0.0025632566436710113
1729842500.4127376,-0.20411330738999875,0.5242359833077999,9.790093026482038,0.02674355783867205,0.010404154790763885,-0.00027835875905523824,0.999588144284245,-1.7159900118542672e-05,0.0244390786535449,0.0015379539862026067
1729842500.4207363,-0.21272938702188987,0.5216400335881956,9.799349437715394,0.026586199358643824,0.010833174127485322,-0.00028813170020012164,0.9995877816990909,-1.0295940071125602e-05,0.024454318605753665,0.0009227723917215639
1729842500.4287322,-0.22556048011352456,0.5138575394400267,9.800114881135096,0.026188134516800188,0.011486048665125322,-0.0003009212651398516,0.9995909972298592,-6.177564042675361e-06,0.024037772515616895,0.0005536634350329383
1729842500.4367518,-0.21314784202319287,0.5163706479315942,9.79817994552676,0.026321325551039606,0.01085615213504867,-0.00028586422027481584,0.9995945428340955,-3.7065384256052164e-06,0.023787844861534832,0.000332198061019763
1729842500.444926,-0.19995417518461883,0.5140477903702846,9.79103348001137,0.026222442291039007,0.010191945886699688,-0.00026736355144022997,0.9996041397853788,-2.2239230553631297e-06,0.023637888269085593,0.00019931883661185779
1729842500.4527242,-0.1937139162435838,0.5212732018100613,9.799434869500962,0.026567588738791285,0.009865053116841719,-0.0002621959964104306,0.999598306925771,-1.3343538332178779e-06,0.023973604375078082,0.002248041609277273
1729842500.4607224,-0.2014619288477128,0.5098067177168962,9.790110493233781,0.026008963925153068,0.010270028347401098,-0.00026721730067917523,0.9996089179815264,-8.006122999307267e-07,0.024600724100135606,0.003477275272876522
1729842500.4687693,-0.20682899690823706,0.5038845079250596,9.787149489299644,0.025715116009224312,0.010547127869478092,-0.0002713254476548256,0.9996136340030775,-4.80367379958436e-07,0.024551305873708087,0.0046405055324981025
1729842500.4767954,-0.20837329658244222,0.509668568524567,9.792794912085645,0.02599471825159623,0.010619344093011077,-0.00027615576355513187,0.9996056361846148,-2.882204279750616e-07,0.02409596487638955,0.005338443688271051
1729842500.485033,-0.20307495207055906,0.5167303073745059,9.787323619614668,0.026368922188069473,0.010354688052828982,-0.0002731516032331636,0.9995986123270529,-1.7293225678503694e-07,0.024248450339460454,0.005331516520272789
1729842500.492997,-0.19774116386928856,0.5183337288582972,9.780928381973878,0.02646790698002368,0.010089263672336072,-0.00026714889598801304,0.9995987121290795,-1.0375935407102216e-07,0.024339941617302997,0.005327360219473831
1729842500.5007854,-0.19071016829227627,0.5116343364360721,9.78283732337378,0.02612152713414249,0.009729173468757079,-0.0002542396671364756,0.9996113966767219,-6.225561244261329e-08,0.02482052644547056,0.004899176377532425
1729842500.5087867,-0.1855338902820064,0.5011503565003151,9.799784419170752,0.025543237694148763,0.00944951768090725,-0.0002414608517113236,0.9996290268496386,-3.735336746556797e-08,0.02510887734237109,0.002939505826519455
1729842500.5167956,-0.18458290496998508,0.5097040188318297,9.791277903699717,0.02600087035681477,0.009408705386179016,-0.0002447281099549206,0.9996176124457774,-2.241202047934078e-08,0.02443050775758735,0.0034664637417597993
1729842500.5247862,-0.19239201959331914,0.5129208549026134,9.785695154085063,0.026179421458712673,0.009812009309876893,-0.0002569731851569719,0.9996090717526388,-1.3447212287604468e-08,0.024449176068179135,0.004208328552366037
1729842500.5327442,-0.20042937069153835,0.5100625532247711,9.793358831952991,0.02601339133727821,0.010214013840770211,-0.0002658049686781652,0.9996093770769224,-8.06832737256268e-09,0.02446037705453421,0.004653447438729781
1729842500.5407288,-0.19998453769812613,0.5155301771985344,9.794365736183513,0.026288976709588536,0.010189936955298634,-0.0002679895645918132,0.9996024124970903,-4.840996423537608e-09,0.02446709764634725,0.004494828709085994
1729842500.5487263,-0.1889437304313757,0.5183319112507613,9.794491038389795,0.026431365926489214,0.00962722509516568,-0.0002545614548424343,0.9996042390019626,-2.9045978541225646e-09,0.024471130001435075,0.004399657471299723
1729842500.556734,-0.19117779221390355,0.5171399096899099,9.795523900377628,0.026367904168448152,0.009740079538214569,-0.0002569270159790869,0.9996048211512694,-1.7427587124735386e-09,0.02447354941448777,0.00434255472862796
1729842500.5647333,-0.1850962041369359,0.5128334062631646,9.799495499894546,0.026138282209731856,0.009426783941187693,-0.0002464951210938515,0.9996138580410967,-1.045655227484123e-09,0.02404931100085736,0.004308293083024902
1729842500.5728416,-0.1874327554411459,0.515756168025477,9.786076728647664,0.026322878570259705,0.00955860398445046,-0.0002517087019603706,0.9996077609724592,-6.273931364904738e-10,0.02422045801414114,0.004287736095663068
1729842500.5810595,-0.20200279535453125,0.5033840352879424,9.787123432208128,0.025689762412121946,0.010301158881390991,-0.00026473575703012006,0.9996168526730069,-3.764358818942843e-10,0.02389745616064938,0.0025726416573978407
1729842500.5888226,-0.1899152648592031,0.49739727664151545,9.785117832518237,0.025390182511291177,0.009687288455059959,-0.0002460529017850099,0.9996306490561409,-2.2586152913657055e-10,0.023703655048554324,0.0015435849944387043
1729842500.5967824,-0.1931972338666937,0.5055368095884248,9.785350993700396,0.025804193329918526,0.009853890817141598,-0.0002543687664774891,0.9996184170666759,-1.3551691748194232e-10,0.023587374381297287,0.0009261509966632226
1729842500.6047764,-0.18846265062275058,0.5041956050401644,9.792434075224143,0.02571735646419545,0.00960563115167215,-0.00024712458828594615,0.9996230731411262,-8.131015048916539e-11,0.023517605980943067,0.0005556905979979336
1729842500.613432,-0.1827488586841972,0.49908131932292665,9.800754066960657,0.02543550913967167,0.009306916365571615,-0.00023681303996413887,0.9996331127479492,-4.8786090293499235e-11,0.023475744940730535,0.0020361746046468863
1729842500.6207666,-0.1809965246831746,0.5008011512128966,9.802633599844363,0.02551812708605847,0.009215833503331694,-0.00023525742024088704,0.9996318513616925,-2.927165417609954e-11,0.023876318378065045,0.002924465008636258
1729842500.628738,-0.17635382179232664,0.5042272520070348,9.807592042230835,0.025679453247608116,0.00897477397567712,-0.0002305526128958235,0.9996299144976015,-1.7562992505659722e-11,0.02411666244046575,0.0034574392510298814
1729842500.6367276,-0.17308935972578662,0.501015668831174,9.795004796871705,0.02554897555986595,0.008820146891301213,-0.00022542808082932876,0.9996346352737272,-1.0537795503395834e-11,0.02468655893936821,0.004202913857928087
1729842500.6447244,-0.1809469092925032,0.5098626263963606,9.781945785837866,0.026033751870439825,0.009232173894314476,-0.0002404398753679746,0.999618403650813,-6.3226773020375e-12,0.025028496838709682,0.00465019862206701
1729842500.6527247,-0.17991535504815817,0.5043968934647695,9.787517908514438,0.02574060859385429,0.00917467967555064,-0.00023625007187688115,0.9996265255123898,-3.7936063812225e-12,0.024807969516852536,0.004492879419088333
1729842500.660722,-0.17426859901522304,0.5083000586862836,9.76739800585085,0.025992786786213105,0.008904806895554266,-0.0002315481699553455,0.9996224416421854,-2.2761638287335e-12,0.024675653123738248,0.004398487897301125
1729842500.6687653,-0.17806315037593068,0.5137544199773951,9.76993069437965,0.026264287277981937,0.009095972726624936,-0.00023899158184353616,0.9996136220445176,-1.3656982972401e-12,0.024596263287869673,0.002639092738380675
1729842500.6767669,-0.17722741903415218,0.5115203729337027,9.77695697131529,0.02613156997202563,0.009046944575252444,-0.00023650131611810353,0.9996175458202887,-8.1941897834406e-13,0.023697249263424466,0.0032862158888765317
1729842500.684767,-0.18247206421346004,0.5233480538383466,9.780454476978628,0.026724912148307946,0.00931053875877872,-0.0002489230401741597,0.9995994352619486,-4.916513870064359e-13,0.02315784084875734,0.004100179840636077
1729842500.692772,-0.18561885132104478,0.5213466960725391,9.786383703032879,0.02660679399030841,0.00946547155609957,-0.00025194634545382794,0.9996011303939272,-2.9499083220386154e-13,0.022834195799957067,0.002460107904381646
1729842500.700769,-0.19229532690590811,0.5115267554364922,9.799757465472071,0.02607102921765749,0.009793149452550796,-0.000255416564156442,0.9996120899737612,-1.7699449932231692e-13,0.023065698832138937,0.0014760647426289876
1729842500.708771,-0.18792150644627925,0.5142539170314265,9.806345201939493,0.026192228576841347,0.009563883950999353,-0.00025059688096887994,0.999611142638553,-1.0619669959339015e-13,0.023204600651448058,0.002588399091425519
1729842500.7167742,-0.17404446636776755,0.5192420963126059,9.80407291950354,0.026452053696001124,0.008859562490070935,-0.00023444486975996795,0.9996107952815193,-6.371801975603408e-14,0.02328794174303353,0.0032557997007034377
1729842500.724726,-0.1910967799183168,0.5105034157465479,9.798399987053687,0.026022591708728435,0.009733537079474894,-0.0002533896862251169,0.9996139348620297,-3.823081185362045e-14,0.023763636459446846,0.004081930127732221
1729842500.7327268,-0.17738615144708383,0.4980776024264444,9.789250143599398,0.025414290707776004,0.009044513904405437,-0.00022994359074141182,0.9996360626357969,-2.293848711217227e-14,0.024474743350756868,0.005003298445411522
1729842500.7407255,-0.1775394801748909,0.5013960219050854,9.780408355202608,0.025606359811577814,0.009060289222583411,-0.00023208666169088153,0.9996310177421389,-1.3763092267303362e-14,0.024475717424080848,0.005130429374557072
1729842500.7487218,-0.17523727575141892,0.5009928719321137,9.794256895445784,0.02554973637893814,0.008930253424292003,-0.00022824924272520837,0.9996336376128145,-8.257855360382017e-15,0.024476301868075236,0.0047810178705823695
1729842500.7567205,-0.1805597177457732,0.5060182256006744,9.797298775939344,0.025797449722369775,0.009198273034485928,-0.0002373810412672021,0.9996248431342861,-4.95471321622921e-15,0.024050962473009835,0.0028686107223494218
1729842500.7647212,-0.18135898128222952,0.5061603958096235,9.801278685729622,0.025794216777740193,0.009235232814880335,-0.00023830506037947805,0.9996245855651892,-2.972827929737526e-15,0.023370068774508562,0.001721166433409653
1729842500.7727733,-0.1863875225584002,0.5127100424174147,9.806779093761993,0.026112623537546936,0.009485515419526,-0.0002477873458806655,0.9996139727367978,-1.7836967578425155e-15,0.02253584249394577,0.0010326998600457917
1729842500.7807949,-0.19347479014636823,0.5164004102160739,9.808403397419305,0.02629574638149721,0.00984422645138382,-0.0002589633910426944,0.999605701197115,-1.0702180547055092e-15,0.022460996787070128,0.000619619916027475
1729842500.788773,-0.20083961285735216,0.5157415889030817,9.80291363513127,0.026276840206636405,0.010224588226737115,-0.0002687767426768916,0.9996023775599032,-6.421308328233055e-16,0.022841779424406773,0.002074532195464611
1729842500.7967713,-0.1954422796773019,0.5153462961152865,9.798662097094386,0.02626818538623069,0.009954224285706583,-0.000261582646209692,0.9996053358350503,-3.8527849969398325e-16,0.023495939068270792,0.0012447193172787667
1729842500.8047922,-0.19028851844114675,0.5227705657551094,9.794195812944132,0.02665800994547365,0.009695726791240025,-0.0002585728419863258,0.9995975572838411,-2.3116709981638996e-16,0.0238884348545892,0.002449591836215386
1729842500.8127403,-0.1931817658498443,0.511902236914003,9.795825605442259,0.026100564977394363,0.00984219039882805,-0.00025698673971575356,0.9996108371530541,-1.3870025988983397e-16,0.02454962238784228,0.00359820540903939
1729842500.8207269,-0.20401568060365657,0.5108879034276987,9.79991594309934,0.026037951655459697,0.010389728314761263,-0.00027063362276679847,0.9996069254344808,-8.322015593390037e-17,0.024520644846332092,0.0042873735527337925
1729842500.8287249,-0.2081218277957877,0.5042937991855255,9.800933624697493,0.025699824199684005,0.010598132418308629,-0.00027247545516615476,0.9996134874952797,-4.993209356034022e-17,0.024503258321425983,0.004700874438950434
1729842500.8367248,-0.199332768308332,0.5218851515816278,9.7941222085099,0.026613028238929817,0.010156553941191707,-0.00027040639407209456,0.9995941766638978,-2.995925613620413e-17,0.024492826406482315,0.004523284909218387
1729842500.844724,-0.1820883243150773,0.5252573580388205,9.79362666128758,0.02678621212925638,0.00927839466553123,-0.0002486329749529297,0.99959809344248,-1.7975553681722478e-17,0.024486567257516113,0.002713970945531032
1729842500.852721,-0.19352889302654638,0.5121972114541516,9.789498610297938,0.026132411824068977,0.009866200148387272,-0.0002579282572323013,0.999609768169511,-1.0785332209033486e-17,0.02363143164521233,0.0016283825673186192
1729842500.860733,-0.19512599060108407,0.5213599552904598,9.781515115885794,0.026620552790427986,0.009955071882363423,-0.000265116622471067,0.9995960046069239,-6.471199325420091e-18,0.024395420462216155,0.0009770295403911714
1729842500.8687782,-0.18890164416533792,0.5239845596000571,9.77552791840843,0.02677071375172196,0.009643311576964108,-0.0002582629168010363,0.9995950523723688,-3.8827195952520545e-18,0.02485381375241845,0.0005862177242347028
1729842500.87681,-0.18492761613787462,0.5260381625178467,9.785343129218885,0.026848564315074912,0.009430929531197545,-0.000253309510451914,0.9995949919825974,-2.3296317571512327e-18,0.024277469603615764,0.00035173063454082166
1729842500.885163,-0.19786608994639665,0.5200877192880518,9.784289070890706,0.026548179310441528,0.010092061708590635,-0.000268034000848527,0.9995965549278094,-1.3977790542907395e-18,0.024357353175796185,0.0019137986265726193
1729842500.8930619,-0.19701004825494736,0.5306432431450967,9.775276930083251,0.027110744686120854,0.010056914274874004,-0.00027276450307212697,0.9995818083565535,-8.386674325744436e-19,0.02483097338056647,0.0041281096061777925
1729842500.9008758,-0.19769352407015592,0.5324275743050267,9.777770511077295,0.027194773902407047,0.010089105383838998,-0.0002744864434380114,0.9995792009051324,-5.032004595446661e-19,0.025540835564890674,0.004179626009554802
1729842500.9088042,-0.19331520623896858,0.5299068705107504,9.781182021001845,0.02705695172269871,0.009862472694751403,-0.00026695918094535233,0.9995852048367946,-3.0192027572679964e-19,0.025966752875485194,0.004210535851581008
1729842500.9169652,-0.2017015431769749,0.5195359020916065,9.78179240596048,0.026526769741320514,0.010290279662644657,-0.0002730784483595149,0.9995951010582818,-1.8115216543607977e-19,0.025370923138917843,0.00422908175679673
1729842500.92479,-0.19452291687298182,0.5260025898389482,9.787186460421992,0.026841575483923092,0.009918270534555997,-0.00026633108057657175,0.9995904595397556,-1.0869129926164786e-19,0.0245877352355154,0.0025374490540780383
1729842500.9327426,-0.18853979992847655,0.5253336193330564,9.79521129641921,0.02678568201801524,0.009605489869520199,-0.00025739383771748915,0.9995950157696909,-6.521477955698872e-20,0.024117822493473932,0.001522469432446823
1729842500.940732,-0.19213253474224218,0.5256504975275682,9.802420399677697,0.026782087953080243,0.009781283745004607,-0.00026206975751044486,0.999593406127019,-3.912886773419323e-20,0.02468725497117312,0.0009134816594680937
1729842500.9487314,-0.1736980413531578,0.5227281622860722,9.786155727355446,0.02667792120642265,0.008857850782684737,-0.0002364024697292545,0.9996048074681754,-2.3477320640515937e-20,0.02545460451925466,0.0005480889956808562
1729842500.9567316,-0.1781996561107228,0.5173834586509402,9.781185327282408,0.026419054941651147,0.009092286924006203,-0.00024030344782221527,0.999609576839245,-1.408639238430956e-20,0.02506363412517952,0.003308683827642735
1729842500.9647272,-0.18209772579533992,0.5299783674268922,9.800229742512023,0.027008273259532315,0.009272346163020546,-0.0002505322325257315,0.9995921738417983,-8.451835430585737e-21,0.02440336182727241,0.005390730788281894
1729842500.9727483,-0.18802787009634456,0.5229306825655103,9.79920654301698,0.026652583148498336,0.009575681818828476,-0.00025531907456987566,0.9995988600140494,-5.071101258351442e-21,0.02400719844852814,0.005362888780279294
1729842500.9809,-0.18775523402069735,0.520138592644775,9.795959001493783,0.026519350441147393,0.009565139758974273,-0.00025376216250854074,0.9996025048779819,-3.042660755010865e-21,0.023769500421281578,0.004920493514015703
1729842500.9887726,-0.19214063552960592,0.5201392798544431,9.78587019093533,0.026546605554193747,0.009798542382651883,-0.0002602222536806435,0.9995995191000765,-1.825596453006519e-21,0.024052571666395673,0.004655056354257548
1729842500.9967668,-0.19644781759706045,0.5227733140064158,9.78364762725651,0.026686740917022996,0.010020217069450858,-0.00026751565838850877,0.9995935881869598,-1.0953578718039112e-21,0.02422241441346413,0.0027930338125545288
1729842501.0047789,-0.2023840091617519,0.5336911209722088,9.791172635191796,0.02722187399867945,0.010314233035680747,-0.00028089180420022596,0.9995761638177854,-6.572147230823467e-22,0.02389863000024317,0.0016758202875327172
1729842501.0127451,-0.20498804343650426,0.5328197800052002,9.77701286700375,0.027216757779144157,0.01046203320187548,-0.000284863757289777,0.9995747659929767,-3.9432883384940805e-22,0.024130049413772628,0.0010054921725196303
1729842501.0207407,-0.20655046400135568,0.5267903116066358,9.77402366990928,0.02691762884945998,0.010545398681708321,-0.0002839758324577367,0.9995819902246604,-2.3659730030964484e-22,0.024694591123352337,0.0006032953035117781
1729842501.028748,-0.1926438660472978,0.5236514708995283,9.783243479289318,0.02673262881565893,0.009826591231489538,-0.00026279723656474555,0.9995942854973642,-1.419583801857869e-22,0.024607626087638126,0.002490427489417225
1729842501.036735,-0.2008198987299412,0.5086000573444045,9.784705222095074,0.02596184027935579,0.01024302587065108,-0.00026603144206387554,0.9996104203626502,-8.517502811147213e-23,0.02370406694328554,0.004474086923884556
1729842501.0449135,-0.20213421584929284,0.5084277553539084,9.781512124956263,0.025961498276723873,0.010313407638086915,-0.000267856057482792,0.9996097050765618,-5.1105016866883276e-23,0.023587621518136016,0.004812902461640891
1729842501.052728,-0.2036410666189507,0.5109579959857825,9.79300379596985,0.02605986338248536,0.010377944699012914,-0.00027055429042059973,0.9996064768621131,-3.0663010120129965e-23,0.023943444324508335,0.004590501722832661
1729842501.0607421,-0.1995173535944173,0.518222224349282,9.795589235589722,0.026422681654769624,0.010164690949441021,-0.00026868609750050915,0.9995991440371755,-1.8397806072077978e-23,0.023731247946869698,0.0044570612795477235
1729842501.0687366,-0.19847964677579097,0.5132433748927723,9.79737991952766,0.026164589960668633,0.01011033564693074,-0.0002646369251055602,0.9996064852293599,-1.1038683643246786e-23,0.023603930120286512,0.002674236767728634
1729842501.0767505,-0.20264542600492771,0.506664762728632,9.800130271052534,0.025822602768013556,0.010320031783411995,-0.00026659319028207897,0.9996132347354879,-6.623210185948071e-24,0.0235275394243366,0.0016045420606371804
1729842501.0847514,-0.20179301121819102,0.5036752760942105,9.79890743997527,0.02567375173582533,0.010278114256027059,-0.0002639787252080111,0.9996175014246099,-3.973926111568842e-24,0.023481705006766655,0.002665485482230435
1729842501.0927405,-0.2008027220141177,0.504754626105745,9.784526791866021,0.025766408957364977,0.010242595883077016,-0.0002640164334004201,0.9996154819200934,-2.384355666941305e-24,0.023454204356224688,0.001599291289338261
1729842501.1007783,-0.18320971670456437,0.4934312278118845,9.774222461838361,0.02521622461079394,0.009355960741554849,-0.00023600739245529617,0.9996382107120012,-1.430613400164783e-24,0.023437703965899507,0.0009595747736029565
1729842501.1087434,-0.1817518798274261,0.4998052979664276,9.784799275442861,0.02551379692161881,0.009271152334967135,-0.00023662950769952717,0.9996314500392134,-8.583680400988698e-25,0.0234278037317044,0.0005757448641617738
1729842501.1167402,-0.18398963985934627,0.4935740930864972,9.7779772544747,0.025213835251112617,0.009392174254267352,-0.00023689850786004225,0.9996379311799869,-5.1502082405932185e-25,0.023421863591187336,0.0003454469184970643
1729842501.1247392,-0.17455838840779528,0.4855258071702577,9.774841722557868,0.024811514556179113,0.008914158984367678,-0.0002212506969265897,0.9996523783611776,-3.090124944355931e-25,0.02384398956833913,0.002335718458408397
1729842501.1327486,-0.1875744104860834,0.4986533480716859,9.785889092372612,0.025452204024141584,0.00956708871868249,-0.0002435935675716177,0.999630230028052,-1.8540749666135587e-25,0.024522955216092233,0.0035298813823551965
1729842501.1407344,-0.19873590605727504,0.5026991499562928,9.783419547952864,0.025664616785543864,0.010138483702774872,-0.00026029943069841755,0.9996191629003849,-1.1124449799681353e-25,0.0249303346047441,0.0038206890752612442
1729842501.1487226,-0.18556092962069318,0.5051266310870569,9.791275207775625,0.025767831479657676,0.009458832851318561,-0.00024382549070440924,0.9996231739465912,-6.674669879808812e-26,0.024749072176473187,0.0022924134451567466
1729842501.1567228,-0.17167043960835338,0.5096955819237186,9.78186281387436,0.026025575440509117,0.008759070636588576,-0.00022804585499218338,0.9996228769389293,-4.004801927885287e-26,0.024214624658048606,0.001375448067094048
1729842501.1647217,-0.18775700253454325,0.5124369524257155,9.786989285004303,0.02615138515830016,0.009574458308733625,-0.0002504825063724302,0.9996121108014402,-2.402881156731172e-26,0.02431964620845589,0.0008252688402564288
1729842501.1727395,-0.19262053696994472,0.5102510520706637,9.80036023482094,0.026004541861031374,0.009809188681561675,-0.0002551820435432801,0.9996136646235545,-1.4417286940387032e-26,0.023956969077238228,0.0004951613041538572
1729842501.1807554,-0.19673575846126368,0.5158826966720857,9.800721359398423,0.026289939090004485,0.010017950271401491,-0.0002634756053675839,0.9996041268200171,-8.650372164232219e-27,0.0233136727370456,0.00029709678249231433
1729842501.1887448,-0.19681068969589882,0.5171069019387983,9.80883889962343,0.02633043434927208,0.010013420026951929,-0.0002637623842664029,0.9996031062755594,-5.1902232985393314e-27,0.023353384994392053,0.0001782580694953886
1729842501.1967442,-0.1944614467765237,0.5051521562999978,9.795513491141245,0.025757886859665933,0.00990812442324199,-0.0002553096016892422,0.9996190750240541,-3.1141339791235986e-27,0.023377212348799928,0.0026610952104694227
1729842501.2047799,-0.2009527665034142,0.5032465525690611,9.800686355182792,0.025647306965759092,0.010233508314599028,-0.00026256206019777015,0.9996186382886945,-1.868480387474159e-27,0.023817198822906685,0.003725107433591812
1729842501.2127402,-0.20245335667939227,0.49085044252776483,9.798762250121394,0.025021637970028706,0.010312743421657035,-0.000258136292327633,0.9996336820666211,-0.0017027602458481264,0.024081190707370737,0.003937824706003214
1729842501.2207375,-0.20359313095099474,0.4927501629775964,9.787552140111899,0.025146991056310953,0.010382494382939297,-0.00026118518056615576,0.9996298136978026,-0.002724416393357002,0.024239585838049166,0.004065455069450054
1729842501.228741,-0.19398192837528436,0.513283028694761,9.787529838754638,0.026192946744716925,0.009891199580574191,-0.0002591812793978328,0.9996079364114463,-0.001634649836014201,0.023908932854994194,0.004142033287518158
1729842501.2367356,-0.20617171928102995,0.5095615970020128,9.80188166790122,0.025965263781194927,0.010497485202892188,-0.00027267694627672686,0.9996076898105931,-0.0009807899016085206,0.024561921188085277,0.004187980218359021
1729842501.2447274,-0.21252791316041483,0.49918845234183273,9.803070740242685,0.025434554742231306,0.01082043296405784,-0.0002753180963777911,0.999617889923685,-0.0005884739409651123,0.024953714187939922,0.004215548376863539
1729842501.2527254,-0.1974274363728114,0.5092451368347871,9.79253143584483,0.025974018834506032,0.010061981539178672,-0.0002614515558653641,0.9996119439643436,-0.0003530843645790674,0.02476309992639068,0.0042320892719662495
1729842501.2607183,-0.19124019229243683,0.5140820467004816,9.79865770183893,0.02620394621432816,0.009740352706440232,-0.0002553354813111218,0.9996091303783408,-0.00021185061874744044,0.024648731369461135,0.004242013809027876
