Time,Accel_x,Accel_y,Accel_z,Orientation_x,Orientation_y,Orientation_z,Orientation_w,Gyro_x,Gyro_y,Gyro_z
1729842179.4450793,-0.8002788372368295,-3.2405749641107957,10.375358381984029,-0.15068338908288845,0.0363179133827387,0.0055395391008559265,0.9878992048425633,0.922407292377186,0.2071003935857225,-0.04638025106896686
1729842179.4527683,-0.9099265003401446,-2.938656927929368,8.940239711807603,-0.15792979377599928,0.04757020062557516,0.007617303883162219,0.9862744207024049,1.139193899998067,0.3660521910618674,0.07561453429389356
1729842179.4607768,-0.9563220647548679,-2.315536479755668,7.983639863461515,-0.1404366367701661,0.056669859160583085,0.008051651964906542,0.9884337352680957,1.2777796657998364,0.443118596904687,0.1539196862491542
1729842179.4687717,-0.840507303794327,-2.0379111175897284,7.520292071153081,-0.13173243129115184,0.05323428200664323,0.007084736548064507,0.9898295228338078,1.2881381247708905,0.42209941069937784,0.1706787830585063
1729842179.4767594,-0.8555337658215181,-1.826803749411259,7.791752676773879,-0.11472323123206622,0.05287076945394996,0.006114601466886996,0.9919707019876758,1.2475272933926995,0.365216132584141,0.17222043991487695
1729842179.4847503,-0.7668662153034577,-1.5442768004280054,7.921110216904171,-0.09601014322355717,0.047132791755110315,0.004551381021391138,0.9942534069694504,1.1529219344245498,0.2485022937913648,0.19059872654864266
1729842179.4928045,-1.340228259455512,-1.6828943847001627,8.371501939468674,-0.09871649918190992,0.07738128088342336,0.007699849485769979,0.9920725288384944,1.0782797364622545,0.17719692033131296,0.18332102588603472
1729842179.501017,-1.5868014783783853,-1.6118783483493944,8.80406384556597,-0.09005334652549951,0.08726128167879088,0.007920942644063735,0.9920751595352857,1.042008218914118,0.14165042730013638,0.15596714216952023
1729842179.5087414,-1.719661939273125,-1.7689451449959646,9.063600989224348,-0.0958003320230847,0.09149881502793585,0.008843913485186913,0.9911468349477875,1.0402527412739517,0.11393718055949997,0.08719493437978167
1729842179.5167353,-1.8249961735736406,-1.700379510093282,9.387875072294374,-0.08905579425023274,0.09398295170702374,0.008441080716081902,0.9915467807699443,1.0315370335835352,0.09518078220780797,0.03018107743184335
1729842179.5247462,-1.8209196475035592,-2.018849218507141,9.948273535808264,-0.09953124994095877,0.08818724395340721,0.00885639216904775,0.9910792625248702,0.9914010239293988,0.08137280282802059,-0.04021089196119232
1729842179.5327377,-1.5445770619396355,-2.385904865576941,10.291934639063085,-0.11334179422940902,0.07205191382791667,0.00824144279636754,0.9909057664658264,0.9566771666003662,0.09054130772009145,-0.1360830213412297
1729842179.540816,-1.3280144354059689,-2.418672263828586,10.4464165451566,-0.11329172408645695,0.06117438637628148,0.006988894479287606,0.9916520735918223,0.9383969925717187,0.1139213932367393,-0.20893114118188524
1729842179.548749,-1.4295961600228784,-2.780942960347933,10.803425552093959,-0.12537329784924012,0.06318018924443636,0.008000606483821424,0.9900635283502438,0.952118911719328,0.1305035849155002,-0.26881623542183575
1729842179.557016,-1.3612583051445863,-2.3798830894411815,11.037742250201688,-0.10578327861730819,0.05961548699476291,0.006353462864794004,0.9925802361446534,0.9752512153590648,0.1195940869111172,-0.32943731553060396
1729842179.5647404,-1.4912015907527674,-2.1035735621608027,10.809864633568278,-0.09572391428622919,0.06693382877331643,0.006451463736178403,0.9931340158383096,1.00445543975554,0.08027025337591094,-0.42923778275370755
1729842179.5727444,-1.5315785960532229,-1.9820805765054657,10.488305695424168,-0.09300667883947679,0.07088691843539306,0.0066386528599957076,0.9931166753076844,1.0577359395562358,0.06987234516011018,-0.5321127592952348
1729842179.580852,-1.532341622963965,-1.9455766503466387,10.215403997088487,-0.09370025520161589,0.07276225670625862,0.006866496091182323,0.9929142799887584,1.1216309940463056,0.06618774059940191,-0.6129937979859427
1729842179.5887592,-1.3685572052236916,-1.7570378591044675,9.730361115294109,-0.08898564841158871,0.0684398650653638,0.006129024467654118,0.9936598886468543,1.207219623562633,0.01842814128653957,-0.6747188131056904
1729842179.5968175,-1.3813775116107774,-1.7001783233728367,9.281557496813184,-0.09021239986258617,0.07231935031894322,0.006568296204851634,0.9932716103692102,1.2492076199202646,-0.031937811435741446,-0.7019629507639122
1729842179.6047373,-1.4235461993492788,-1.5578446868947957,9.063271821085957,-0.08474759193866194,0.07643621617665884,0.006520527759690431,0.9934449321602724,1.199478966917526,-0.08131343583490148,-0.7055387315149844
1729842179.6130314,-1.206075363652536,-1.4465871270782837,8.749862249145714,-0.08163638628546642,0.06730420360854546,0.0055255714411698385,0.9943717175539125,1.0832266926390905,-0.1420141849611258,-0.6829941764008298
1729842179.6207345,-1.1124635678008967,-1.328357255495017,8.506510447631959,-0.07720977583664461,0.06401333690086237,0.004967564650822544,0.9949453585577007,0.982399953585301,-0.1822658449900187,-0.641371899275843
1729842179.6291509,-1.0254112888738973,-1.035955678980604,8.669351380883862,-0.059325534172681854,0.0583179403159468,0.0034717981055437204,0.9965276942716373,0.8699697226546594,-0.22727565401899397,-0.5402000119991472
1729842179.63673,-1.0126842489102759,-0.732903784585628,8.98397061124516,-0.04062195030525368,0.05586396981588976,0.0022747421057977505,0.9976090915675132,0.7914436424982616,-0.278971563001177,-0.4501242653922497
1729842179.644838,-0.9159837231742904,-0.2635290285638767,9.17609403178616,-0.014336645645162495,0.049700640239217435,0.0007134958366028239,0.9986610024803952,0.7387940236054165,-0.35979484558154445,-0.4126807298251304
1729842179.6527648,-0.6673849555842618,-0.2411962147457479,9.188177992558023,-0.013113003502296888,0.03623042851956861,0.0004754428409132305,0.9992573137798603,0.6654866262464304,-0.4942782075450953,-0.3983027196526374
1729842179.6607933,-0.4423295024032914,0.00037089175802000325,8.95528994250747,2.070141333400513e-05,0.02467398951533399,-5.109420115643323e-07,0.9996955505615636,0.5938323338360066,-0.6183886109923531,-0.3654115800458058
1729842179.668736,-0.2373855420181467,-0.07112467441784424,8.243103495533779,-0.004313607473606516,0.014393894183423446,6.209662048083324e-05,0.9998870959987481,0.4972028106455364,-0.6570968878978971,-0.30481065038135186
1729842179.6767786,-0.014341536392528654,0.10648395877702783,7.893363761138628,0.006744694029857583,0.0009083508678312782,-6.126690558931913e-06,0.999976841713651,0.4141093831049944,-0.6007178125478236,-0.24631420938665383
1729842179.6847355,-0.20061989498004845,0.10650716481699794,7.929883271331613,0.006714544266823446,0.012645152124277961,-8.491513761516987e-05,0.9998974986529681,0.35744228559727675,-0.4170474657031444,-0.16566750821339762
1729842179.692738,-0.6887554111091229,1.5621956978159801,9.084491782867326,0.08498428898734642,0.03714694046796549,-0.003170588841825408,0.9956845498477822,0.36856517360762153,-0.2881148948920075,-0.07556186148616481
1729842179.7009788,-0.46401032186078617,1.990287308826307,10.317388784320006,0.09511444344084102,0.02196353472135123,-0.0020990791922868195,0.9952218042517093,0.4084427312078668,-0.2754602417475541,-0.020221403265439017
1729842179.7087505,0.3632398518054033,3.2503127710379713,12.635384719566613,0.12554512501934115,-0.013806535176276192,0.001747338851230346,0.9919902963120372,0.34212297273806325,-0.43048105333937814,0.0661941293497504
1729842179.716751,0.8069175194816794,2.3895236672614546,12.478330907423562,0.09441121645581124,-0.031566069355235024,0.002995081930574809,0.995028208121269,0.17973237995511604,-0.5175338794340041,0.171254706601618
1729842179.724831,0.9960308266304139,3.305022217934998,12.070218782491247,0.13312597540574256,-0.03934690989263163,0.005289383475935479,0.9903036492796617,-0.033063982370862846,-0.37522521700263123,0.347524609301639
1729842179.7327445,1.1078228697575452,3.513865872264905,11.42504098995373,0.14847026315006118,-0.04567854939839954,0.006865406791325132,0.987837495377959,-0.23310911021499553,-0.2489737736434525,0.5205455806326525
1729842179.7408533,1.176813456961949,3.7016607281929272,10.902183080300363,0.16271070681506605,-0.05022691128172556,0.008293881330035365,0.9853596778858584,-0.405496064481305,-0.18429084922595806,0.642237146012666
1729842179.7489152,1.0570780375560755,3.4623899977067714,10.548006326451702,0.15773552097886426,-0.046852423510984335,0.007492634665575713,0.9863408215512739,-0.594066249333497,-0.1556976560505502,0.8331682322656568
1729842179.7570803,0.8758217700434109,2.960894411221719,10.177961804904225,0.14095242520575524,-0.04079534700898231,0.005813227730240053,0.9891584098992381,-0.7429663254076229,-0.14109588051407765,1.0128574634211422
1729842179.7647357,0.8920453361959684,2.8472236291549065,9.778764169124175,0.14105179672803422,-0.04323003733365877,0.006165253651895715,0.989038696997914,-0.8561450144939722,-0.1157329027951749,1.1743079498586493
1729842179.7727678,0.7334670991785185,2.7751904372585683,9.87227903858388,0.13649964992855515,-0.035358793922343104,0.004875230480787862,0.9899968855453528,-0.9206467074540855,-0.07923061309073166,1.2605359901846027
1729842179.7807481,0.49179501536648607,2.279226988185219,10.41441089727142,0.10749011931818761,-0.022913373782138362,0.002477980351344879,0.9939389876467569,-0.9482797816321407,0.0014159892136946378,1.235648603317009
1729842179.7887619,-0.025506593075030247,2.1169213125400375,11.268569159212461,0.09271478322583528,0.0011075079376582293,-0.00010312661888122589,0.9956920868232583,-0.9099456082103717,0.12131988092197173,1.0670420590086596
1729842179.7967477,-0.356956532749315,1.8014261359126942,11.672127940839976,0.07647990337368822,0.015062627471482104,-0.0011555048735628205,0.9969566722993,-0.8652349110227467,0.24051381276922348,0.8590299269966799
1729842179.8047428,-0.016652282686698393,1.8369445658249601,10.864166361671954,0.08365143977551469,0.0007530108151475075,-6.321201025245752e-05,0.9964947895510732,-0.8179753697599943,0.4014250847846012,0.5822512958475469
1729842179.812947,-0.09259132688740966,1.7806834899832573,9.963756005968017,0.08830837432685376,0.004555923541503159,-0.0004039084388875064,0.996082683035101,-0.7874911946950326,0.5422436143858791,0.43193464943216225
1729842179.8207402,-0.5487603381246332,1.9865864306598762,9.658380975406981,0.1012135369167467,0.027650901046966964,-0.0028141899282087836,0.9944764089465075,-0.7555786076892705,0.6927166916732607,0.335359310661001
1729842179.8287475,-0.848319122796655,2.2537802946752223,9.932687894326222,0.11123235823561613,0.0412787329229839,-0.004624242692441037,0.9929260018093685,-0.7036529207532369,0.7927914094593165,0.05307544500781358
1729842179.83674,-0.8561507144006492,2.1088359014145084,9.90382055153714,0.10460996578381314,0.041930937235337765,-0.004414562463844273,0.9936191741303749,-0.676754409206237,0.868161082343583,-0.20611547735258753
1729842179.8447316,-1.202981086599374,1.8511626870889393,9.873092616566815,0.09236836078704413,0.05930416325201592,-0.005511215207963734,0.9939420147339704,-0.6763658345521322,0.9755336350475996,-0.4067531772838035
1729842179.852732,-1.3495483272525932,1.734865985056098,10.070134004998684,0.08500739514101226,0.06536905384523349,-0.005589169683929093,0.9942179794959267,-0.6846464909889101,1.047193897714864,-0.5309670077956914
1729842179.8608222,-1.567493821791009,1.717999820525846,10.297773853926945,0.08232232305486717,0.07419121208204103,-0.006145564046535986,0.9938213779242212,-0.6972773059572933,1.0097346336988988,-0.6408275812041728
1729842179.8687618,-1.5091191873617145,1.7598342978330856,10.304352613137416,0.08425015321256174,0.07136951495176609,-0.006049996933144788,0.9938670442047661,-0.6993218241393169,0.7842049159719305,-0.7178118668472744
1729842179.8767624,-1.4412938439599974,1.4298748780162576,10.500793682140262,0.06745568578104186,0.06737969582744487,-0.004565991884833764,0.9954340052279297,-0.6958659443724486,0.5812023655632865,-0.7554886370038947
1729842179.8850856,-1.8985925832314672,1.2666151501984262,10.701737121149392,0.05863715011734458,0.08693378405875213,-0.005125876510434205,0.9944736935712991,-0.6673996327016817,0.5028212215872274,-0.7589386463320755
1729842179.8930857,-2.259641926892005,1.1916436494452276,10.197895391586117,0.05777471689080975,0.1079197903824781,-0.006282407599251587,0.992459536851123,-0.616690330843721,0.48686790968832017,-0.761434341990446
1729842179.900779,-2.216021812629344,1.128464816376121,9.672450759121594,0.057660987820175674,0.11145499711189752,-0.0064779487712065065,0.9920741052371571,-0.5662573168402292,0.42919294560376625,-0.7667629699386267
1729842179.9088273,-1.9027849650190125,0.9873674249819225,8.833811496732721,0.055304332394152146,0.1050829841966836,-0.005853058770440948,0.9929072156822037,-0.46150174768227853,0.2515561065017913,-0.7720885970148452
1729842179.91675,-1.622187252204767,0.981478224764544,8.191285402678304,0.05929824582641084,0.09675278460583195,-0.005774669106327264,0.9935236634875086,-0.36629596151639376,0.08495170437445987,-0.7799665639366586
1729842179.9247723,-1.6573357656295007,0.8091534875931014,7.67959531875542,0.05215938636087133,0.10536554609610453,-0.005534269386353123,0.9930492797302087,-0.27894849545305866,-0.07460754550662341,-0.8059778471628483
1729842179.9329464,-1.8472160907253568,0.6688879397238295,7.458293687835282,0.04436732298248276,0.1205119699964879,-0.00539151466879462,0.991705267359466,-0.20440413261903195,-0.1856679376479065,-0.8441461903560498
1729842179.940766,-1.567298112687167,0.5935871571448446,7.700205269097654,0.03825759141336089,0.09986830138339953,-0.0038427880037423877,0.9942574676905379,-0.08858727465445662,-0.3374421852250826,-0.9619760799780037
1729842179.9490297,-1.0553005472998003,0.4588635455076099,7.377046373128514,0.030974549794505108,0.07081517839899695,-0.002200055253165801,0.9970059917223311,0.04645910958944142,-0.6141076005688342,-1.1169606459206582
1729842179.956737,-0.5625513794052707,0.4843319322362066,7.210923774804843,0.03350025833590341,0.03880928663793977,-0.001301834247347784,0.9986840727625901,0.15132558357765402,-0.8690760726206497,-1.2082486252404028
1729842179.9647648,-0.5690501281802718,0.25755917643156767,7.546037237295015,0.017045857686585838,0.037597840571089475,-0.0006414343578458864,0.9991473513361702,0.23552997104368317,-1.1084722383285313,-1.2213037868089704
1729842179.9727683,-0.5547534448280849,0.2036166398921437,7.698981861419978,0.013211255135718912,0.03594214204207429,-0.0004751893930319074,0.9992664306170838,0.28818105383061077,-1.2665833998429694,-1.2240286030125667
1729842179.9807734,0.2621070456519772,1.0405857407712238,7.56880614199847,0.0682499110443046,-0.01710603860628911,0.001170387109709207,0.9975209086929747,0.327859814670546,-1.3686868277964868,-1.2256634927347245
1729842179.9887826,-0.8138239659681886,1.1573007340135155,8.366260257464706,0.0685921057107372,0.04789840996206252,-0.0032970292185893653,0.9964888333321177,0.34400465006819053,-1.1268575608076308,-1.1857781806676642
1729842179.9967778,-0.18854033172935072,1.0547077902616249,8.77841334075812,0.059748210372083506,0.010641315573045346,-0.0006369737877226624,0.9981565548673224,0.3443263699546125,-0.8025444847388018,-1.1533331921981873
1729842180.0052106,-0.40617448224073543,1.0125450574577561,9.739416705626747,0.051761011509819176,0.020699146906198198,-0.0010730780767637352,0.9984443857863478,0.34026250127184543,-0.5172846560060917,-1.1547250121281407
1729842180.0127728,-0.14626068177608187,1.4162883552754348,9.044218802672923,0.07758659652146573,0.007963666603905042,-0.0006197618190318513,0.9969536177524633,0.34080401049241943,-0.3435746183976935,-1.1219305892306122
1729842180.0207686,0.21367357994802275,1.4246208317687765,8.581131389025629,0.08215947638641241,-0.012237791805797859,0.0010089379144504651,0.9965435459305897,0.33814908559452955,-0.1848602679655145,-0.9166530686946494
1729842180.0287511,0.29867130617193866,1.0803062954479847,9.753207466227877,0.05512266807899987,-0.015189950771700884,0.0008386829615385778,0.998363687976629,0.35954339397474533,-0.09601700862813758,-0.6487519354759809
1729842180.0367353,0.5562895451777725,0.9781047660383221,10.247439307617585,0.04754423341266435,-0.02695997330292079,0.001283711168453729,0.9985044105032005,0.35620375666731763,-0.08783419954068679,-0.4509762201975831
1729842180.0447342,0.9373519656320541,0.5411336079140088,11.622566260351801,0.023240998421609663,-0.04017252008216118,0.0009346570412793825,0.9989219944714554,0.30779975758349953,-0.15018354379921733,-0.24759846879960015
1729842180.0527368,1.0467581752288417,1.408295836135124,11.851007378281393,0.05904609455007092,-0.04365236706601889,0.0025844876063833015,0.9972970219506976,0.29578496059168996,-0.14970673488421482,-0.0719348702165944
1729842180.0607433,0.9797631290142582,0.9002835600306838,12.533710607388757,0.035817014976411245,-0.0388711577942962,0.0013941991345078012,0.9986011369604402,0.32518542768233893,0.0012736322223458746,0.10157369876713411
1729842180.0687597,0.5035819789710549,0.8794285112625508,13.009412510673489,0.03373541486117682,-0.019288673011563503,0.0006512034113905673,0.9992444369681096,0.32366965517093693,0.20424402871225864,0.1877998575759659
1729842180.0768583,-0.18961983361346077,0.7766540794137805,12.759490161433387,0.030391316459929544,0.007412776397623094,-0.00022539434942412783,0.9995105641399187,0.30530689914415243,0.35029060010954216,0.2105886286818468
1729842180.0849843,-0.30602629347862337,0.8933574439861589,11.743075171078782,0.03795205184626646,0.012979884242686153,-0.0004930100454039076,0.9991951367509752,0.338561011920133,0.474953578295109,0.16083407218753262
1729842180.093112,-0.317691069055924,1.119720831137789,10.90553759898516,0.051130100485621395,0.014465900499212606,-0.0007406895756102065,0.998586952611554,0.394697134809994,0.5672046577263923,0.115656496078311
1729842180.1007853,-0.26507431306441376,1.0395818736826734,9.896880824771955,0.05230008428553955,0.013296768126792686,-0.0006964370503903237,0.9985426441151838,0.4522174519857844,0.6472453289499602,0.09876651188786678
1729842180.1088088,-0.45760153486013266,0.8397061139556978,8.698643009023328,0.04808172737838893,0.02612419456818057,-0.0012579822145457624,0.9985009220983334,0.48162136155371427,0.6820733397787779,0.04478644504301099
1729842180.1167672,-0.6413526152520171,0.6503488099749811,7.703648868158137,0.04206065065844344,0.04133575312779442,-0.0017416424480246706,0.9982580948137258,0.5026692277861684,0.6931792748624419,-0.03272474157887784
1729842180.1247666,-0.7824884649031635,0.29994788339709805,6.649359866549178,0.022497332127118633,0.058462820259884356,-0.0013178468086774147,0.9980351857395667,0.5587183337947681,0.6785583328395386,-0.1690520565204998
1729842180.1329386,-0.9919078811879919,-0.23303105633869428,6.209280279060366,-0.01869374032541906,0.07905250258313282,0.0014826886362960304,0.9966940591487427,0.6281057625627386,0.6489269546141571,-0.28873486095559375
1729842180.1407318,-1.1922586227557639,-1.0706842392719667,7.444242185990906,-0.07113369967524995,0.07832835726205231,0.005603328152608644,0.9943707899635597,0.7697753842670984,0.5472871855709079,-0.43802013480273994
1729842180.1487334,-1.1779149343956459,-1.5450245694420863,9.443132882395325,-0.08084145922813618,0.06100300517167889,0.004957120568449412,0.9948460779364613,0.9944034974492606,0.36370458644389336,-0.6123036213419719
1729842180.1567328,-1.3122425604909032,-1.9517330522121266,10.77845795453485,-0.08928299987647685,0.0593410845307363,0.00532893689155734,0.9942227034479643,1.1921824944549386,0.22120258229657025,-0.7509289181824736
1729842180.1647651,-1.7069583939605575,-2.124410932401495,11.817397222672083,-0.08858743554374908,0.07027221210903824,0.006265543058785091,0.993566719168503,1.3768318521849603,0.12463343821016354,-0.9115796874728643
1729842180.1727896,-1.8966221213372718,-2.470310868522928,12.257125516220436,-0.09898194844496053,0.07482692749645299,0.0074644104318307225,0.9922438144833078,1.4795333556551946,0.07478006292609812,-1.0420253539640614
1729842180.1807737,-2.002519492284785,-2.663246200068835,12.343312729165856,-0.10571228070336523,0.07811406478140244,0.008330180849451354,0.9912889158458472,1.4479281342771504,0.07807186254969734,-1.0785751278355005
1729842180.1887846,-1.7584030015232146,-2.24701579010966,11.456976846483887,-0.09640186611610352,0.07432366552021082,0.007218810891525423,0.9925374359298923,1.32552231651505,0.06855331066438201,-0.9685410731051342
1729842180.1967664,-1.7077011734725225,-1.3798129359798588,10.813844939677443,-0.06321390075858789,0.07745830699274195,0.004921158819837495,0.9949773844789496,1.2026987787281942,0.07263305094681954,-0.8399442012319958
1729842180.204773,-1.73186787449367,-1.2629142032383058,10.588377306824043,-0.0591216108467484,0.08027454470059872,0.004769778408743907,0.9950064732542843,1.0140683394613321,0.08444607646844676,-0.741075884973549
1729842180.212776,-1.369281133631749,-1.1068231239937647,10.512472928283879,-0.05231293319580834,0.06427681083261678,0.003374134782624162,0.9965542954722073,0.8515100287716193,0.050667645881068056,-0.708573369090589
1729842180.2207355,-1.0648195688509243,-0.9420606871403996,10.307955310925406,-0.04549121155365671,0.05118009750012678,0.002333728696373716,0.9976500894610443,0.6739453108029296,-0.05984570550130987,-0.5915888354860077
1729842180.228733,-0.9269142010273514,-0.31025393547759905,9.789004365754462,-0.015822760697011027,0.047156950060538744,0.0007470781041480446,0.9987618856260081,0.5380338657808357,-0.11593715485564786,-0.3089787746537052
1729842180.2367315,-0.9322776014269577,-0.044176202839293806,9.518335226874552,-0.002317690148910631,0.04879697523192113,0.00011323146460606197,0.9988060225585468,0.44073646649348414,-0.13469287231707955,-0.05640317616922755
1729842180.244728,-1.0741199177897682,-0.17350970363717005,9.248194668839574,-0.009363199632447845,0.05776804033132748,0.0005418223904267075,0.9982859762800529,0.34234316114364227,-0.1540344139617172,0.1781517449065552
1729842180.252734,-1.1199604003808923,-0.11464030948698951,8.866322621616243,-0.006451258581094897,0.06277756153277751,0.00040580320643958894,0.9980066103761417,0.254785943815781,-0.18436970165282912,0.33761506025635424
1729842180.2607365,-0.9518584143008009,0.11245687998163442,8.852438122530293,0.0063418900238343635,0.0535257711901622,-0.00033994874745074693,0.9985462716791211,0.12775585266320874,-0.24216004998346524,0.5099172605293993
1729842180.2687607,-0.6604187705043086,0.09213440508859003,8.67890750852794,0.005303745550824301,0.03796237166703476,-0.0002014908406948637,0.9992650739528461,-0.002950529895474674,-0.31386929432904365,0.7086531544607215
1729842180.2768972,-0.48890686655063204,-0.012714684095283481,8.343030419423405,-0.0007616542913353492,0.029262625887401267,2.2297559817825895e-05,0.9995714672357016,-0.10478731281109645,-0.3649829521041693,0.8496048839540784
1729842180.284771,-0.32566584234248863,-0.1091429608477951,8.25067976166381,-0.006612408021480817,0.019722023855137154,0.00013043829206386634,0.9997836270018963,-0.19951889741597004,-0.33860867853333243,0.9592916352763524
1729842180.2927632,-0.4671413938332275,-0.1387483473094583,8.332457122135004,-0.008321517224988542,0.02799361714330798,0.0002330487772936781,0.9995734367411808,-0.2635945792237487,-0.2755325175685448,1.0365973177291916
1729842180.3007772,-0.47110270861438963,0.28210616495416874,8.17921349813452,0.017230214980446832,0.028741705806714205,-0.0004955041261023327,0.9994382364682216,-0.2820325554197004,-0.18788108379861454,1.082555037139433
1729842180.3087637,-0.6384399918678525,1.11880407739047,10.19943202832407,0.05457340595627361,0.03101981030950785,-0.001696204378510344,0.9980263712053907,-0.2496749548681442,-0.16168300734730234,1.0624523819018306
1729842180.3167336,-0.17644439184922708,0.8233142518542038,12.519360254592097,0.0328276192367297,0.007027361207437382,-0.0002308216529800998,0.9994362962845972,-0.2647412895156351,-0.17959367633201553,0.9784491683721857
1729842180.3247292,0.15701670717562005,1.6297978186906474,11.609531714278695,0.06967835975800953,-0.0066800114114320235,0.00046659678415615814,0.997547034438185,-0.3712641143789348,-0.19417128827600172,0.8484431987609988
1729842180.332729,0.14400941883662202,2.3701069565952477,11.369134721926592,0.10257966588458554,-0.006166994771463458,0.0006359754530663133,0.9947054719150381,-0.45348248193978197,-0.13523313566993042,0.7870415293913059
1729842180.340736,-0.07999136407888616,2.845656481086055,12.444981692530956,0.11216009481779339,0.0031131262675400655,-0.0003513874751911046,0.9936852107695616,-0.5713496023716774,0.0018696805831379115,0.867690984733011
1729842180.3487294,-0.4229267984278005,3.3316202949016325,12.036322883926776,0.13458821452681258,0.016770791062674702,-0.002278208154064893,0.990757065503559,-0.6969838925594167,0.08881396101106126,0.9697176056822499
1729842180.356725,-0.6885431005410554,3.637563793151917,12.029350663949813,0.14624034542219397,0.027069042527378705,-0.004003138784407571,0.9888705694818312,-0.7842837883929972,0.15502830129606232,0.9815535311221977
1729842180.3647356,-0.7463987314183832,3.2642385859497436,10.925510509453872,0.1445752689334143,0.03233285809993454,-0.00472674272554944,0.9889541120816107,-0.9120108667719251,0.23988005198203827,0.7843238568843911
1729842180.3727643,-0.8816685796713425,3.05939707490969,9.9888309065024,0.1479220350415106,0.04162182053862491,-0.006230912513307507,0.9881031683652675,-0.9992893653358326,0.31888664645011794,0.5416845543947939
1729842180.3807948,-0.7250862637696024,2.230202678539564,9.508704841508862,0.1148528824748576,0.036798241963754884,-0.004257499744097225,0.9926915827544437,-1.011215908635284,0.42844135210442236,0.21177717628797593
1729842180.3887942,-0.7747889738379332,1.7990054267038165,9.827080483030317,0.09033657573601041,0.03853115681438735,-0.0034977034190709693,0.9951594943071334,-0.9792083489604481,0.5427028425036766,0.03086035188236641
1729842180.3967798,-0.8577618767344006,1.2450820109051024,10.141646673607251,0.06098532589867462,0.04178546236364408,-0.0025553006311196595,0.9972603649994185,-0.9370165498365968,0.6201992280339319,-0.04235746765965068
1729842180.4047666,-1.2872660017730622,1.1803997070313426,9.965510054945602,0.05879076988847947,0.0636353812931478,-0.0037553195527353514,0.9962329452485761,-0.8529562418805257,0.6764879307657117,-0.16206099032510257
1729842180.4127393,-1.4566224355364936,1.075031518554743,9.637406749520096,0.05535527095825159,0.07436424998529848,-0.0041342925955938125,0.9956850204386911,-0.7825126242181675,0.7132409828350139,-0.3024192038197608
1729842180.4207284,-1.3813047931090054,1.126253444824252,9.379732044096823,0.05955128448889937,0.07239975415920678,-0.004330610010094981,0.9955868449966326,-0.7291785120227398,0.7421038550599877,-0.4824143957455128
1729842180.428724,-1.4069825767931374,1.2292914907226764,9.378116706926843,0.06493809912909791,0.07361278917990542,-0.004803529230786988,0.9951588449376226,-0.6899413136606285,0.7538876075959655,-0.6146758444042999
1729842180.4367309,-1.625896388116898,1.4850446527343868,9.431017041978372,0.07772275942462789,0.0839844804458918,-0.00657080993145303,0.9934095853012995,-0.6774669362413747,0.7664918299165586,-0.6863702924932555
1729842180.4447296,-1.604973449325217,1.618145835830085,9.579115443692881,0.08328332686612695,0.08148745747606582,-0.006833250893368266,0.9931651365318984,-0.7385184096852094,0.8327995917906749,-0.7200217799944642
1729842180.4527361,-1.7245796176908335,1.6477283108242227,9.754165744487214,0.08325150771078181,0.08589140721726372,-0.0072024901114134,0.9927940253478135,-0.8036705278694665,0.9108963544467273,-0.7261649004669424
1729842180.4607372,-2.355868246688719,1.565400166426174,10.10388333463178,0.07626656058799679,0.1126563984772557,-0.008672879176959889,0.9906647913320595,-0.8431874888414826,1.0011747983094863,-0.6928157374032325
1729842180.4687614,-2.187566344741747,1.6814426145041417,10.441564257370866,0.0793152653537721,0.10148152701211656,-0.008116912857606226,0.9916373853797626,-0.849444372904749,0.8923025710871835,-0.6536501867992152
1729842180.4767635,-1.7660016012786417,1.6931284031751412,10.094703530008458,0.0826782367420511,0.08502755983994444,-0.007080075733056946,0.992917164603626,-0.8638407548792597,0.683095993979635,-0.6161030844085578
1729842180.4847639,-1.4002958570074195,1.2122015780378972,9.850195228356638,0.061029475534711754,0.06989622694767349,-0.004284253314703289,0.9956764362723328,-0.8754584144942004,0.4524266025339842,-0.4909835181618136
1729842180.492767,-1.649417675337264,1.0277932551723477,10.755263036672185,0.047476189061781165,0.07558873553099646,-0.0036030712842356387,0.9960016929756274,-0.859867437005677,0.358722424120107,-0.3516325791330004
1729842180.5008008,-2.293532829323452,0.9743696811307522,10.16847995823378,0.0474444487931634,0.1100810668582908,-0.005260740930020271,0.9927756582445606,-0.8070924642434358,0.34549461327944586,-0.18841797422231255
1729842180.508778,-2.182007976402665,0.9516529231804045,8.99424126107308,0.05229907109785139,0.11792502986367569,-0.006219458514075786,0.991624834718123,-0.7128510415511724,0.26987320700258616,-0.06154228709648169
1729842180.5167558,-2.080377140577927,0.7191928366719145,8.697670005667286,0.04094485095408189,0.11663761950323208,-0.00481267849341394,0.9923185088582629,-0.6179940824042316,0.16660651487763403,0.035867628252118394
1729842180.5247874,-1.5475014918662873,0.5825898267590081,7.796438930890606,0.03709950459986862,0.0974820873562181,-0.0036363958285569207,0.9945389112691856,-0.5142540001552436,-0.027743109512029074,0.15646432643473507
1729842180.5327587,-1.2840398416529755,0.4216193660261079,7.582987652967956,0.027666913392757536,0.0836132309474151,-0.002322350647735668,0.9961114276030171,-0.4400906290849139,-0.1937329312754226,0.25393805897056493
1729842180.541418,-1.5485394445425664,0.1275154526234772,8.123617409896008,0.0078115255947524475,0.09402771544061643,-0.0007377914439251653,0.9955386604550756,-0.37473379343107655,-0.3337673801723517,0.3217874798442275
1729842180.5487328,-1.4105976205829618,0.4095427225018206,8.08072472938487,0.025218293430575207,0.08616764863290266,-0.0021818176806910027,0.995959042168469,-0.29933603681450144,-0.5025003717414535,0.28885275173549363
1729842180.5570443,-1.0347822430040738,0.3182699438038268,7.608231091293031,0.020852878599707792,0.06746499992868918,-0.0014103615451617776,0.9975027028128995,-0.22259631829636606,-0.6778102373773081,0.23631378013767684
1729842180.5647361,-0.7118490088883818,0.3212065365947961,7.346043303213318,0.021820445471055328,0.04822432409634013,-0.0010537540159992224,0.9985976028047382,-0.09652275563062289,-0.9515694210977854,0.24608233314080386
1729842180.572776,-0.7639735789170135,0.38018991194711205,7.4729223674260385,0.025378981202362347,0.05083544232701336,-0.001292240394508313,0.9983836913888917,0.01275089682432351,-1.1788270604264524,0.2834445294908704
1729842180.580767,-0.5201545501822393,0.5029682977542047,7.841142408492733,0.03200483914834121,0.03302906982752043,-0.0010582104314234648,0.9989412650441969,0.09108579014115231,-1.3815892936117293,0.274786472814182
1729842180.5888913,0.08127460265432826,0.4837403048243978,7.77357313308392,0.031068901163813646,-0.005214797643909896,0.0001620984936923831,0.9995036283026113,0.1385124161927116,-1.5138888850594463,0.242773164936061
1729842180.5967803,0.8465127547566594,0.272766510775498,7.568549913785899,0.01798195298973393,-0.055618006810332236,0.001001833841395796,0.9982896789079185,0.15760321047148249,-1.4298036563266563,0.1456638989616366
1729842180.6047726,0.0032099428930581556,0.7768149516313144,9.007991985625054,0.04299842516933812,-0.00017734892955318887,7.632784053027878e-06,0.9990751242634633,0.15458422494903595,-0.9885690426648375,-0.030517807648000814
1729842180.6131623,-0.10940441146143072,0.13449204104714804,10.074685529509798,0.006674203013830508,0.005428824111061303,-3.6234415275682717e-05,0.9999629901001179,0.14213058209901724,-0.600803846705219,-0.1881610191121511
1729842180.6207817,0.14025869589657908,0.676851438007195,8.847463781084786,0.03816628170677782,-0.007896899068196461,0.0003016244629533167,0.9992401527903435,0.11805648399198679,-0.34175194531880204,-0.30275437887935674
1729842180.6289258,0.5787972805262287,0.8765714890250201,7.916242716893059,0.05507509388236395,-0.03620866635353276,0.0019985455981866265,0.9978234675182978,0.1117001362955471,-0.17738131319624917,-0.3259615581632428
1729842180.6367338,0.7006625333547998,1.0574556619696995,8.782299486337006,0.05983087887434107,-0.03944084799126099,0.002365869799059439,0.9974262319103845,0.1483268835165763,-0.08642135502903402,-0.27220114596111133
1729842180.6448457,1.2100052275324111,1.300061458705257,10.494485394927203,0.06148331605835566,-0.05682563070224299,0.0035061593979803405,0.9964829935267518,0.21202055787247293,-0.19488467366866302,-0.2961359867528206
1729842180.6527362,1.6049145659628061,1.137730603250498,11.830409534075462,0.04780697876521614,-0.06698517838021754,0.00321327511840121,0.9966028062983397,0.26854143512887824,-0.27443612694214947,-0.3305043241165617
1729842180.6607392,1.062308108474168,0.5825607325557675,12.466524682847622,0.023324010564608342,-0.042433315672439575,0.0009908778757473176,0.9988265226821225,0.32544122480167115,-0.11698438928154214,-0.3809236308371486
1729842180.6687324,0.5155200005825477,0.27627386873267923,12.83478624281404,0.010758575585652068,-0.02006497953628002,0.0002159265740624938,0.9997407679110076,0.3595810986053469,0.08944313947933659,-0.4375679986801467
1729842180.6767683,-0.07902750892781517,0.2553074633294513,13.276488571860298,0.009613644858135071,0.0029754930989239732,-2.860678256561669e-05,0.9999493604453237,0.37495674215000796,0.27715316595516853,-0.491987742336123
1729842180.6850145,0.12161413185034217,0.1323549235543114,12.069075948291959,0.005482905606046148,-0.005037683202488357,2.7621907179812802e-05,0.9999722789813209,0.4344135555293243,0.40340126380745267,-0.4488667575894672
1729842180.6928115,0.018620101424658416,0.25730213748219616,11.373598214238848,0.011309203899418517,-0.0008183043285302818,9.254965467526428e-06,0.9999357140334237,0.48966938638416757,0.5025630758992349,-0.38383068108696683
1729842180.7007644,0.029128573305966927,0.2724154243350208,10.41402489778159,0.013075889445176903,-0.0013979243386630534,1.828068484402033e-05,0.9999135295557199,0.5602836103057323,0.6033520991161214,-0.3086253799611939
1729842180.7087827,0.07038900067303328,0.10335479293109061,9.691276925973641,0.0053320979879348815,-0.0036312348678397286,1.9362503046306466e-05,0.9999791910282309,0.6209568173015385,0.6795760453203484,-0.27584721106812904
1729842180.7167783,-0.30013743699852374,-0.10175051779603314,8.926270633123247,-0.005698383097012995,0.01680354255013258,9.576809982833356e-05,0.9998425677156962,0.6760911042033517,0.7355269745179733,-0.2744849823751575
1729842180.7247674,-0.581111240275286,-0.311244384163948,8.163203246573167,-0.019040988679226684,0.035493774563309766,0.0006763856101511809,0.9991882581475189,0.7338616999092373,0.7559011401312254,-0.24429503091849442
1729842180.7327754,-0.7484984214112653,-0.6081261226858687,7.663703705756399,-0.03953395272502892,0.04847095492947224,0.0019200115623190922,0.9980400526360457,0.7923627007746425,0.7540778674709296,-0.2159644985694078
1729842180.7412906,-1.3428545325830872,-1.1559199021271462,7.620422979069073,-0.07490776296646612,0.08589602996842752,0.006476617032509247,0.9934630101391984,0.8653497167640065,0.739361821907967,-0.1755532257795441
1729842180.7487373,-1.8091226353213365,-1.5700691690594908,8.26315506673832,-0.09319993598614136,0.10526774749913105,0.00990987456631488,0.9900173067450478,0.9342576399838848,0.7275523641399553,-0.14236697081492322
1729842180.757143,-2.142753034317802,-2.0996380041212412,9.583730067630883,-0.10698187022050788,0.10668294112402904,0.01154646185943215,0.9884534934612644,1.0283879615371037,0.6979051162216605,-0.12032676752884053
1729842180.764739,-2.6587264726902906,-2.355130061994229,10.732332275197669,-0.10700907167557068,0.11773653533767221,0.01276249294007862,0.9871799661661333,1.125306710307928,0.6813938376550698,-0.14243492065853952
1729842180.7727785,-2.943171418282143,-2.3508868274797408,11.689883605841256,-0.09831133853424832,0.12010760721924048,0.011953669647964278,0.9878087634687295,1.1966543514757455,0.6595677487941785,-0.1867751870230872
1729842180.7807825,-2.59477546571538,-2.146988527151907,11.436020629813347,-0.09207628270510715,0.1090138943220041,0.01014190730941379,0.9897146410577583,1.2224353337179548,0.5506918316486866,-0.255948352988019
1729842180.788766,-2.2356214500835248,-2.1422048484688783,11.196075063434884,-0.09392414970015525,0.09624899211163515,0.009123365191434736,0.9908739323587945,1.2034230280848557,0.44194589509226423,-0.283830170600193
1729842180.7967863,-2.322037870050115,-1.854185223534452,10.913722867650774,-0.08357749166332575,0.10283093314799437,0.008671147582848293,0.9911434877326167,1.1128372932730584,0.3596707306999295,-0.2252121202887179
1729842180.804773,-2.2539382188562405,-1.553044239589421,10.563549324838512,-0.07251151632297882,0.10355901163670751,0.007570178063377541,0.9919477322487609,0.9754762904008838,0.28391284825388274,-0.16662833672142108
1729842180.8131263,-2.031358522134057,-1.1860907600622463,10.042198983330842,-0.05844893208778653,0.09879051952525252,0.005812719942936345,0.9933732268772866,0.8607072440064647,0.21845068589753922,-0.14339738830197987
1729842180.8207736,-2.011774703124184,-1.0920930998361758,9.94271214634616,-0.054392694888513886,0.09892855117076951,0.005415693762944209,0.9935920927458528,0.7769466640186421,0.13107041153852353,-0.12009363789815045
1729842180.8287451,-1.869301001073729,-0.9638684538958462,9.647191180629962,-0.049535346612893306,0.09497289138739627,0.004731792032337855,0.9942353893729698,0.7266903160259486,0.03947876126860721,-0.07205618273889026
1729842180.8367362,-2.057713449765331,-0.9060872796128983,9.388715164920946,-0.04779809209460186,0.10706474475524208,0.005153103194274491,0.9930890837936344,0.6514133607153572,-0.07890404805118531,0.028707910743749177
1729842180.844735,-2.064458365269355,-0.7134012654728171,9.66027629133538,-0.03663798000379243,0.10472799742627774,0.0038608891630300094,0.9938182925018003,0.5236633156053682,-0.17079254665470034,0.07596997492800987
1729842180.852737,-1.8549425264858317,-0.437138725592284,9.746359093893025,-0.022306004589123327,0.09378225221674473,0.0021017000049178324,0.9953406020983542,0.4087011830077919,-0.24039910790651842,0.10262445319271815
1729842180.8609653,-1.4598853364481397,-0.2756907646522454,9.221485015661985,-0.01489542773958697,0.07838145550468453,0.0011712599068278097,0.9968114675381963,0.2733162538611692,-0.29919064711609056,0.18843031023131634
1729842180.8687596,-1.092127611780993,-0.2918283064475973,8.568738714475316,-0.016985739135807955,0.06329781911367298,0.0010774773123160036,0.9978495426686853,0.1665438926854737,-0.33318850045744774,0.28333421072360243
1729842180.8768802,-0.995492622976799,-0.041739951397855204,8.426806166917611,-0.0024721430264673192,0.058759762060783496,0.00014551440969992716,0.9982690808078618,0.07097941143186608,-0.36848636461343315,0.40157591986950664
1729842180.885054,-0.8800507898505325,0.14111362437613062,7.987304792679864,0.00881876228153419,0.0548311298550724,-0.00048429016295564373,0.9984565799741499,-0.0306310437123498,-0.452241522141943,0.551273606727525
1729842180.8927674,-0.8725560928068039,0.14093191363935023,7.5220121883520585,0.009350499210805217,0.05769746885061868,-0.000540424166433282,0.9982901773504841,-0.1073478490729745,-0.5212249793633783,0.6734446635134504
1729842180.9008768,-0.7445184689165042,0.1300489797265789,7.65032974831397,0.008488250895663012,0.04847876710940194,-0.0004119992566760743,0.9987880600972847,-0.16231742358005197,-0.5660205741879358,0.7480243677693919
1729842180.908768,-0.2987494187522462,-0.4958607501035058,7.1874278099258815,-0.034425938502550484,0.020707852196475245,0.0007134634113078498,0.9991924392155839,-0.18465691674774765,-0.5856612000378159,0.7931978803844186
1729842180.916743,-0.3056634989075977,0.18922474744766216,8.301196651775841,0.01139321221765153,0.018395488387499322,-0.00020963278835905543,0.9997658509753387,-0.13293003324467423,-0.5489169085410722,0.8752160058820369
1729842180.9253385,0.18411185548942574,0.0742699412420348,12.04265520786238,0.003083482190145424,-0.007643303817840131,2.3568791706240346e-05,0.9999660351676167,-0.16447034217774884,-0.4928151287260635,0.8107676347702453
1729842180.9327407,0.8222632668581086,0.5260359186026428,12.875190782188131,0.020404725236834814,-0.03185023354748689,0.000650360833398482,0.9992841371911024,-0.2446938963881261,-0.45574854034536194,0.7282525357725811
1729842180.940775,0.8065195372633026,1.2895827865131482,12.478323025221083,0.0514397972645731,-0.032053387280106135,0.0016518588215079912,0.998160207072835,-0.3366741052449418,-0.3032474285095594,0.7340831843640467
1729842180.9487395,0.6646739476997785,2.369245658236014,13.038668624702963,0.08972373383150221,-0.024953180504310297,0.0022486708434303385,0.9956515122518977,-0.4152751839394429,-0.1185206379478929,0.8235709659342565
1729842180.957246,0.12634421969408582,2.7225565770705145,13.140483641862794,0.10197021808381573,-0.004682770533114256,0.00048001055668686285,0.9947763144918251,-0.5394857322807713,0.0766020685585892,1.0300863669412517
1729842180.9647822,-0.5593751686230016,2.798073633742309,12.988488704404784,0.10586892846806041,0.02091831770360075,-0.002227614610438017,0.9941575487329075,-0.6991500735779747,0.24050159922330194,1.1063183206617013
1729842180.972741,-0.36746798325387914,2.789274910225854,11.957567590318652,0.11431940191246118,0.014860670263953915,-0.001710267995673356,0.9933314199244209,-0.8690187490506902,0.36906531198593384,1.0456349775284632
1729842180.9807992,-0.7800057179308431,2.3992474693288717,9.872566405021267,0.11882716160382313,0.0380301200931775,-0.00455464711603814,0.9921759273538769,-1.0782138498227514,0.5066515283711215,0.7853119993194917
1729842180.9888027,-0.5223518084440527,1.8767297047418543,8.681181315180728,0.10620499591502613,0.02920169359263102,-0.003120367317749981,0.9939104704357499,-1.215650232006925,0.6096363811524116,0.5469600305319366
1729842180.9967427,-0.9129191807695567,1.5071947271419874,8.880217034958045,0.08385106561693491,0.05030493825079268,-0.004238472868878255,0.9951986974118425,-1.280658768797486,0.6803667841118883,0.3217906673972315
1729842181.0047376,-1.3129383590476715,1.3474835635801146,9.640805671414281,0.06921665568223505,0.06682117804622331,-0.0046467440354933795,0.9953503868038382,-1.2434653698701188,0.6819387799872193,0.22329839480214314
1729842181.0127404,-1.6242970754871968,1.3431153688609592,9.921185031266537,0.06700334457613434,0.08015098544339247,-0.005400010958493643,0.994513555075904,-1.1632554821548622,0.656489193701772,0.13738455737298214
1729842181.0207436,-2.0476594293743493,1.049598950320482,9.917748388144688,0.052413576389950985,0.10093837882564587,-0.0053251720570289,0.9934968058492328,-1.0112611745289726,0.633557020824187,-0.06613509702645977
1729842181.028744,-2.258341791657813,1.214662835768461,9.718404185474704,0.061715577112874107,0.11285074035054417,-0.007023161474237721,0.9916685802962932,-0.8872864552208624,0.6274601382039525,-0.270830761589759
1729842181.0367584,-2.0131711113716406,1.3340518811485766,9.422823841851228,0.0698659854285866,0.10378713742271575,-0.007308815550287525,0.9921156965802641,-0.782677629272192,0.612308376972337,-0.4953880850171641
1729842181.0447397,-2.189285927321031,1.6621043061793805,9.381705710140032,0.08697934709573847,0.11225664716882784,-0.009864469552459986,0.9898160084508943,-0.697776450506964,0.6232247531220831,-0.6011755548941891
1729842181.052768,-2.5674149658164467,1.6920599054849719,9.207876067685582,0.08989689123286368,0.13287886013999212,-0.012103065707277602,0.9869727824388312,-0.6519440239853718,0.6714922048352099,-0.6403837033170682
1729842181.0612051,-2.907777547605102,1.7780285922167645,10.113213122300804,0.08604644732971319,0.1370199030961853,-0.01194837225789667,0.986751636156654,-0.6691420245259296,0.7357849509644345,-0.6460296097893903
1729842181.0687487,-2.719106604246655,1.6160470161699025,10.7141156150797,0.07419471895398104,0.12228311698909772,-0.009167408806172493,0.989675674953442,-0.6845691055878087,0.6922024167797973,-0.6379235220133088
1729842181.0767705,-2.161061369774555,1.5416029863132696,10.560143173979462,0.07204026812113598,0.09946980107039886,-0.007220686308329043,0.99240305326681,-0.6593444592465116,0.4570390760911575,-0.5747403309273615
1729842181.085058,-2.326382955897936,1.2879227634676493,10.897040066985332,0.05845464600011543,0.10408906818391678,-0.006128431867193814,0.9928297752225476,-0.6020663553569923,0.35340179708663233,-0.4682943163804061
1729842181.093166,-2.5764106121618084,1.2616496370844956,11.06877184170487,0.056335139228448926,0.11320860728968467,-0.006429366008796484,0.9919520283644598,-0.5676994930232807,0.3274030849081899,-0.3788853039645109
1729842181.1007946,-2.5485380225705225,1.0814041072018692,10.853621505901828,0.049293382859634055,0.11437470677401476,-0.005682250764026319,0.9921977125970742,-0.5730464693722377,0.25007879868912997,-0.22179721157970012
1729842181.1087735,-2.29383082379622,0.9009518991355747,10.371865399878986,0.04304536327170589,0.1081183169354066,-0.004685881395630437,0.9931946278345488,-0.591579497394245,0.15004727921347796,-0.04112927367202124
1729842181.116794,-1.9056564813382788,0.7725692803504854,8.783957335630518,0.04359095265029017,0.1061170437060065,-0.004656537679769101,0.9933867920095246,-0.6137672558054622,0.04235108064433924,0.23158785279693025
1729842181.124776,-1.6160092965178108,0.6514863985325569,7.987793285655654,0.04046944829359646,0.09923993038607021,-0.0040394848322238604,0.9942320365659468,-0.592599015873768,-0.05291632292241026,0.49780943349065077
1729842181.1327767,-1.5322429680474052,0.4227347211996123,7.964274910602376,0.026387274860540367,0.09472750163102345,-0.002511782032509711,0.9951502917204014,-0.5492483874894851,-0.14540904016380862,0.6715901539351301
1729842181.14075,-1.3799901802425054,0.3154112355517987,7.677224896312597,0.020444738996257948,0.08871700941328212,-0.0018213632044713284,0.9958453632588826,-0.4955681564638834,-0.3230777181482507,0.7958660190905332
1729842181.1487656,-1.5804916899326127,0.16099516174123543,8.234986973920371,0.009728001767718776,0.09464503501263448,-0.0009249032407854367,0.9954631223119517,-0.4574003569880539,-0.47352500126950514,0.8763911990442435
1729842181.157114,-1.3967289849068332,0.6149417564685694,8.08290302297527,0.03781372910224743,0.08514871581199925,-0.003233873351502253,0.9956451979244895,-0.3787342792510301,-0.6595736349712149,0.8642583182888612
1729842181.1647713,-1.2982029500261312,0.7446152943596572,7.669393108951177,0.048198825384533885,0.08326107003548218,-0.004031820395189231,0.9953533100725585,-0.23745712902570681,-0.9440329801458256,0.8020645719070298
1729842181.1727514,-1.2596774633750538,0.4206723785200912,7.385134715468362,0.028341220873387588,0.08420356815436013,-0.0023959135925521926,0.9960425663130753,-0.11139890292869578,-1.2024007399117707,0.7690052246925512
1729842181.180748,-0.8491803427711261,0.5696351470827579,7.297179636654064,0.03887480135624905,0.05767497865719982,-0.002247552058775994,0.9975757089896219,0.007656418998638059,-1.4855541042714093,0.7670485989452693
1729842181.1893675,-0.4190073829087693,0.37410281066176404,7.560201788340094,0.02470907984632886,0.027637336451492404,-0.0006833630680209174,0.9993123495794155,0.08377220283112072,-1.6843930470666106,0.7637461731895901
1729842181.1967425,-0.023715851864402202,0.5589316583208865,7.958871766363432,0.03504897369729247,0.001485321800948411,-5.2091067262069246e-05,0.9993844908484596,0.14519220540470548,-1.7245180613117934,0.6936543079022576
1729842181.204773,0.8615694561665149,1.1129956942112817,8.269181542484075,0.0667538844643041,-0.051309609782537735,0.0034373410482155323,0.9964433890289043,0.19949749946879963,-1.6013043085930403,0.5732722174208442
1729842181.2128727,0.20880792003779952,0.5389893672103628,10.454286374220912,0.025751407875534548,-0.009968671808467574,0.0002568052690786004,0.999618639595049,0.22271549455509143,-1.1668165749034474,0.3550312720505194
1729842181.2207427,0.29479422956174217,0.6863545920059052,10.459072847481767,0.032755238371598494,-0.014050790523142861,0.00046052964711326884,0.999364526865617,0.22813249037762587,-0.7034954654337647,0.1815176986821213
1729842181.2291484,0.706952785295639,0.9306362549594024,8.776666182854294,0.05275185747158015,-0.039898358736017124,0.002109336083572995,0.9978080542893791,0.23904510897746312,-0.4144348581539422,0.06165902238698727
1729842181.2367425,0.4069334192242584,0.43795340946978206,8.72873357079656,0.025056183530219774,-0.023254499327222563,0.0005830098497761808,0.999415367115923,0.27922219499286594,-0.24397832421628296,-0.04431138830705567
1729842181.2449894,0.6703279470423674,0.300600431912338,9.290862973288483,0.01615996712001644,-0.03598093323300089,0.0005819036274956627,0.9992216417264643,0.3280184701669055,-0.15447510569754838,-0.12492123718196271
1729842181.2527485,0.7273293536746391,0.3022251236493559,10.91502400711762,0.0138325172314385,-0.03324660298149989,0.0004601827079049919,0.9993513461686575,0.39390558055706393,-0.1918708477391824,-0.23458651535743952
1729842181.2612114,0.9015909947731429,0.2852434262403948,11.562233260471743,0.012322618180686641,-0.038885329228552576,0.0004795682668080622,0.9991675806721502,0.45727649023303274,-0.16279979552725696,-0.3535969399454795
1729842181.2687378,0.5117453366099795,0.3739349363594712,12.577121386947105,0.014857563536202826,-0.02032046487717072,0.0003020083135137973,0.9996830699296262,0.49487334597715205,-0.06788157301401196,-0.43309130586608213
1729842181.2769067,1.0842050608527065,0.2928351292961515,12.403150319961233,0.01179074409378887,-0.043567110334578205,0.0005142127390998487,0.9989807910245664,0.4948698861661359,0.0950661857979809,-0.5029238086144693
1729842181.2847512,0.6907456244022488,0.908566205751519,12.087599093343925,0.037487441144902996,-0.02843747532500449,0.001067230869287005,0.9988918173515182,0.4923136699107541,0.18687518022470817,-0.5299241581123305
1729842181.2928848,0.4946531302565837,0.7381123772595052,11.214723783398933,0.03284661259766088,-0.021978288260879775,0.0007224769639490653,0.9992184610549474,0.5154699637223228,0.24110919675782047,-0.5176031336930911
1729842181.3007395,0.6303041694137158,1.044530303552969,10.689083236103812,0.04866403517933833,-0.029271209281246352,0.0014267591139970216,0.9983851823548405,0.5583106641886821,0.3243067239916696,-0.4578506414817176
1729842181.3087463,0.6372351212771358,1.1972564377470156,10.578881990002131,0.05629135766555775,-0.02983966897339267,0.0016831373719914547,0.9979669554931734,0.5767783534236433,0.41040889555625176,-0.39475498222132344
1729842181.3167958,0.3619903586549533,1.0734139688493813,10.164404900788389,0.052574777448980134,-0.017675484543460317,0.0009307178634682988,0.9984601162723541,0.5661487738300562,0.5208154269767614,-0.3049633991667191
1729842181.3247433,0.1357913587476595,1.0254447057725193,9.645892120160532,0.05292948531485577,-0.006989051677203646,0.00037045527898570005,0.9985737256226224,0.5482773944144292,0.6113236793324031,-0.2276754959535448
1729842181.3327518,-0.23312328289593554,0.8692916196060897,8.438395350221318,0.051299487361189264,0.01371855035389703,-0.0007047491156922923,0.998588837961526,0.5422371574411353,0.6950012449866682,-0.12936856652727236
1729842181.3407457,-0.8708237365832644,0.41599067855076316,7.66529499455662,0.02705981005897554,0.056427359547560056,-0.0015299141506007821,0.9980387663496616,0.6177913666890968,0.7571271061001641,-0.07251285917881903
1729842181.3487275,-1.2259106897038647,-0.21320477377774522,7.32617268765194,-0.014494338761096922,0.08276048623371147,0.0012038160242147872,0.9964633294252317,0.7150580797362417,0.7705639793263879,-0.08948224214519082
1729842181.3567266,-0.9371381936074751,-1.002764150887741,8.364332284466165,-0.05952761191344779,0.05526705678006149,0.0033008414208046894,0.9966900823729843,0.8662185409632515,0.6981706816457982,-0.25929764497327573
1729842181.3647437,-1.089725541896907,-1.7046671953666288,9.41076231623634,-0.0893289538851696,0.05646827415652155,0.0050727239513763496,0.9943872180812051,0.9986324437227365,0.6249363987351022,-0.41567521453726675
1729842181.372753,-1.9464648014565034,-2.2170281053059147,10.423368542085553,-0.10415166725526155,0.08971402740961573,0.009433846258504611,0.9904619255875851,1.1427856747206562,0.5388525129039434,-0.5486652419301683
1729842181.3807654,-1.947430941420777,-2.258209426660111,11.395329770270862,-0.0973112334163765,0.08255462970682798,0.008099984554399422,0.9917911308411517,1.2416226251018068,0.4961416726959509,-0.6620887732214096
1729842181.3887472,-2.1148864811122317,-2.572137780019504,12.193984656596111,-0.1033753531528175,0.0834986487270699,0.008709274374816677,0.9910931644205543,1.2890054736095604,0.4832858704150163,-0.738231003163933
1729842181.3967438,-2.400910433589214,-2.334805736859359,11.712623882336572,-0.09771951531890305,0.09855144420624824,0.00972497792276759,0.9902746760243357,1.2633725449085347,0.43768597357633476,-0.7596520076261113
1729842181.4047458,-2.358962016989466,-2.246994308814834,11.233468385798428,-0.09802184446615932,0.10087070270605536,0.00998731940942176,0.990008622585709,1.205849471603178,0.3847846317854039,-0.769524779873184
1729842181.4127655,-2.187267825428054,-1.728874649253744,11.30773895872515,-0.07543456948855937,0.09405272356316695,0.007147147260602144,0.992679519886686,1.0751296737295448,0.32963087333043367,-0.779705343836048
1729842181.4207463,-2.5243055756279262,-1.61336970898584,10.73794915648509,-0.07399237967928111,0.11364344320336126,0.008487460428262096,0.990726126930021,0.9094313324056484,0.26163203321756495,-0.754738307727038
1729842181.4287295,-2.5357103534333967,-1.4138221745125978,10.395835854975036,-0.06703952097522839,0.11802412704296542,0.007986451208414302,0.9907129880345031,0.7959645555830637,0.1995482260767421,-0.7188992730499926
1729842181.4367316,-2.07568389638621,-1.0972902773638087,10.00382014457682,-0.054304338087886,0.10137336161368277,0.005541867991808798,0.9933497712886128,0.7457634720709181,0.11589772509288697,-0.5505327810393644
1729842181.4447267,-1.5533046713278196,-0.5726617469846915,9.33573905818164,-0.030519393375612384,0.0821529002149049,0.0025169490674554406,0.9961491517748015,0.7224538629470232,0.03590912020023169,-0.33415087917677694
1729842181.4527442,-1.3322933203748166,-0.6751939781224555,8.983492700045703,-0.037395286044685616,0.07329414128306512,0.0027501916281997786,0.9966052367317876,0.6573852900972426,-0.038476826546007446,-0.005950169417917733
1729842181.4607415,-1.3332829624397335,-0.4077500086996451,9.104938915925858,-0.022313498931551247,0.07254708683566102,0.0016234646119139577,0.9971140317535124,0.522563882558417,-0.1056699678512386,0.3395360878876469
1729842181.468746,-1.2984425631083714,-0.08016835116705269,8.994889638618016,-0.004444289230818204,0.07161663866536327,0.0003191076262558781,0.997422279443281,0.38462856979920945,-0.1681217358304029,0.6281346440102336
1729842181.476772,-1.092945375511507,0.03306242557906525,8.796460720426667,0.001875559624628945,0.061767515002263663,-0.00011607049174505776,0.9980887950949958,0.20693849843765189,-0.24518197233387046,0.9587991004247374
1729842181.4847708,-0.8954268114885449,0.2879880412849391,8.589057328252094,0.016734278491250875,0.05187884581574828,-0.0008694481049281764,0.9985127907744578,0.08670237365393235,-0.3063172663871221,1.2201999033698203
1729842181.492744,-0.6416432792759393,0.29298174811080724,8.174677471902427,0.01789718615398423,0.039124187883231784,-0.00070086199816373,0.9990738198164872,8.723669399154921e-05,-0.39663539056328906,1.4523875260156496
1729842181.5008051,-0.49487982376673545,0.39653444193289056,7.84057655882505,0.02525009546553584,0.031461718038484326,-0.0007950588410667439,0.9991856488453422,-0.07486910880092264,-0.5172339146570661,1.627032374704496
1729842181.508748,-0.4235811620823069,0.3056765721421562,7.756713631828233,0.019684929155721526,0.027247298367963902,-0.0005366644928231571,0.9994347403842851,-0.12920809745003584,-0.6227968539073709,1.7365018745938858
1729842181.516751,0.4274805153971002,0.2899479171622468,7.497142650532486,0.019318253905583737,-0.02844834295682426,0.0005498976196303157,0.9994084222487112,-0.1622371807009658,-0.7265751732964467,1.7740880304710258
1729842181.5247445,0.15521357901365074,1.4050672439496918,9.296983977770664,0.0749252462068976,-0.008229751389925967,0.0006183754264994784,0.9971550011330874,-0.18077756046713767,-0.7901192351142783,1.7796121215388285
1729842181.5327492,0.6452310502402218,1.1679335116530183,11.723387787785445,0.04960858727411358,-0.027318968497542593,0.0013574353107936674,0.9983941202742903,-0.22638268330526534,-0.7643921629856725,1.591366048521596
1729842181.5407326,-0.7366996291332106,2.6960877705660296,13.741388623599,0.09668430563043216,0.026153907575988074,-0.0025414605913738376,0.9949681699136562,-0.3567627518819536,-0.572294544201766,1.4030712638324767
1729842181.5487309,-0.9110438827045358,4.010178381333758,14.783637328212135,0.13199446741263834,0.0294384850239967,-0.003921776086642292,0.9908054581219625,-0.4418018340113591,-0.3276261942469644,1.3122302762150309
1729842181.5567243,-1.4456490530113932,4.175422055655724,14.699345178909702,0.13778154174987342,0.04669409305583216,-0.00650290514987083,0.9893399924451316,-0.5226235875913445,0.05628417996026813,1.2453806718621645
1729842181.5647893,-1.4951491070998046,3.5989245517528086,13.589335654709101,0.12889579956819228,0.052511621897920246,-0.006835217036192131,0.9902432439695786,-0.6319903185284064,0.32579389013911453,1.1324779087404373
1729842181.5727518,-1.1087368910176953,3.7969886665985597,10.799912487796163,0.16803102682779433,0.04756814834744615,-0.008117942007228863,0.9845998904649338,-0.8036071823946893,0.5402852838677143,0.8463572493373788
1729842181.5807712,-1.5726445638098359,3.3941305937579638,9.217477670900355,0.17492072207936674,0.07806559214189691,-0.013914316243227675,0.9813841735601055,-0.945740786368966,0.7192115473573939,0.3818100914096659
1729842181.5887742,-1.104237669682386,3.5074758562547785,8.112393672852711,0.2022235133016018,0.06081954469459402,-0.01258394131047363,0.9773680361420634,-1.0378319897369246,0.80315435207079,-0.03909868387528037
1729842181.5967772,-1.4071393181180252,2.9345552293290393,7.9370421521979555,0.17552436185059178,0.08100951881662015,-0.014494106783268455,0.9810293457010333,-1.0658425478241296,0.8071198181994661,-0.3789104116459647
1729842181.6047702,-1.6075550801286276,2.5256805680173455,7.751386064023851,0.15606998587545182,0.09598802744872573,-0.015240660889258392,0.9829527864302525,-1.047316607575104,0.8035394370162035,-0.5593844949279635
1729842181.6127422,-1.8017853686338172,2.244682166494001,8.87994945091431,0.12287516225150488,0.09622416508653454,-0.011971119758411123,0.9876736793328025,-0.9446776802113519,0.7762754946799859,-0.682993787109796
1729842181.6207352,-2.0851993974498213,1.9903707061464007,9.651897868790773,0.10093326453777611,0.1035304138716627,-0.010561238018303653,0.9894353893836778,-0.8490391188761381,0.7245848541769067,-0.8495341057561562
1729842181.628723,-2.232263478801924,1.4472895391663558,9.987695391196338,0.07144773876726619,0.10834736199678263,-0.007807447300550855,0.9915115297060503,-0.8091092745949531,0.6752657972321918,-0.9788309111848525
1729842181.6367388,-1.8354366712655292,1.2263068716931729,9.501319767676787,0.06383584354561683,0.09431127584845925,-0.00605997794427987,0.9934755381960696,-0.8123955319598122,0.6269440003610336,-1.0691796962859312
1729842181.644728,-1.8233532234624426,1.2811832611994975,9.662237927500604,0.06557334499959955,0.09213499106600033,-0.006080720129474936,0.9935664571076956,-0.8181984969318858,0.6013564427300349,-1.103381534457863
1729842181.6527457,-1.774204625727856,1.406285858819308,9.070455846099971,0.07646777439591679,0.09504263167549143,-0.007322582072264001,0.992504890383381,-0.8123150945629654,0.5817470075368154,-1.0489811865437044
1729842181.66077,-1.7712911055148386,1.4305903421958817,8.867418402679514,0.07949736084888204,0.09688800967639591,-0.007763791636394995,0.9920849795952139,-0.7917574506831317,0.588711709125213,-0.9103441524911635
1729842181.668767,-2.2062453761995284,1.3529962683058103,10.08299698399052,0.06624991354754466,0.1063393049494084,-0.007101104035410574,0.9920949931832626,-0.7649494022655225,0.624391594626442,-0.7709708439466508
1729842181.676778,-2.3046516458857327,1.1924758249483298,10.98879679513064,0.05372412066408719,0.10244854021947691,-0.005541244686662404,0.9932710154198054,-0.788879438992388,0.6266434731613879,-0.6196621390474801
1729842181.6847744,-2.6670407580392514,1.1883403228498572,10.987595804129164,0.05344848070709443,0.11795090535335495,-0.006357960483517249,0.9915595898255017,-0.8504890578507928,0.5752090326610635,-0.48886205033054675
1729842181.6927695,-2.5749039506731606,1.0125188213954612,10.99070593218453,0.045603098443668055,0.11422528632509597,-0.005248951723944215,0.9923937675550399,-0.932577975680811,0.47581226846548175,-0.2733097973096126
1729842181.7012217,-2.2545837424742086,0.9027163575345423,10.890339598129078,0.04111692198793092,0.10146960183752282,-0.004197387113119047,0.9939797284505332,-0.9792771860100498,0.3855245255228664,0.007992906444893227
1729842181.708782,-1.8947975013439,0.8648470386418191,10.82269777254932,0.03970525256377862,0.08621394765571296,-0.0034386922303583697,0.9954791929237946,-1.0021884314700484,0.29474253447156257,0.23849958760959128
1729842181.7167366,-1.7732573020758713,0.6881782805581383,10.350198697709278,0.0330660379999028,0.08450826952350411,-0.0028059421087352466,0.9958700297739732,-0.9908194651197879,0.17386569025270332,0.5138757960991843
1729842181.7247398,-1.6309013343705228,0.43134232111808607,9.672613659543535,0.022199822612126607,0.08332068881279427,-0.0018566227533057342,0.9962737493498981,-0.9601594418677579,0.07962939058682415,0.7412522701663967
1729842181.7327366,-1.5248976194699697,0.44746848349116414,8.598080373460496,0.02589118646414776,0.08750609960769493,-0.0022751357508774216,0.99582486048112,-0.8749300882670008,-0.02288691585060275,0.9457885644406493
1729842181.7407258,-1.466562634181982,0.7231399853583703,7.689279958695438,0.04665295150059942,0.09358751323373198,-0.004390246177047471,0.9945077200411838,-0.7650472476247863,-0.12058035493733159,1.071064481373973
1729842181.7487268,-1.4061831054115328,0.5428201667521315,7.297468036252418,0.03694154508136438,0.0947169686195873,-0.003517237299672396,0.9948123678082694,-0.6854954612726726,-0.20644058232293888,1.1126005166784667
1729842181.7567232,-1.538267764858248,0.6204183244165132,8.20704869650731,0.03754978442021408,0.09218678781980257,-0.003478893187566053,0.995027390147453,-0.6037091845444418,-0.361825093751039,1.0140720200371738
1729842181.7647703,-1.7140048874305736,0.20585397926904855,8.523432573617278,0.012011350641157489,0.09902529569499652,-0.0011953905117184848,0.9950117031019374,-0.5269675645124713,-0.5010303272457985,0.8889729625257831
1729842181.7727642,-1.2604010733274846,0.1136961607547885,8.096037711894976,0.006999429688064591,0.07713464346081887,-0.0005415252723105327,0.9969959686541333,-0.4298397851178452,-0.6662859591433643,0.7206874045587637
1729842181.7807755,-1.0567129523461,0.3794639122731856,7.882696424744407,0.023993144912606516,0.06648563047428255,-0.0015992012313944832,0.9974975852066317,-0.309838058569075,-0.891017906413203,0.5294697767486014
1729842181.7887719,-0.8526183829799256,0.47883010151430194,7.806645828479455,0.03057800314226346,0.05423956178869329,-0.0016617642016284765,0.998058261926898,-0.22166080030425564,-1.0990757653465757,0.30874237475845817
1729842181.796772,-0.9066143037137366,0.41969741271522176,7.769395176531033,0.026932961788783044,0.05794513812668615,-0.0015638319539557075,0.9979551748282,-0.1534296031327309,-1.3111769433063158,-0.052289629440738755
1729842181.8047633,-0.7685446979508983,0.5712049490939768,7.501399695029948,0.03793955865271811,0.050843590622335434,-0.001932880347527191,0.997983859165782,-0.09376052212548668,-1.4482285214957866,-0.33574217160979586
1729842181.8127344,-0.1041513512412421,0.5079228840071672,7.318336330689843,0.03463867563702274,0.007093907809802322,-0.00024587732028980095,0.9993746935791613,-0.02603231891148776,-1.579839515539065,-0.6075536216006557
1729842181.8207307,0.8066043918919735,0.8065783983730505,7.830990743726407,0.05122611875785975,-0.05096227214679832,0.002617450543617499,0.9973825146488648,0.03886893652024739,-1.570262579180929,-0.8076755269423683
1729842181.828728,1.497188777713309,0.6575266593851583,8.204423937202641,0.039807083321879724,-0.08977435544453913,0.00359103651346237,0.9951598191640785,0.07355278916466818,-1.4265928374523493,-0.9268972900244719
1729842181.8367293,1.4736399255635322,0.4708910285900793,9.565011381364553,0.024518418764013058,-0.0762436684383819,0.0018754018233650162,0.9967859514621841,0.0735042877396811,-1.1071128387340083,-0.958415482096303
1729842181.844757,1.7439417715002288,0.3088708354157663,10.221431176963263,0.015047787469656978,-0.08434668614648462,0.0012739164395493814,0.9963220251330789,0.07432656700761289,-0.8996743072289084,-0.9543391340204519
1729842181.8527377,2.3878362530856845,0.28731549197211603,10.148653150758035,0.014052931981715408,-0.11522871255076682,0.0016303251274208748,0.9932382397726081,0.07694838487568213,-0.7828736094321651,-0.9719007580636568
1729842181.8607368,3.0313102003377383,1.208360353532879,11.940381327710679,0.050005516644204544,-0.12323088644363497,0.006217573949083196,0.9910978451725388,0.23262127784577913,-0.6153101666793138,-0.9202869835161231
1729842181.8687608,2.9940997151733457,0.786547194785743,13.07431559472211,0.02984189034868378,-0.11207892456949989,0.0033673923448917253,0.9932454061895061,0.41456854641193985,-0.44325617070198176,-0.8480267828257859
1729842181.876765,2.2743424804711947,-0.04354330056019485,13.125719378805924,-0.0016523471866617622,-0.08567934922143115,-0.00014209474374878839,0.996321383226743,0.44753838654993267,-0.023736057449293052,-0.797433931366729
1729842181.8847725,1.8604446521010762,-0.3079235157365075,13.736437291346054,-0.011179774853236287,-0.06723805583596816,-0.0007534588414363877,0.9976740393442161,0.40516954165927177,0.3663252804774804,-0.7253605944680157
1729842181.8927622,1.446187780030177,-0.4622420818540139,12.311286936575211,-0.0187298802132343,-0.05838197942666956,-0.001095549308411979,0.9981179969508288,0.4001813576750527,0.579928960283367,-0.5322736906941526
1729842181.9010255,1.384860226611856,-0.1736763172276427,11.263463490070128,-0.0076940378214450265,-0.06112163510115399,-0.00047116712642195286,0.998100558814643,0.447419874537041,0.6863809750323353,-0.2589162256888831
1729842181.9087644,0.9499079584768791,0.0693738300247425,10.327114508836997,0.0033550893846581347,-0.0458445544857389,0.00015397533933989466,0.9989429395570198,0.5000273181575698,0.7660027161558115,-0.05786671133852461
1729842181.9167354,0.8378559408576118,0.1699535069992205,9.873762455302197,0.008597348792667062,-0.04230656547080855,0.000364063745648749,0.9990676191176404,0.5643699190624636,0.8239923223049859,0.05765471653414609
1729842181.9247317,0.4993616821903483,-0.004809289843436469,9.239029671667646,-0.000260171611455529,-0.02699501998558413,-7.025898550933733e-06,0.9996355341609997,0.6046782398512479,0.8392043431672371,0.11717670184412178
1729842181.932727,0.19882111942163083,-0.2830071681443431,8.7123831203834,-0.016234142396861752,-0.011400518419438928,-0.0001851140691456648,0.9998032039022419,0.6378027236152212,0.8015056489237644,0.16055231413642376
1729842181.9407256,-0.29059465256577155,-0.46285458408973085,8.334145946448789,-0.027732145929145035,0.017392555139998885,0.0004825915687765372,0.9994639534336616,0.6721508759633141,0.7827176429308391,0.18530061132741887
1729842181.9487295,-1.2093701692250098,-0.8726718630026665,8.507274739500133,-0.05095762991181351,0.07009240420543543,0.0035852532456269754,0.996231660200396,0.7600187970831709,0.8501975007055598,0.1809935368762245
1729842181.9567254,-1.8659803522674274,-1.4673974122351936,9.301400353953985,-0.07776692263874578,0.09735932248073446,0.007631032326638864,0.992177018185274,0.8782958192202379,0.9983850009202861,0.17159825122211536
1729842181.9647663,-2.1869233114581124,-1.9923056983176786,9.941878536347,-0.09814730202672685,0.105497041498273,0.01046402851795178,0.9895089617821364,0.9599042840390288,1.101770963138831,0.1634069394608777
1729842181.972773,-2.2832421802342426,-2.1803579819788883,10.034791103741794,-0.10610844530296433,0.10855094944434032,0.011654023508632257,0.9883429935736785,1.0390933572941077,1.1139968032789003,0.12699108785594476
1729842181.9807663,-2.590030474156171,-2.43516551062288,10.265794205702106,-0.11531452164670841,0.1192592244589225,0.01394694624233238,0.9860452733872622,1.1066142341358705,1.0872771024459793,0.07832310302087701
1729842181.9887662,-3.099475456124561,-2.291408442115915,11.058252540266967,-0.10103114071379624,0.1328344655466772,0.013612606626604304,0.9858815396942104,1.1552148714087067,0.9907898603299028,-0.07901039638023513
1729842181.9967706,-3.1190353469169243,-1.9264691277695492,11.099179939687524,-0.08500820666999791,0.1341478354577678,0.011551048241655783,0.9872408704694441,1.1328667563355026,0.8298805201864452,-0.3500718715276455
1729842182.0047696,-3.1762611129353107,-2.1975986189957135,10.575943039496108,-0.10117142506600298,0.14176038484307357,0.014566280329780244,0.9846096482955121,1.0832742320673074,0.7171586937648133,-0.5603860434998393
1729842182.0127375,-3.1560087746947803,-2.0602828457138345,10.101349967984774,-0.09927825229262821,0.14724320300776952,0.014855842706241606,0.9839931766670038,0.9926450387173199,0.6431402469899038,-0.6950883479123962
1729842182.0207279,-2.9800939781957743,-1.8205943326724412,9.586271925370943,-0.09263235791471514,0.14701615849784752,0.013830194926387217,0.9846899111476638,0.9233683705561563,0.5642482839465335,-0.7814437013589367
1729842182.0287254,-2.643504640091293,-1.5003285624940896,9.304997839060455,-0.07907003396635887,0.13586307363731248,0.010878600145137945,0.9875073726353962,0.8622206268322047,0.39984833921845264,-0.8494331357624183
1729842182.0367317,-2.473393919308682,-1.4573278638148133,9.104629925360102,-0.07856768981804846,0.13025376421770232,0.010354799636099884,0.9883085819460794,0.8242549104134476,0.2199015706423561,-0.858725731856317
1729842182.0447264,-2.4007761672590373,-1.3510822688259974,8.98057845448364,-0.07394527124679363,0.12850334024550586,0.009608855898015344,0.9889017434984716,0.7963671998246489,0.08724348593190033,-0.8532333479146432
1729842182.052768,-2.101504778724563,-1.1973129294108327,9.210211182797606,-0.06417586072688826,0.11079902420540076,0.007169825984893253,0.9917427230539382,0.7208893449896093,-0.05705625423660191,-0.8652627597622721
1729842182.0607526,-2.0852264988265348,-1.0042554358691558,9.645111245811375,-0.05154771536549487,0.1055637435230944,0.005479595605446573,0.9930604730458207,0.6377162166184649,-0.19046200509852676,-0.8720547168093874
1729842182.0687616,-1.8820080367470926,-1.0399739048320404,9.21029628117823,-0.055896230149889065,0.09983657085218353,0.005617469500014215,0.9934166873029283,0.5201276198233151,-0.33691310520375856,-0.827175533969523
1729842182.0767677,-1.5972712466088022,-1.0116055916785212,8.473679432525298,-0.059110632333026845,0.09221919803853489,0.0054842184225797124,0.9939675427329671,0.39380906369469915,-0.43031773606590407,-0.727455023755597
1729842182.0847657,-1.1616304689125472,-0.6919575139426596,7.987177172454631,-0.043079168939594875,0.07181726489806721,0.0031047498966272637,0.9964822257291467,0.28949669589957344,-0.47784671335395074,-0.621648190989342
1729842182.0927851,-0.8813318091795596,-0.4838880960120801,8.065179972906373,-0.02991221518788294,0.05427413153452152,0.0016265880543548,0.9980766164178122,0.1766778479699783,-0.5118980705257852,-0.4525929560870051
1729842182.100767,-0.6868163950780481,-0.4399704613670137,8.076547468607105,-0.02718189990375768,0.04232629952728037,0.0011519683793792194,0.9987333486245475,0.09323600693812602,-0.5514849375946773,-0.29156320654091855
1729842182.1087918,-0.6749731793319852,-0.3097115285291926,7.90404226168184,-0.01956225608864399,0.042541123867095174,0.000833114422093119,0.9989028365347685,0.03082589053661574,-0.6182317540436777,-0.08554301101752448
1729842182.116737,-0.44784011731598794,-0.38478507507649995,7.831424338942697,-0.024534144258846903,0.02851460165416148,0.0007000770043251116,0.9992920009437575,-0.007045869365752452,-0.7038286804895153,0.12107866828160813
1729842182.1247334,-0.15186702937396776,-0.7561588892841813,7.358812647799212,-0.051172920157927994,0.010249599959760247,0.0005252177942935761,0.9986370722587079,-0.021255124077932737,-0.7726401288769611,0.27868119071658815
1729842182.1327598,0.013745815090463109,-0.12928100861933686,8.776804752986168,-0.007364322997222949,-0.0007829693818932296,-5.76619755474577e-06,0.99997257646022,0.02215351059312695,-0.7905140445290169,0.4566779562241344
1729842182.1407301,0.10377613529451225,-0.07230136151925835,9.3036645314792,-0.0038854880604086975,-0.00557669384084571,-2.1668677854909786e-05,0.9999769012326266,0.10098425901705468,-0.7752713001710665,0.5817806881715295
1729842182.1487296,0.5056718286376448,-0.34433196559319557,12.607983490616036,-0.013648647563407175,-0.020032224066062622,-0.00027349313717110795,0.9997061316307712,0.11124767272421457,-0.6912042027389786,0.5844750168914212
1729842182.1567314,0.1882419973290713,1.47413038607377,13.893383342660636,0.052827926925076076,-0.006726840093141053,0.000355870028600879,0.9985809096491295,-0.027328899948580246,-0.5522204114956234,0.6465396028509647
1729842182.1647646,0.04542871158103653,2.697846569046606,15.929001150615912,0.0837889801280444,-0.0014010043107083334,0.00011780309133532343,0.9964825287572558,-0.13899607767021327,-0.38071229402696966,0.7595511853669323
1729842182.1727676,-0.9864477559615344,2.86991772902562,15.540989479432048,0.0911323024745954,0.031033988600770116,-0.0028414083893300995,0.995351054349957,-0.3115675195457769,-0.07986154496593273,0.9103676968616092
1729842182.1808076,-0.9390278942995769,3.496054067591153,13.97604867301079,0.12218413015584964,0.03229419170937433,-0.003977763484918753,0.9919739416524783,-0.48322079450504013,0.16833362424315246,0.9467949659527373
1729842182.1889398,-1.0915776228102148,3.081649322878911,11.130102566843583,0.13448861774662885,0.046672895179945224,-0.006341689803910167,0.9897950472307658,-0.6607085202364535,0.430909972178966,0.7860302910402026
1729842182.1967647,-1.11894285542441,3.1013964821550806,9.370101886785838,0.15887598846057496,0.05569409387748623,-0.008976954385416683,0.9856855494973046,-0.8233922437882897,0.6042063132145492,0.5197211515693311
1729842182.204771,-0.6692109317605055,2.613814311412189,8.571956997550018,0.14733891923082798,0.03685262804751791,-0.005493640472983786,0.9883840076611096,-0.9605916536353605,0.6809399539023292,0.2803316263934083
1729842182.2127368,-0.8786909499254439,2.0540721036930165,8.519956220014386,0.11785852255008472,0.04959361474702089,-0.005893511849950741,0.9917737184240717,-1.0901628963658885,0.685262512291718,0.09625735544896165
1729842182.2207646,-1.185620026498235,1.7033827287685441,8.938626245436366,0.09380895498662592,0.0644507304849213,-0.006085714820220532,0.9934832396066903,-1.152580799791572,0.6678486144366358,0.0053945357095471005
1729842182.228728,-1.7763129143364411,1.9732459568412044,9.38040671283799,0.10303020182363712,0.09099594230524197,-0.009465613587427273,0.9904619720895775,-1.0955283482024112,0.6386699130192571,-0.11638218584510261
1729842182.2367349,-2.237031200750302,1.7322197542805038,9.748904504997718,0.08724709514864822,0.11044146084233562,-0.009733047289802774,0.9899979272228746,-0.9740304146491983,0.6301021834595326,-0.3397168104739896
1729842182.2447326,-2.4452274252841657,1.5708446211229896,9.881896559199802,0.07815162653902746,0.11918205766105294,-0.009410758868483098,0.9897471384240023,-0.867927829723232,0.6241101656007739,-0.5252260826882276
1729842182.2527428,-2.183002751557218,1.5333957424003561,9.806786944308943,0.07700252593098651,0.1077054934700957,-0.008367555906824897,0.9911609968540717,-0.7404127695483476,0.6128525337792021,-0.6748437515483532
1729842182.2607377,-1.956475519342534,1.791287429571073,9.801225502767005,0.0898189687469535,0.09640121233446329,-0.008735149546732768,0.9912431872532975,-0.6485788912307837,0.6141860658540376,-0.7458839901600992
1729842182.2687643,-2.4380237881680205,1.5035739750766282,9.449771716455125,0.07817500575572815,0.12403231423528074,-0.009802630815029379,0.9891453694627684,-0.6202970381123534,0.6541496707534458,-0.709755471956671
1729842182.2767642,-2.765738816357844,1.683611806920977,10.633282491542996,0.07778966720811513,0.125014835038973,-0.00983251112292305,0.9890517582112913,-0.6029022361798331,0.7194197696549077,-0.6493405654415692
1729842182.2847672,-2.5230318286330657,1.6695302213596175,11.10803893340236,0.07404909914301555,0.10994198130222554,-0.00821386491234249,0.9911417779947784,-0.5899112146515487,0.7011136706984107,-0.61351731159397
1729842182.2927659,-2.2428535026974177,1.6096059343294424,10.754598635920322,0.07381447540425659,0.10124440062332137,-0.007532881022220852,0.9920908477890137,-0.5987185141315974,0.5160227761865415,-0.5477515928933594
1729842182.3013434,-2.087435775934857,1.5413296396992278,10.867188202548288,0.07006526297976012,0.09359825481211048,-0.006603420242677469,0.9931196405573716,-0.6082597944342469,0.3866635668365526,-0.4444386524536882
1729842182.3087626,-2.547963983871461,1.1412336138976615,10.904575001607098,0.05176148842535416,0.11376638881949828,-0.005935366762447211,0.9921404782148332,-0.6518709780859574,0.3520427374342245,-0.23899333747718085
1729842182.3167362,-2.562115826846314,1.0536866441686752,10.85111088841543,0.048046226544534394,0.11501997786948794,-0.005569804305404963,0.9921849334099633,-0.6814432087686799,0.24570653743895923,-0.03654779705933858
1729842182.3247688,-2.2856969350726324,1.0859132011008144,10.275788063810976,0.05229450563461324,0.10848372790884836,-0.005714790330900551,0.9927053473367131,-0.6893956757646869,0.10868612687033066,0.1432390656116651
1729842182.3327234,-1.7935159137291263,0.7389362812561917,9.428530280913538,0.038917746386549185,0.09349897414332188,-0.003657599658760455,0.9948517340865798,-0.6728826528891894,-0.028865827460910584,0.40350822521767465
1729842182.3407254,-1.6581399718214604,0.5939570531775432,8.924964014495389,0.03307482792835454,0.09146924184304409,-0.0030397566252433877,0.9952538336694955,-0.6416903360907893,-0.1084171696294211,0.6286315109381295
1729842182.348728,-1.4653446093135793,0.40186406344949466,8.223710837896451,0.024312959514034206,0.08792442554939228,-0.0021466586844630393,0.9958280811706259,-0.5999876826927996,-0.1923316301548001,0.8416067636179541
1729842182.3567288,-1.5088818022092414,0.6134167962239936,7.113907694144121,0.042751840911871807,0.10384341178027336,-0.004467803404409613,0.9936643621772988,-0.5498503770277459,-0.27928965175576226,0.9506615525215195
1729842182.3647594,-1.5278215129661699,0.8222301326660368,6.854321829621238,0.05929029594063124,0.10849225559539823,-0.006482410761680419,0.9923064393793946,-0.5048688414775425,-0.34210671625289035,0.9756538700247658
1729842182.3730395,-1.435755827701577,0.6559043723242315,8.011071661005165,0.04066902755116713,0.08819116910292986,-0.0036037073157723265,0.9952664774741904,-0.42679711277197674,-0.4811111895791307,0.8259072067409073
1729842182.381065,-0.7781352788475087,0.572868327740242,8.401536789327707,0.03399623861548794,0.04602802248212088,-0.0015673496721674196,0.9983602657965658,-0.3420676600785164,-0.6381582542078064,0.6547524070313442
1729842182.3889103,-0.8724589285389739,0.29440044244492647,8.328879213489204,0.017640213663408576,0.05212110692301073,-0.00092082293810886,0.9984845342618713,-0.22439664881290128,-0.8822293946196469,0.5269438135793465
1729842182.3968477,-1.0195539411077594,0.09427972835758086,8.301804659441178,0.005666971399139614,0.06105672079285448,-0.0003466590506627344,0.9981181503753388,-0.11037365578440496,-1.1963939630827918,0.41279793209948906
1729842182.4048007,-0.7048668092447338,0.25456831430947036,7.922120115000644,0.016044288312087648,0.04432739564122024,-0.0007119932810705589,0.9988879596199931,-0.029614848184908248,-1.4530031139946036,0.24767875925969343
1729842182.412881,-0.35516417856441834,0.5106741367790416,7.162317779449605,0.03557102170528079,0.024692858370033516,-0.0008791751699138807,0.9990616558608285,0.03629372889473308,-1.6695450435766093,-0.06636622548250992
1729842182.420794,0.042123389834005265,0.6672106722529718,6.418892758734216,0.05176300586434763,-0.0032591928349590244,0.0001689329907548759,0.9986540644024821,0.09201509747807507,-1.8250116050135345,-0.3471679596650928
1729842182.4287477,0.9980381684218875,1.2928847822580332,7.2997043063635765,0.0873323452482095,-0.06660505099400911,0.005852281776502365,0.993932884783244,0.18163900674106842,-1.8569921730251573,-0.6356935975069354
1729842182.4367375,0.71278690007657,0.9782803298040387,9.291527289628693,0.05238686948642572,-0.038010681534166105,0.001995448643017475,0.9979012086271032,0.2256224808852377,-1.526263283310341,-0.8215796820559019
1729842182.4447362,1.177057259674848,0.9760259676578138,11.009035881833857,0.04413371768086352,-0.052973171527860574,0.00234348648281888,0.9976174447818414,0.22902530205278956,-1.1992675509199175,-0.9275773619862754
1729842182.4527597,1.7678233719181902,1.1492106513954696,10.394485076463594,0.05482777825572285,-0.08350555649261172,0.004601490404925249,0.9949872175321921,0.21191094198752924,-0.9651836960155427,-0.969465776809936
1729842182.460741,2.6176433627505236,0.8939912126146256,9.77340573826097,0.045190422976059075,-0.12982232395946455,0.005923058601936049,0.9904892262159173,0.19951387564106293,-0.8247333830729178,-0.9975786561343665
1729842182.4687517,2.9398299470936733,0.9393388669730722,11.09034624691166,0.04186977949664018,-0.12864506697671213,0.005436401644528616,0.9907915087669148,0.2933898704611467,-0.67490692584219,-0.9769856583203659
1729842182.4768794,3.342873963129251,1.684089697136968,11.520901462746604,0.07177367127252565,-0.13897164957931052,0.010099329863020595,0.9876403314271783,0.4906188776971294,-0.4785885361382455,-0.8539504436518375
1729842182.4847636,3.207613611275988,0.7734278539267121,10.985556741905773,0.03476982473311529,-0.14115035381358396,0.004960528466769646,0.9893649630261114,0.5783065976134527,-0.24628687578259223,-0.7865146657726508
1729842182.4927502,2.5089927920097335,0.7061105001978241,12.288097475319244,0.028545120906918152,-0.10033406936423095,0.0028797714821253884,0.9945400733572448,0.5406729365332961,0.11615571263690425,-0.8043727374654371
1729842182.500765,2.108734493565215,0.38488023322416326,12.590542163170063,0.015224495422745326,-0.08282994401657554,0.0012655410855795753,0.9964465934103516,0.5232010206227464,0.34979748802415933,-0.8044453289445581
1729842182.5087695,1.9059290603969414,0.40594428129191984,11.225594123585632,0.018005964825218778,-0.08392374684546955,0.0015167272895284085,0.9963083305304937,0.5395363449485245,0.49168531350236055,-0.6589028828120159
1729842182.516739,1.5292633236893367,0.6292724562263238,10.656819373321301,0.029408280779384448,-0.07105080297005295,0.0020956917448271013,0.9970368822140043,0.5638110016337006,0.6708955123723903,-0.4651548997669827
1729842182.5247486,1.2254523277096958,0.8183359993705599,9.748846990203718,0.041776003060123294,-0.062211477932125246,0.0026062838682188896,0.9971848900109846,0.5826326962594265,0.7762931813870979,-0.31059400440838
1729842182.5327349,1.1686218971140987,0.775672177014914,8.723307866973794,0.04422717792270264,-0.06621389490243826,0.0029377945213245526,0.996820468398494,0.5922229527890139,0.7761039636380798,-0.1689031101250847
1729842182.5407245,1.1024413365106467,0.9124007561601203,8.463283919403027,0.053554536422907584,-0.064259920487195,0.003453535058959307,0.9964891606751693,0.5915917557848359,0.7657738715135801,-0.07196925183417063
1729842182.5487254,0.49411010586146603,0.7176681917331815,8.585236363604707,0.041669824502959404,-0.028616517117849856,0.00119397254074247,0.998720829413059,0.6073892599178863,0.7910768807870707,0.010881086705175645
1729842182.5567245,-0.2817336374108547,0.1473668586434245,8.590651923143293,0.008575019631833797,0.0163880657199203,-0.00014055203012196016,0.999828925659485,0.676464371002401,0.8777746166767864,0.042712307247378074
1729842182.5647395,-1.0663869646730753,-0.42441788041941403,9.079445355546131,-0.023311921615906298,0.05834523793956496,0.0013628335108999401,0.9980233114537811,0.7579243034305407,0.9991807382289268,0.03499256570059154
1729842182.57275,-1.8378906895460325,-1.325577130839539,10.145569710886273,-0.06464761207508873,0.08856097183789305,0.0057600810694665465,0.9939539536548914,0.8957694857329892,1.1324723998878197,-0.03774968906140544
1729842182.5807588,-1.808066222809651,-1.9012280253298954,10.699292484490748,-0.08750677787424545,0.08202490269923034,0.007230118186443963,0.9927548562229547,1.0129574900928828,1.1571076888930911,-0.10310523505316722
1729842182.5889058,-2.4500135203068845,-2.1807780163698123,11.123224072237416,-0.09607964399489406,0.10573775390082939,0.010265096733142654,0.9896882626357055,1.12541360879356,1.0978187916018607,-0.1410414924638382
1729842182.5967698,-3.2137051812759276,-2.3712529267652465,11.845649449445965,-0.09775624503965488,0.12900224178148725,0.012780352499518819,0.986731372137871,1.199698320997359,1.0754418451324455,-0.23829900766609635
1729842182.6047392,-3.690834370972588,-2.0744534479536787,11.969773821278906,-0.08472670133212017,0.14640353513284263,0.01258667587310682,0.9855094959321546,1.2217075750621507,1.0164668406743589,-0.36135840612968
1729842182.612746,-3.6119961316167557,-2.1154432125710354,11.675062548382577,-0.08848780270446031,0.14662619561171603,0.013170365637080314,0.985138167467872,1.1489237350856953,0.8401784276555744,-0.5143723966397681
1729842182.6207337,-3.2534469721829438,-2.0550429124059026,10.693544606666265,-0.09374891520509902,0.1440070788568007,0.013705673313612781,0.9850305866601397,1.0580018342775366,0.6918363736981006,-0.62065425303553
1729842182.6287239,-3.276779961874219,-1.5763542655099476,9.941109868247805,-0.0775370385115194,0.15623300178795418,0.012303374196008722,0.9845952893420632,0.9468319156181911,0.5674988662222676,-0.7091133904377851
1729842182.6367292,-3.1076233286870316,-1.1366304316204217,9.454933101124464,-0.05901151251311686,0.1567825551733245,0.009385018528141043,0.985823915925894,0.8379866483378426,0.4162721506736022,-0.7689999138625305
1729842182.6447299,-3.012354273091125,-1.0904290621949093,9.239362653643429,-0.05795595940528916,0.15565999034235006,0.009148899204176835,0.986066616319295,0.7684225873550132,0.25785140157193986,-0.8113171788393083
1729842182.6527429,-2.7746700345578,-1.1163383577271018,9.2953315936509,-0.05908179773054018,0.14330856119358842,0.008570842283536445,0.9878757705947149,0.7407319227935627,0.049139705700580086,-0.8843848247091225
1729842182.6607392,-2.559036340803039,-1.0804085993530579,9.407921612440541,-0.05662103193745675,0.1313667950525435,0.0075156322853242915,0.9896869905032158,0.7147523427045277,-0.11227096704650849,-0.9324823128456313
1729842182.6687386,-2.05879428739198,-1.154379390568866,9.369891330501433,-0.06088606134425004,0.10694982173983437,0.006561775620831052,0.9923767259788511,0.6302028046942576,-0.2699910494838321,-0.8881221151560672
1729842182.6767511,-1.6573743251207345,-0.9555109766264758,8.914680341513751,-0.05313098304219553,0.0911392465305401,0.004869548883007617,0.9944078760129021,0.4819900578132903,-0.4254967777352968,-0.7274136271817887
1729842182.68475,-1.331767608988456,-0.8922142471086979,8.292239725904345,-0.053391695689454545,0.07897659327936814,0.004236024791299906,0.9954366281383047,0.354324614091665,-0.5268883258539543,-0.5730946860383854
1729842182.6927419,-1.0473392775512766,-0.5259911617906093,8.092115556734013,-0.03237927540822844,0.0641438409713403,0.0020823179221124886,0.9974130609439364,0.23089944109786636,-0.5741011727583637,-0.3864258177692344
1729842182.700774,-0.7804353719506878,-0.31248223491616245,8.28687857354236,-0.01882242354744496,0.04689145661166672,0.0008837400586039399,0.9987222470097207,0.14194518515041607,-0.6058344013927056,-0.22121323912498983
1729842182.7087507,-0.6641069189711939,-0.24830206311766623,8.184427511557056,-0.01515103356626341,0.04044845152479098,0.0006134084262960471,0.9990665606861352,0.05834863721814165,-0.6908562980999257,0.006047016561628427
1729842182.7167437,-0.371170252456935,-0.028552894364740358,7.870368599219391,-0.001813416348843029,0.023560400879625826,4.2736749539319126e-05,0.9997207696177505,-0.013945174737248642,-0.8155138167571891,0.23520360337232224
1729842182.7247336,-0.029011237167520378,-0.3003657930153286,7.688637016465227,-0.019521893388515052,0.0018848233707500135,3.680239975383073e-05,0.9998076523836832,-0.06583526313972346,-0.9013762695495601,0.3978132690849984
1729842182.7327254,0.505965740609644,-0.5455746491490409,7.173062624918199,-0.037922890873691044,-0.03507657693843299,-0.001331984778459148,0.9986639644618275,-0.0867527547061196,-0.8903173021900641,0.5447591156421998
1729842182.7407396,0.6536117270806301,-0.047223195251143296,8.034003761474356,-0.0029364020972702932,-0.040576426178004416,-0.00011924742599053476,0.9991721157845607,-0.06524804472899473,-0.7989695995434221,0.6597450974486285
1729842182.7487495,0.3560145911800187,1.171400534753611,12.365968209033051,0.04720038147831687,-0.014310396779767228,0.000676279422946705,0.9987826986779702,0.0110826004151229,-0.6624284861547268,0.7138375343813148
1729842182.7567258,0.8890130430380893,0.3578358616236509,14.299079975712798,0.012503344934432252,-0.031029307857012203,0.000388187449585715,0.9994401921725328,0.003244039757377487,-0.6311609354354915,0.6909532885508624
1729842182.7647433,-0.0598753455638652,3.224931264288644,16.316789490554633,0.09741016336940049,0.001791388849422638,-0.00017533359602266044,0.9952426941487523,-0.15811303925529738,-0.4949099480404295,0.5988957697435771
1729842182.772749,-0.9957606528949597,3.792619826688421,17.45534972948903,0.1067280725106676,0.02768119202686015,-0.002972497251752849,0.9938984024568196,-0.3358083983406883,-0.008753797214462233,0.5347217671685033
1729842182.78075,-1.6248083241100229,3.1343720315110994,15.75074855717584,0.09792861465974588,0.05015111606409616,-0.004941288588289287,0.9939167146473772,-0.5062791230112276,0.34892185280773297,0.49834581593076915
1729842182.7887368,-1.3632245037433572,3.3695772313578316,12.210005967801598,0.1340261245915625,0.05309570123241448,-0.007191518970279033,0.9895282343078975,-0.7034904415195842,0.5877915763243858,0.4113896657844378
1729842182.796748,-0.988641280615155,3.4125380831994643,9.689320039421192,0.16830513602632763,0.04726805098833368,-0.008080149950329529,0.9845678360172567,-0.8230943028089843,0.7711282762118086,0.318775419857746
1729842182.8047464,-1.1139236294530774,3.2910711922048344,8.817596846650762,0.1773438008351893,0.05793276392392285,-0.010458220490013348,0.982386683945607,-0.9399797660975997,0.8896440973735027,0.09037670734814608
1729842182.8127487,-1.1864594169296587,2.4247526274322757,8.293605250324442,0.1413960657324817,0.0674868072725505,-0.009662152499612754,0.9876028180643307,-1.0931206060558651,0.9152047534940819,-0.16840987773575486
1729842182.8207288,-1.6058705500601391,1.4955530046820216,8.979507746141932,0.08209803797766553,0.08689792341346386,-0.00718586850041446,0.9928026119831376,-1.1705316479411154,0.924581486305961,-0.3632710045020644
1729842182.8287237,-1.7928737851142085,1.4068179160904628,9.92591389451133,0.07005247309632409,0.08814948928694734,-0.006214730351703008,0.9936215052414047,-1.1509963135456505,0.8523062447455366,-0.5116887451100405
1729842182.83673,-2.089668674144697,1.3492672999472464,10.239014526892346,0.06512494610024853,0.09944268901619258,-0.006522585869260582,0.9928883869147864,-1.1213961303269662,0.7501958713275216,-0.5913742081226614
1729842182.8447278,-2.2584082210883807,1.0889637137085821,9.762005105295563,0.05514874678838613,0.11258239523447315,-0.006258274378807636,0.9920910512713734,-1.028288879516976,0.6101769859062368,-0.6370570356229238
1729842182.8527386,-2.310331395055372,1.0304649896997586,9.325922428411713,0.05457956439038765,0.12024024757259957,-0.0066207826883657615,0.9912212261908181,-0.8817525459395692,0.4891306193062692,-0.6657438023074673
1729842182.8607407,-2.514346659298848,1.1509888632046208,9.568731112076323,0.05931335068197732,0.12702537834874827,-0.007609672839647094,0.9900952340888768,-0.7699921023512514,0.4275707409443015,-0.6693337803514084
1729842182.8687382,-2.425347811253137,1.6449220996610536,8.842448077646184,0.09100349562861842,0.13076192302867642,-0.012054637728732328,0.9871546834100741,-0.7029358361982607,0.4578938436381218,-0.6612712057026844
1729842182.8767786,-2.1650894789882105,1.4054597099919446,8.244351384429507,0.08362214271970404,0.1258713677184995,-0.01064853277028733,0.9884585700905627,-0.6707901876742449,0.5199337815850034,-0.6615419416509943
1729842182.8847513,-2.5375742061917546,1.452839568670948,9.515465858733876,0.07502956733674004,0.12815487870004383,-0.009723686448228748,0.9888641671192738,-0.6178732837043349,0.6427214467070006,-0.6412712602698027
1729842182.8927443,-2.7483757737150527,1.5495022311928033,10.374620870220793,0.07342930695219915,0.12742270247936993,-0.00945984861911148,0.9890814440871273,-0.5839946910150788,0.6733993495725337,-0.5763232838197958
1729842182.900746,-2.7455698245805937,1.2447782771922444,10.64303226578482,0.05770525080861908,0.12487290109617499,-0.00727517983223852,0.9904665235934771,-0.5900603192121712,0.6300810323798589,-0.4994680824796709
1729842182.908772,-2.5185918788792154,1.1459803830633934,11.02314855502753,0.05143527865295965,0.1113491862330672,-0.005770947485441836,0.9924326007343,-0.6686211469477441,0.5070327080509109,-0.2881872178283277
1729842182.9167483,-2.5215082279134666,1.0021863279825671,11.147549396688394,0.04452933911621611,0.11045546116684093,-0.00495382609535304,0.9928706807350646,-0.7502385385675123,0.41702749111798487,-0.07330085631488122
1729842182.9247315,-2.5567768605762047,0.8290003746703998,10.722759435376318,0.03829661756026314,0.11634957785792832,-0.004489649195117077,0.9924595648518028,-0.8132567455676203,0.35067934917583043,0.12757258098027002
1729842182.932724,-2.2262298162968945,0.7159908363745056,10.404678534760947,0.034148750449226425,0.10489606081275023,-0.003604089743570045,0.9938901799524154,-0.8106271139287922,0.23084073245567577,0.3110987724537414
1729842182.9407241,-1.759511583625793,0.4659863670590783,9.653347385749145,0.02401326666582944,0.08989485439380726,-0.002168079947074273,0.9956593682615029,-0.779251030643153,0.09295560289696808,0.4952845580322177
1729842182.948725,-1.511562946269226,0.5147024232627907,8.81492744756277,0.029048725153703166,0.08463385939793622,-0.0024684150833212035,0.9959855362089007,-0.6889094503461481,-0.07746762749943506,0.7956537967913697
1729842182.956725,-1.4667021159060667,0.42374313364517446,8.147154410432194,0.025872384487235393,0.08879432797537756,-0.0023072161009912075,0.9957112351451143,-0.6091630984802234,-0.19802623838014427,1.0533509312329505
1729842182.9647727,-1.5518342553834839,0.39143363531405784,7.676579899677286,0.025339084670163096,0.09940898503130148,-0.002532301338676497,0.9947207507301006,-0.5323683631812505,-0.2967541887192158,1.246707007490944
1729842182.9727545,-1.5025964895093873,0.18123006400093467,7.9276633231071525,0.011375890248107822,0.09349142797548811,-0.001068297318977405,0.9955545192288594,-0.44797941647028383,-0.4313380998014382,1.311212155808834
1729842182.9807515,-1.3849472088911792,0.37162138068571704,8.468089407438509,0.02185185591742181,0.08087234715467512,-0.0017734475182905735,0.9964833238657623,-0.36627067395697555,-0.5887126575139374,1.319691250435764
1729842182.988964,-1.0002383827077543,0.4473095239680708,8.092998753105682,0.0275498869010816,0.06133003097080185,-0.001693469740017195,0.9977358183372479,-0.2640341707662366,-0.8138242410102807,1.2392150048580537
1729842182.9967465,-1.0452251182476995,0.37349116726170184,7.71351835342591,0.024132002826241502,0.06719440219356036,-0.0016256863714611504,0.9974466982737804,-0.18949587694647027,-0.9855005363938214,1.1653878538237055
1729842183.0047448,-0.8385430775404165,0.26551438907772423,7.814793421723515,0.016955391129275355,0.053382828064591784,-0.000906550239544736,0.9984297504312172,-0.11369752616788216,-1.1625763843183392,1.1198144930187106
1729842183.0127542,-0.5452637957429999,0.14973182680600952,8.134850502496999,0.009196583070650837,0.03345069949291203,-0.0003078174402301552,0.9993980082087832,-0.05544781385686834,-1.3965289115116595,1.0460702598363523
1729842183.0207393,0.07961658461474695,0.7460897711324339,7.648368000472808,0.048600778688394755,-0.005173890158452462,0.00025175597627468755,0.9988048517054963,-0.014538325609791614,-1.611396188583507,0.945206941752487
1729842183.028725,0.7183858357786137,0.7023969193200853,7.155365559805169,0.048842510020180606,-0.04971357896044558,0.0024340615576166564,0.997565559061762,0.02746065985839772,-1.8322656081024145,0.7676241840001091
1729842183.0367427,1.2996478637718556,0.9237416598928324,7.060198194525679,0.06472810251861613,-0.08995580536269539,0.005858859520743767,0.9938228713362379,0.06202523249147601,-1.953719318215746,0.6325532952307262
1729842183.0447295,1.2208006640638946,1.1695548225958556,8.260771907438063,0.07007149143448888,-0.07240304747787348,0.0050994073369645615,0.9948978745825497,0.10830537975904489,-1.7916106303567036,0.48084621176639925
1729842183.0527732,1.473485812256696,0.9741930424832946,9.960584034355414,0.048592685134298506,-0.0729377080460441,0.0035579526286097355,0.9961456633793682,0.15352676063952952,-1.4155184273836474,0.2706287444784342
1729842183.060772,1.4388280120122208,0.9015081252946644,11.12795413277145,0.04032089153697056,-0.06398876020334925,0.0025875038559075615,0.9971323729059737,0.18789632021267483,-1.1451656491463005,0.1002264977136039
1729842183.068746,2.2725239043753014,1.2560529110654706,9.081029786791778,0.06814073117981798,-0.12091111895988658,0.008319783026573921,0.9902868893793044,0.20766667583363796,-0.885045268067625,-0.06884818999483323
1729842183.0767515,2.7203084234357275,0.666961646541626,9.94061902686022,0.03318145651128898,-0.1328038039502116,0.004448543260632053,0.99057677696532,0.21356922834574738,-0.6621396997708807,-0.20860510815147837
1729842183.0847495,2.5290529959559676,0.14591277161638183,11.863684306741131,0.006113946112296715,-0.10481348953785341,0.0006443856144917309,0.9944728939699734,0.30863412306734983,-0.5096659960885048,-0.31544652236441517
1729842183.0927424,3.410766470425143,2.4429632562315478,10.590521251769289,0.11175124365341216,-0.1504861487605861,0.017123064083895374,0.9821264578706254,0.49891404913792714,-0.3398548025700654,-0.3659292889253922
1729842183.1009166,3.063037907157429,0.7369829683873661,10.940406031090868,0.033300159037481535,-0.1357016680933572,0.004563705256906871,0.9901794429693472,0.593074571891558,-0.12601160029448744,-0.4507072767291185
1729842183.1087716,2.451935470124536,0.8896660713156227,12.230361267580301,0.03611548314761623,-0.09844931446994086,0.003575279830268704,0.9944800760857646,0.532506118641678,0.21939625241649546,-0.5833065612120643
1729842183.1167493,1.9478468326118308,0.8917327909827328,12.284637390430992,0.03610730799830801,-0.0782905172164962,0.0028374364884202474,0.9962724557957341,0.47573192374157236,0.42153268330554083,-0.6539266406111292
1729842183.1247325,1.7258388258854576,0.9679113347458896,10.85314874895586,0.04431632182093208,-0.07838361065511203,0.003487863063969414,0.9959316783857105,0.4706143309809272,0.49002897421767605,-0.6171203368186302
1729842183.1327271,1.2109982772207277,1.0241529483084715,10.009339034529766,0.0508653004475736,-0.05977757429536756,0.0030500280800238597,0.9969102568187626,0.47605757655378067,0.6298868430241485,-0.49457370003809137
1729842183.1407278,1.1223605007562647,1.455335392031958,9.233466098940516,0.07794004239242486,-0.05953173938949353,0.004662434624674599,0.9951681182094305,0.4810262841433409,0.7074162133861015,-0.39167310372888786
1729842183.1487565,1.0217726420064932,1.3374369371234718,8.099960074403372,0.08156580138754634,-0.061665230348273224,0.0050563418617072435,0.9947456221653249,0.4797506080824568,0.7037024083507536,-0.33333826643506204
1729842183.156724,0.9563921032703022,1.0684579667174423,7.420335300013117,0.07129331635868302,-0.06323891241844264,0.004529172102996842,0.9954383906594997,0.46791726084791346,0.7214815582182604,-0.3085539255338553
1729842183.1647434,0.5340915144035875,0.8151332407238248,7.145678047683652,0.056720240603639865,-0.03699458849943089,0.0021031745176051863,0.9977022558782612,0.4846558959490612,0.7904685865590628,-0.29964298185359967
1729842183.172753,-0.1375558689457381,-0.28424719179617386,7.972322603756675,-0.017817945537065297,0.008619280704036369,0.00015360796850118037,0.9998040834191343,0.577708638994846,0.8846463711848362,-0.3126010882883136
1729842183.180753,-0.8177928512014273,-0.9668597872456731,9.551206748289161,-0.050373971669590775,0.04242389802097458,0.0021417148627658478,0.9978266828023712,0.6999479344103938,0.9803165276148071,-0.3322952738700789
1729842183.1887417,-1.3645593166778875,-2.0901388594079506,11.54767640248912,-0.08925572054546287,0.05761515000897092,0.005171818907881991,0.9943274928958458,0.9167490623724271,1.0721995164512141,-0.3713559491527081
1729842183.1967418,-1.3440234342450137,-1.9835965614943796,12.727601682557925,-0.07711761562611875,0.05180312530972119,0.004012318001307834,0.9956672189404168,1.1085547980616417,1.0881658240985517,-0.41394840708807706
1729842183.2047443,-2.1847559562989614,-1.9819204259102994,12.905959443372646,-0.07584225387927163,0.08255775011397046,0.006301213219190188,0.9936762375817375,1.2917486493090955,1.0722042049992322,-0.4939922097164384
1729842183.212751,-2.968598803271565,-2.149705961600867,12.988074402595853,-0.08139746467870806,0.11029412919239381,0.009063596180659158,0.9905188080162052,1.3552647433582066,1.0622015434781784,-0.5833104272552723
1729842183.2207332,-3.4216662595020018,-2.2937123330640357,12.662411398149308,-0.08869431765847746,0.12905620370749188,0.011590332380239541,0.9875947946880963,1.340163142104919,0.9817041858096907,-0.6245563459961737
1729842183.2287233,-3.3734019712773726,-2.2661521569184995,11.758569324241147,-0.09411876861577352,0.1362443999482489,0.013003797082189312,0.9861085245237652,1.2068006834060332,0.8159153142450772,-0.61482300226229
1729842183.2367291,-3.4442816075711113,-1.7257647279889903,10.979477535706799,-0.07695917413000643,0.14923696453831958,0.011651381963430739,0.9857331582284112,1.0731462604424857,0.7070768099541445,-0.6013205749156432
1729842183.2447574,-3.317060491642276,-1.382857497682066,10.71888148602369,-0.0633680752840379,0.14804038619769394,0.009505525095187031,0.9869033266140604,0.8814228105613051,0.6021845316636159,-0.591090668200345
1729842183.252765,-2.7896602293115373,-1.061233799146349,10.206984909680617,-0.05130207883317483,0.1321480696681041,0.00684879549824479,0.9898778098283706,0.6744396873567979,0.3834466021941952,-0.5291873261196399
1729842183.2607434,-2.444010811659188,-0.7298747240678874,9.673355486823995,-0.03734765608432101,0.12300065668831171,0.004632267575864719,0.9916927614621158,0.5511011935570176,0.19686413652247864,-0.44096251349577315
1729842183.268736,-2.1798785817220754,-0.3359318437180762,8.91048994614713,-0.018699507234604205,0.11957457680799496,0.0022525496734458247,0.9926465509083989,0.5239240040379729,0.059798943493188844,-0.29395012233834406
1729842183.2767537,-1.9739940508887137,-0.43236014626990826,8.377592689612106,-0.025599815925664706,0.11525977727725573,0.0029714260663480582,0.9930010089590552,0.4974011288514573,-0.039042084721404254,-0.15338281008405671
1729842183.2847524,-1.7748065599277594,-0.6724158741388979,8.122976620847343,-0.041037123949764144,0.1069039462452866,0.00441612258172875,0.9934123004052545,0.4172082044587812,-0.1898700648644969,0.09186842050116363
1729842183.2927444,-1.5652720829293119,-0.42810980158294815,8.290790581883405,-0.025676168390335798,0.09301305190457762,0.002399421986071514,0.995330874295739,0.2575616537201233,-0.35188278327597383,0.36459772698359516
1729842183.3007426,-1.398849968507587,-0.11105899984625327,8.589000595467933,-0.006442879453058983,0.0806279462477278,0.0005211838975267495,0.9967233076213137,0.08983210288984518,-0.46611801678134124,0.552925334437852
1729842183.3087554,-0.9750612152354116,0.09186074999459178,8.575193369976073,0.005347036091508161,0.05657619785761401,-0.0003030046516961361,0.9983839197569206,-0.08019310762663284,-0.5763767829078408,0.7502085310798883
1729842183.3167493,-0.7363502740631219,-0.04711596089191682,7.997089039563769,-0.0029425526833415957,0.04589207774752289,0.00013518287181494955,0.9989420605367021,-0.17667426313751328,-0.6680734462714624,0.9354117887146489
1729842183.3247316,-0.2902571993499825,-0.18820224743358754,7.663394550447245,-0.01227423828308008,0.0189205963707656,0.0002322950000449388,0.9997456177181162,-0.21796104404702227,-0.7490585380388193,1.126989164911829
1729842183.3327599,-0.04223380813538012,-0.34372238849921505,7.812731299360143,-0.02198155144883861,0.0026995896936676134,5.93557279235478e-05,0.9997547299654478,-0.2244284399498603,-0.7916899322387649,1.2670513042563973
1729842183.3407283,0.09891878128088132,-0.7573786552674978,7.961709549879758,-0.04740240851461014,-0.006176932248822648,-0.0002931365994925573,0.9988567320922163,-0.2104298949101578,-0.8040723768534095,1.3455546170641317
1729842183.3487267,0.5015603153993882,-0.7046212666468267,8.115739945015745,-0.04326738623000425,-0.03071218790208022,-0.001330711775939989,0.9985904686152679,-0.17478660395276627,-0.7408372934194989,1.3381682768816323
1729842183.3567252,0.23701100491346103,0.20187445314666969,10.897086066618822,0.00926101122964562,-0.010870712178766891,0.00010068405528397633,0.999898020375304,-0.1631915007919581,-0.6939567520684499,1.2630719225694356
1729842183.3647368,2.4897213307312795,0.6531162807747206,13.526686865801372,0.024017032848312296,-0.09075618862545909,0.0021893689920533532,0.9955810881202796,-0.2528660828473544,-0.7092488135269477,1.0247508220783552
1729842183.3727539,0.8871420977551739,1.0584155106523323,14.68977161777184,0.035938775646956043,-0.030057505719626912,0.0010814181226498749,0.9989012870598157,-0.4296952598431193,-0.42299514774739644,0.9856265367804427
1729842183.380755,-0.2929960536027551,3.3009928549753838,16.044112564168962,0.1012784503926225,0.008896560394536753,-0.0009057233759251146,0.9948179262379533,-0.5502662281302872,-8.581201706697739e-05,0.9983356208259678
1729842183.3887763,-1.5215783853354812,3.453029733981324,13.600842294360753,0.12380706751463887,0.05356310247990637,-0.00669281675704257,0.9908370250904078,-0.6664548854331773,0.4831067325491657,0.804609672181742
1729842183.396747,-0.7822236205567573,3.261975485652466,10.993324780913328,0.14363775081530822,0.0336945740019436,-0.004893422957873544,0.9890444512939256,-0.7787370859611145,0.770468118920133,0.5585386342492868
1729842183.4047399,-0.8732359924024138,2.9572433248387453,8.77711258095034,0.16159038459332098,0.046366140826678684,-0.007600717980653386,0.985738787751604,-0.8759047105802189,0.9356482196978588,0.26488432040833687
1729842183.4127543,-1.1945574804512138,2.7885298181454345,8.727086048326063,0.1536839367142353,0.06400857786217784,-0.009976823368513793,0.9859942254149108,-0.9793284318666571,1.0207085081362475,-0.043697877010924924
1729842183.4207335,-1.0923847287492439,2.2012787771177296,8.67887419613431,0.12364256165992861,0.06019747487532979,-0.00751457827329574,0.9904707527626342,-1.0609644074657734,1.062805189908578,-0.28376121339108407
1729842183.4287243,-1.3947603099057964,1.9351194122667312,9.20204998765129,0.10315886629185252,0.07316528627722971,-0.007608967714192991,0.9919411236558726,-1.0848302791989832,1.031446420797526,-0.48441599339362973
1729842183.436732,-1.8881501349180871,1.6365600970670702,9.856410938635694,0.0818039613021352,0.0929369041531286,-0.007661784680134785,0.9922762421912691,-1.0740340886126494,0.9572914513408308,-0.5873555688752139
1729842183.4447286,-2.2033376432067118,1.481845364880867,9.485756019968527,0.07689297814679866,0.11221787253417498,-0.00871006781932554,0.9906658133367692,-1.0352039295897346,0.7425224450820009,-0.6525248346558605
1729842183.4527304,-2.310089611070511,1.1230207211257857,9.377566487957678,0.05911332649822525,0.11944265580351675,-0.007124386469558042,0.9910541406615226,-0.9910470211643462,0.5017045551621887,-0.7316412599016795
1729842183.460737,-2.524975496378635,0.8557717588473464,9.124707938428903,0.046300071264437054,0.1338691208221368,-0.006261408572853543,0.989897043461541,-0.9500794140194041,0.3550853709029912,-0.7740028343116265
1729842183.4687335,-2.5808838769287434,1.3073803258162202,8.993822363154997,0.07139597583863183,0.13754681385071568,-0.009940884350509853,0.9878687501140503,-0.8905922646925523,0.3428866912877143,-0.76281043367186
1729842183.4767575,-2.304379790268574,1.4564806014955913,8.718008801193779,0.08197470081353334,0.12673650656694369,-0.010510185695974754,0.9884875023622579,-0.8489403142359727,0.3845218405866819,-0.7322563498461263
1729842183.4847498,-2.193065136124035,1.483452103573136,8.619558310501425,0.08444551571748768,0.12208569416591343,-0.010425672120164741,0.9888656852758505,-0.8230977638391008,0.4857014511677661,-0.6798686946337236
1729842183.4927385,-2.3791040389498113,1.3052258300149755,9.99868495334187,0.06440456224437467,0.11534903040612551,-0.0074949097140831105,0.9912065778004376,-0.795672911880041,0.6034516857523289,-0.6148065866507815
1729842183.5007393,-2.2161124502253555,1.4274151647570321,10.760559813557858,0.06554598353166846,0.10030734743355606,-0.0066226050707939065,0.9927730360942456,-0.7736840299055986,0.6698449258884462,-0.5366058362065094
1729842183.5087366,-2.1652438495297446,1.3209242209245318,10.89422808540034,0.059996362702387014,0.09707131935401446,-0.005862323339724115,0.993450164118168,-0.8017826366827502,0.6947817178189455,-0.3509104259033237
1729842183.516751,-2.2855573937022213,1.345375695884797,11.185358214765595,0.05950518886968817,0.09973222690414667,-0.005975123573518793,0.9932154415395502,-0.8446088944982251,0.7323053662347327,-0.1483955065685376
1729842183.524739,-2.135563606143208,1.302346320851191,11.021496177638653,0.05849933195592001,0.09474351604160663,-0.005577202001861286,0.993765761709778,-0.8937176025679217,0.7424745435018061,0.12849031746597558
1729842183.5327265,-2.4315126412249874,1.244446393584933,10.742416730020691,0.0572665513504252,0.11017403513088475,-0.00635862492517268,0.99224079334024,-0.9278654180858221,0.6774858095978908,0.34911013975382355
1729842183.5407267,-2.3031030901060863,1.146260093231038,10.103790174731165,0.0560885902577352,0.1109596482681611,-0.0062723624131717755,0.9922210862347483,-0.9160016627254479,0.46097981362587453,0.5483153727760713
1729842183.548726,-1.9444992442003703,1.0892636743468258,9.142414540629714,0.058923965264068935,0.10369857641967711,-0.006154379846285372,0.9928427343616907,-0.8454555903513807,0.2765878881755247,0.7346718522389589
1729842183.5567224,-1.7674047430534252,0.974381227069033,8.699664453137594,0.05545212681020757,0.09928952895773269,-0.005541855211573081,0.9934968238058892,-0.7835462040996869,0.14892513044683356,0.907359418705762
1729842183.564739,-1.6805410758125239,0.7457585079699353,8.330824309089587,0.04439706723542498,0.09888018913053508,-0.004416051110102069,0.9940986405337228,-0.7259674493984931,-0.023878478080800278,1.1433615677005355
1729842183.5727892,-1.6255498334757956,0.5168869529264924,7.752305334965471,0.03309814795214839,0.10288352325950623,-0.0034253378893078688,0.9941366909556213,-0.6807779450412261,-0.18630587167914092,1.3245520328133686
1729842183.5807664,-1.5022936854858682,0.5586503040801142,7.514369546194126,0.03690858823389132,0.09816980979134605,-0.0036434268485511585,0.9944783406394084,-0.6200347275713654,-0.3625149692086212,1.4281580311435242
1729842183.5887687,-1.4644924417602707,0.5126005254656466,7.987875580255538,0.03190034867342897,0.09031099315622754,-0.0028942705321542334,0.9953983702356239,-0.5431482412505559,-0.5265599661466076,1.4085891383409073
1729842183.5967689,-1.4729363171069436,0.3353330545372004,8.149396075692385,0.020475729984148785,0.08919405663695047,-0.0018340124402564085,0.9958020893433743,-0.4863740979215195,-0.6662789002712166,1.3432108549151214
1729842183.604762,-1.2608485517387755,0.2239447484938046,8.006409366606837,0.013936930015313825,0.07798161665026133,-0.0010902512326867266,0.9968567804848445,-0.44124167032608475,-0.8263087817476856,1.212886211706775
1729842183.6127694,-0.9794093056038122,0.14609843723104837,8.094436381682852,0.009006515404740014,0.060157734334350316,-0.0005428168019375733,0.9981481027532645,-0.40096582186350094,-0.9504222546900611,1.103616051295039
1729842183.6207373,-0.7636194053837717,0.20497494368628527,8.311015984283149,0.01231526310311118,0.045778235229263685,-0.0005644056559037669,0.9988755522687753,-0.3474276985450705,-1.100663169395728,0.9507874924482809
1729842183.628723,-0.34061634171659116,0.3961633756355993,7.580966509515203,0.02609528391231208,0.022410066505081955,-0.0005851434141383468,0.9994080661491374,-0.28550652025167,-1.2865879820480854,0.7109502157514389
1729842183.6367304,-0.10548927646550157,0.2772023527739377,6.938232582711074,0.019963894240077103,0.007593796794276721,-0.00015163635175362324,0.9997718510657495,-0.22877207044837627,-1.440711875785703,0.5112824516818076
1729842183.6447277,0.587929285683199,-0.015398494341496781,6.678527233952816,-0.0011516783043128338,-0.04388896008065574,-5.059474909835039e-05,0.9990357502413482,-0.15088532423581077,-1.6306692361030786,0.3301824243894963
1729842183.6527655,1.2058116229235913,0.7145280652603363,7.308002169229112,0.04854472966963945,-0.08119524791470795,0.003959389151659182,0.9955074405422173,-0.09053119454148646,-1.7335757106954912,0.214285676969255
1729842183.660767,1.069449113646733,0.7002193074179205,8.500194535180045,0.04100096183034631,-0.06227641315254475,0.002560528716540405,0.9972131232522624,-0.060278377585360324,-1.4726465288627189,0.10388138261675516
1729842183.6687622,1.6345448966548366,0.849411942116768,9.36514755851037,0.04503636959412617,-0.0858569111294596,0.003885015106337743,0.9952814792221911,-0.05830290974724184,-1.0649318835004569,-0.05388455720908153
1729842183.6767645,2.1332956171921205,0.25514352879545144,10.066078698680439,0.012598582722176567,-0.10418918099470695,0.0013199262038328565,0.9944768212843681,-0.06478005015068733,-0.8488243304010556,-0.20771503964780594
1729842183.684767,2.4667831332547254,1.316189283781177,11.383505324677014,0.05718765888276228,-0.1056405956044104,0.006085519539019552,0.9927399471582649,0.06500034490632332,-0.7996152201577389,-0.31618955144659777
1729842183.6927617,2.961601867257523,0.6403153866749564,12.355681206280817,0.025699945636454884,-0.11716737362450569,0.0030331094722272473,0.9927749591922372,0.2450341966914173,-0.7164528062675328,-0.3655237262517777
1729842183.700762,1.9596387070244354,-0.25697797258486993,13.913426810926694,-0.009210215623897327,-0.06989058907547362,-0.0006453129759046847,0.9975119352960182,0.39945472446183505,-0.2625754896059413,-0.39342147088903756
1729842183.7087383,1.6110490860310676,-0.6107610401427188,13.539403546272814,-0.022496743096678512,-0.059107296330751194,-0.0013323901465790789,0.9979972188373112,0.44698389460911037,0.22600145161372573,-0.40207200650361485
1729842183.716731,1.316182894001453,-0.88312534234735,12.008952581865252,-0.03663860086894103,-0.054372860706706334,-0.001996445305068947,0.9978462903428962,0.49593451964765317,0.5004172536411966,-0.3646933217261581
1729842183.7247245,1.179725186840325,-0.28399069491036305,10.201954346970712,-0.013890446509174769,-0.057503512943654383,-0.000800151058049574,0.9982483464815752,0.6151254976392675,0.6522960330138181,-0.22562703401908735
1729842183.7327266,0.8021666575143511,-0.4260951542509054,8.895812912137506,-0.023903521795689813,-0.04488597339764473,-0.001074323533119324,0.9987055205949625,0.7168640787980403,0.7613022832187963,-0.1191999980758952
1729842183.7407262,0.38888381042657943,-0.2599666555388245,9.088004647917268,-0.01429495245379023,-0.021369856332695097,-0.00030558210858490115,0.9996693904457807,0.7813127479850002,0.8186179221740046,-0.04470152497342912
1729842183.7487366,-0.1808666009510836,-0.7243634674443884,9.039077455498408,-0.039970277958850116,0.009963277368750073,0.0003985733086099142,0.9991511152589899,0.7982717563626125,0.7738289541151917,-0.026820914984057472
1729842183.756746,-0.6694814095452595,-0.785129203513508,8.926881762605685,-0.04381692838335753,0.037240109714365394,0.00163445400941515,0.998343918484808,0.7871626583160785,0.734184871436043,-0.016092548990434483
1729842183.764739,-1.1968032170650462,-1.295879994031933,8.335713023627864,-0.07683796616452038,0.07019787606719491,0.005423394799439034,0.9945545595593055,0.7673008075828349,0.754670188220605,0.03035933638317028
1729842183.772768,-1.770812400209731,-1.5209276118976753,8.308777987516562,-0.08989753728114602,0.10271884303259923,0.00932183382732776,0.9905959698539687,0.77028284929406,0.8125102148677796,0.08079204086482082
1729842183.7807634,-2.368045605409042,-1.8486894162596987,8.918940120146656,-0.1011551337327177,0.1261715346518106,0.01293424093839939,0.9867527999324199,0.8227291916347768,0.9595964070820608,0.12978202625814053
1729842183.788769,-2.597577479212222,-2.1439876072753505,9.296290147527445,-0.11205051795498439,0.13167434346585705,0.014981508922651626,0.9848259252727132,0.9154963658897393,1.055510543516946,0.11532994116354309
1729842183.7967722,-2.853570165505849,-2.5591501669042724,9.611525045547717,-0.1284261772231028,0.13806563956861445,0.01805817912453242,0.9818953601790141,0.9992522144992109,1.0700643291702119,0.07856314605029055
1729842183.804764,-3.389280362242962,-2.85565289555272,10.551487624984881,-0.1302198787477963,0.1484595094298158,0.019724725434857197,0.9801089186642917,1.0605736652629068,0.9476840616318658,-0.002242159499421345
1729842183.8127344,-3.548619027892652,-2.8896630129663974,11.07213012259835,-0.12580135314799082,0.14857095612347335,0.019058598653132777,0.980682140328899,1.0914068748606558,0.8125308421968636,-0.10053108002030617
1729842183.820722,-3.611661084704341,-2.8784656215005415,10.824511852855885,-0.12794710461176578,0.15402187939012812,0.020118237282240267,0.9795417579762764,1.0907507478535137,0.6782276528531083,-0.23995985394916103
1729842183.828722,-3.558267235539401,-2.485562458837825,10.136527256977201,-0.11825776422765892,0.1623704335033567,0.019605004908906754,0.979421557505413,1.0648156679615068,0.5601850138381963,-0.3410704108264172
1729842183.8367324,-3.2978240876615317,-2.197387544882773,9.61719452557304,-0.11056112406573938,0.15959810094972443,0.01799065242037512,0.9808063113806166,1.0394637486126759,0.44466197397573587,-0.4174872772268661
1729842183.8447604,-2.8310302436125436,-2.007244344556617,9.386518902843823,-0.10401550957209665,0.14212064245517006,0.01501923644439287,0.9842544992496677,1.0008396436229656,0.2625402837708212,-0.5050550230904145
1729842183.8527691,-2.554784659839401,-1.7638715347124858,9.06878782486059,-0.09499487212944595,0.13386582869840097,0.0128925282369132,0.9863517105432833,0.9619146483550441,0.09920463184219441,-0.5580213606700056
1729842183.8607392,-2.275791571050125,-1.4363673629661633,9.257151300873385,-0.07632387026117524,0.11852536456185364,0.009137957640043272,0.9899711624658588,0.8964163351095502,-0.07840080080838158,-0.5642597595300385
