Time,Accel_x,Accel_y,Accel_z,Orientation_x,Orientation_y,Orientation_z,Orientation_w,Gyro_x,Gyro_y,Gyro_z
1729576227.537946,-1.7219693105155107,-2.3108178478268333,11.938267607971115,-0.09520849955012228,0.0699589765853871,0.006707822663856627,0.9929733573080648,1.2381944307822246,0.3029216447155205,-0.907155804870062
1729576227.5459766,-1.9073046124323534,-2.305145885698053,11.740434718835402,-0.09647181578113351,0.0785882600076766,0.007641161492814678,0.9921989149358598,1.2286290185975128,0.28689843201043413,-0.9904166673342463
1729576227.5539434,-1.8181111146273807,-2.1865816085672694,11.659563371584445,-0.092280047209463,0.07563967569258637,0.0070304332736179,0.9928311061586078,1.159887642190305,0.26877070315814167,-0.9220313477263121
1729576227.5619442,-1.5155980432881473,-2.1379485378942675,11.148001962159652,-0.09438061979054724,0.06602104720127251,0.006272980719127875,0.9933248057142724,1.0807564008758597,0.24427198387998117,-0.7979905939764553
1729576227.569952,-1.335526721480701,-1.4551516422678106,10.737875024952041,-0.06716513938190131,0.0611378645962506,0.00412341061057821,0.9958584252037821,0.9672956965605775,0.27043899821343986,-0.6635438430603949
1729576227.5779507,-1.4307516493434986,-1.2930339565520925,10.192523655107943,-0.06289467387491642,0.06899066048230114,0.004358220153129309,0.9956231991478908,0.8634613088085974,0.28315937638328087,-0.5441379969177138
1729576227.5859532,-1.5690500423404743,-1.221141882720318,9.634272372996406,-0.06278682236214635,0.0798477019376988,0.0050395136636548375,0.9948149389383769,0.7994579159115613,0.24822259713898231,-0.42779703277859177
1729576227.593963,-1.6869844223769408,-0.9326009682552375,9.781992658416984,-0.047329184930754394,0.08481290250727158,0.00403322686267979,0.9952640116587943,0.7308318858095355,0.18469152344620005,-0.25667821966715504
1729576227.6019406,-1.5925451358480396,-0.910311124166033,9.83734542659316,-0.04596720560403244,0.07974210573944988,0.003681173041723653,0.9957482922637788,0.6432560510489584,0.14189028855444832,-0.10420119460923533
1729576227.609969,-1.421917564907261,-0.4772336666871198,9.619405333348473,-0.024713696540222842,0.07320052804385516,0.0018144821362561737,0.9970093397516373,0.4889706255031867,0.0932222843004476,0.10264702708172707
1729576227.6179698,-0.9960843780556847,-0.39790999737555316,8.800547720272757,-0.02255257894507432,0.05625124543777729,0.0012709478110694546,0.9981610908371887,0.31807239886670985,0.04060852836763542,0.3370096860149707
1729576227.6259732,-0.8389861541771608,-0.26627931751712874,8.301092866782794,-0.016011500741498805,0.05031021745585356,0.0008066674186208233,0.9986049585052267,0.19424895981172216,-0.007561637589071121,0.5363725098566773
1729576227.6342683,-0.8979561261000465,-0.12361514544191786,8.14746625595835,-0.007573575466077916,0.0548495677302746,0.00041604562956424685,0.9984658195353989,0.11101540508802688,-0.0747758426946779,0.7760348014939942
1729576227.6419837,-0.9862499659432309,-0.2273979935151507,8.285373069004697,-0.013693967176275206,0.059176530989055696,0.000811860758997881,0.998153271960366,0.03212834807439157,-0.1708697638095681,0.9777260248352204
1729576227.649978,-0.8764205569585166,-0.08520288058174667,8.067884268648912,-0.00527211620048525,0.054073104040077584,0.00028550136745417865,0.9985230206155533,-0.03819114945273934,-0.26002718102669253,1.107254560069197
1729576227.6583307,-0.6271270643997193,-0.24577032331975115,8.03100427334755,-0.015283908672857302,0.03893249324574222,0.000595561924126942,0.99912477119294,-0.11614081313182853,-0.3292721636310624,1.1922084122544372
1729576227.6659687,-0.28050817223358154,-0.5968538456031788,7.554456801069076,-0.039404313671061474,0.018484192808366866,0.0007290479942725876,0.9990521023296822,-0.1744042429987569,-0.35719707122689925,1.2551000452865184
1729576227.6739738,-0.5286322531936646,0.5236721640736396,9.331133047926603,0.028015773562127214,0.028236801363582933,-0.0007917026455384965,0.9992082729278168,-0.17530709600195138,-0.34287664129767315,1.318802118854951
1729576227.681941,-0.6200458619259643,0.5979161951726993,11.595436726949321,0.025747197645884578,0.026663806759531047,-0.000686990547236575,0.9993125893665415,-0.17201759725070978,-0.3210879914348144,1.3131772866654212
1729576227.6899605,-0.009066545475891162,0.9608914346329164,11.301062108191077,0.04239859914043012,0.0003993351632205219,-1.694649157024382e-05,0.9991006951429735,-0.2636957115216118,-0.3088661816400233,1.2327524862270758
1729576227.697976,0.4458670856539184,1.733173682801234,11.372716049094334,0.07553015702730519,-0.019312494872891214,0.001463130407946263,0.9969554063099435,-0.35701468561573585,-0.1831912586767038,1.2121674599591006
1729576227.705974,0.3415010826911791,2.57219327218074,11.855283838440975,0.1066132038762366,-0.013991026371399864,0.0015003285548619877,0.9942009982667218,-0.44110161412870436,-0.0537236670930341,1.2555818422498415
1729576227.7139723,0.15486183491744185,2.9202213380643034,11.882659430261851,0.12019580095496785,-0.006281749308383181,0.0007605691978258387,0.992730039130939,-0.5634953916235688,0.009483425767458642,1.3786878056376293
1729576227.7219772,-0.0026115452897692783,3.3651064612858477,11.838272063186407,0.13803358067934499,0.00010508214433612187,-1.4645053785339338e-05,0.990427543714382,-0.6675813425457537,0.057624242958843046,1.4538284538546882
1729576227.7299747,-0.9087299362070647,2.5376479563613525,12.190881185909891,0.1023637123974186,0.036224564828002646,-0.0037301625774487463,0.9940802468485058,-0.8304957676041043,0.15972742384514313,1.372908584592162
1729576227.7379763,-0.89814328643127,2.4484265557992333,11.10502877990531,0.1082033415103154,0.03916646456001058,-0.0042663228341447475,0.9933477857373753,-0.9933750020428054,0.2844171515347659,1.037867251670699
1729576227.7459788,-0.9518857582357151,2.594091293586962,9.975634684935372,0.1267213268901842,0.045656130916591035,-0.00583891545681482,0.9908698855486558,-1.0710951098173105,0.4043541346635149,0.7240345856303829
1729576227.753973,-0.790200906845726,1.9689757221970992,9.936771230883098,0.09757542262667071,0.03872849389299316,-0.00379997425106154,0.9944670436247237,-1.0355689926198415,0.5410212138829931,0.4369748917470019
1729576227.7622013,-0.6125054000644669,1.4782664391776343,9.978814863773998,0.07343403882461809,0.030235171770434003,-0.0022273310096730214,0.9968391622154951,-0.9708329360322328,0.62302146141468,0.2809152977525305
1729576227.7699804,-0.97275741972618,1.1239858278620494,10.118005042531978,0.05522359958697296,0.0475412741384757,-0.0026324075373441442,0.9973380829651023,-0.884739705257382,0.6756271304253885,0.12598017250531512
1729576227.777971,-1.324899285820083,1.054111880018011,9.638163499151998,0.05431030994726805,0.06775117147679782,-0.0036935631798042314,0.9962161043608911,-0.8156304742725282,0.7110217423849718,-0.16875799177601708
1729576227.7859704,-1.6515849254959563,1.0006953433428378,9.344033648807605,0.05310885978202501,0.08675243786935785,-0.004631394733347328,0.9948024998557253,-0.7665025145752995,0.7514145623265132,-0.42179941134652005
1729576227.7939696,-1.6536659748288236,1.3577031911131245,9.533629172438859,0.07040565966555415,0.08471763292088208,-0.006001230250832551,0.9938963482148515,-0.733620218265266,0.7952319971186914,-0.6408832927998228
1729576227.801978,-1.5888346386082317,1.383244808954984,9.729986443893003,0.07031408225341279,0.07985497759765758,-0.005647075958826676,0.9943074086633636,-0.7236817118928727,0.8147114170106058,-0.7774419024093489
1729576227.8099973,-1.5133045514754857,1.462255543820256,9.685473934206895,0.07462247797709005,0.07635130987788946,-0.005730369639734736,0.994268135929278,-0.7360232807123039,0.8651368645387993,-0.8359641147946527
1729576227.8179846,-2.0624667714126352,1.5525181944562159,10.078469979420621,0.07595109123532424,0.09932544205183493,-0.007603770520275542,0.9921230120177871,-0.7757806666750773,0.9801044552866598,-0.8310625764484041
1729576227.8259869,-2.279915465679612,1.5312584325428702,10.34371628696878,0.07297895338350491,0.10684466497824935,-0.007863761280407817,0.9915626309957726,-0.8256021920019252,1.0567474308416926,-0.8196078522114143
1729576227.8339772,-2.0735205086558137,1.3224174594280655,10.16647873824572,0.06429524706695194,0.09940669117224303,-0.00643677878771037,0.9929466243628727,-0.8682658090418949,0.976303267920489,-0.8195460586526129
1729576227.8419807,-1.7571897209649725,1.5014159065650423,10.006506091824384,0.07411165430916906,0.085629204320511,-0.006387343817687116,0.993546327003401,-0.8827960376678639,0.809694933081322,-0.7863051577232936
1729576227.849975,-1.7572514400008588,1.3401855485776972,10.504763356022366,0.06318119961573906,0.08196124296211538,-0.005206434825728531,0.9946172046087011,-0.8817233034298184,0.5552044398671043,-0.5760771596921739
1729576227.8586452,-2.529418506822781,0.8699518748009152,10.883444629824355,0.03960272047465576,0.11349141818676148,-0.004527442436128407,0.9927390517119549,-0.8623493001826618,0.44039655940869454,-0.32989576354120914
1729576227.8660033,-2.8232092693768713,1.2332884381129712,10.498216609437582,0.057919103729052006,0.1299046842609496,-0.007601465855138641,0.9898042069758743,-0.8239064243622598,0.37917425223996526,-0.18176123578916828
1729576227.873947,-2.4423530005909666,1.0914418665787202,9.562945088953565,0.05633375464764177,0.1237332302194636,-0.007035859809122005,0.9906902101583032,-0.7510349616789609,0.28029011896527106,-0.02306734905817058
1729576227.8819394,-2.0675535178838764,0.8078546060312164,8.865073261868233,0.04511517649197422,0.11374303375867569,-0.005170460953533641,0.9924718683443873,-0.6890074114261142,0.1715795918708589,0.15686130521137231
1729576227.8899393,-1.6101968470584507,0.8349844664995892,8.42145046835141,0.04916622552227022,0.09375777473661683,-0.004635817943276628,0.9943694842141567,-0.6058163546365067,-0.012839941595157264,0.4052962180555685
1729576227.8982162,-1.7234040933424923,0.8306722485032692,8.02694758325694,0.05123971941685797,0.10486713446065082,-0.0054104207132304755,0.9931505941254827,-0.5324887671823306,-0.20990674415155935,0.5850068501873524
1729576227.9059558,-1.8997857763179955,0.5879464911918052,7.926475926663149,0.03674637968028735,0.11695974574615546,-0.004330555209972385,0.9924471611864081,-0.4752958228045019,-0.3541139194345845,0.6894277089747266
1729576227.914032,-1.8119238717966566,0.5924274808967237,7.798676445890467,0.03764529423538496,0.11349968536568283,-0.004303649673911247,0.9928152556459366,-0.3894715587408989,-0.5164110555446413,0.7073827677936377
1729576227.92198,-1.6976757464178374,0.5335850920536592,7.83021467246592,0.033812355258806846,0.10625083149053076,-0.003615157669099769,0.9937577250388802,-0.3030704152628505,-0.6963732091343094,0.6692014460168508
1729576227.929982,-1.4684759397940617,0.4630848943435236,7.336778453137755,0.031352861754001655,0.09837162403507592,-0.0031008185270945746,0.9946508968321489,-0.19886985161619156,-1.0061275904211133,0.5773308629939295
1729576227.937977,-1.2481166783783901,0.3049054153658798,7.046223385359216,0.021534680313432145,0.08744449696639328,-0.0018907756527563047,0.9959348083391422,-0.11932191096971492,-1.278395301669988,0.5673316596951521
1729576227.9460032,-0.8554119809039872,0.34311534028398094,7.294945778041701,0.023456319070174637,0.058250950524548886,-0.0013690561826032615,0.9980254273032495,-0.07159314658182896,-1.4515467998329397,0.5915561320796899
1729576227.9539773,-0.27909426617911104,0.2781740943071073,7.554073069852364,0.018399579502233275,0.0184480326039791,-0.0003395513380664706,0.999660447488082,-0.045935718379331594,-1.4341160312140315,0.5754411310851463
1729576227.961956,0.11051025303667399,0.8051986191819207,7.7040427811204015,0.05204423872733219,-0.007123157867662626,0.0003712318858770305,0.998619306855306,-0.034798162072453495,-1.2729632882851276,0.5010672411461913
1729576227.969961,-0.3119777104826831,0.04641678869665239,9.93396205172888,0.002335949196327008,0.015696564090125084,-3.667099417611189e-05,0.9998740720072479,-0.045994610869731965,-0.8931877516555341,0.3551286725548548
1729576227.9779367,0.09485032927679643,0.36447482663596015,9.335243891193578,0.019510031557081302,-0.005075197685890477,9.903739388807406e-05,0.9997967749641351,-0.042921608734472316,-0.5661366453571246,0.22882773580700805
1729576227.9859369,-0.14156912006087527,1.0801186533057947,8.696849081298177,0.061740523055762685,0.00806085022857487,-0.0004986487081478397,0.9980595582708776,-0.0231988248719112,-0.36990598157807897,0.1372966414842048
1729576227.993941,0.03572629163534985,0.28463137997175814,9.31458848930625,0.015273419191536646,-0.0019166311626412328,2.9276980002672538e-05,0.9998815171479292,0.01247348888749924,-0.2019361560581319,0.05087692034233254
1729576228.0019548,0.3278935874812099,0.47412417832485176,9.826250611894299,0.02410087630990265,-0.016653407015802858,0.0004015340678915795,0.9995707331481115,0.03217411689729738,-0.11562772283587272,-0.012894234063727701
1729576228.009987,0.7576976014633353,1.194989398352333,10.82804520722447,0.05489579343089125,-0.034661297306454016,0.0019067856406559157,0.997888475983738,0.10273972218493663,-0.14812929507199946,-0.07286711984192745
1729576228.0179589,0.516628383876048,0.6518713538551498,11.728876012274135,0.027750069158766832,-0.021965447610170417,0.000609924903365346,0.9993733440334401,0.1816884306432549,-0.12931813288209268,-0.13950053573411358
1729576228.0260067,0.049966730032660084,0.2615965024986368,12.65699574408323,0.01033239185123668,-0.001973339636128687,2.039044653733495e-05,0.9999446720661812,0.21926678430461913,-0.05034671579568558,-0.19948801815814074
1729576228.0341465,0.11688955828326794,-0.4899553870750366,13.519846555336658,-0.01811076542816073,-0.004319222417943344,-7.823798627274448e-05,0.9998266541616742,0.2298944747805008,0.09749898896119814,-0.2878403851723869
1729576228.0419798,0.10580733970628889,-0.20227530866103755,13.355448989110197,-0.007572050247025587,-0.003960543899101792,-2.9990532425151126e-05,0.9999634879572592,0.2575555921391313,0.18492934163094227,-0.3348921445204662
1729576228.0499837,-0.33562901292427355,-0.35336332606576315,11.900495208895805,-0.014840142272120906,0.014089509665268314,0.00020913412397706335,0.999790584151328,0.3546076841706336,0.25739498612150424,-0.2950127902953887
1729576228.0579443,-0.05868298880925162,-0.259183768344536,11.13358607431209,-0.011637318700210987,0.0026344840837820563,3.06605135189904e-05,0.9999288131497236,0.4737126181786055,0.37707289381754505,-0.2429896337038481
1729576228.0659788,-0.0469413814203166,-0.39516984718836223,10.52260588897202,-0.01876721536869717,0.0022285213580200943,4.1830611401112495e-05,0.999821395835307,0.5609261108574838,0.47569811230727754,-0.20581607888845532
1729576228.0739815,-0.2364603732857837,-0.7765155423462204,9.807661436215243,-0.03949154319006631,0.012005297528762305,0.00047451216700735745,0.9991476696094108,0.6247478381242857,0.560840337150301,-0.18223487581483355
1729576228.0821605,-0.5259061702605328,-0.7867323478686697,9.220198614658832,-0.042529759062302025,0.028355940127334604,0.0012075507833389212,0.9986919955995959,0.6724060558365315,0.611925672056115,-0.17021460427797064
1729576228.0899472,-0.8891944199297571,-0.9717092951958113,8.612977865084362,-0.056066259614074986,0.051012395803289444,0.0028683382219192835,0.9971188909268245,0.741441542302772,0.6272520307869703,-0.15959692086415667
1729576228.0979567,-1.1986258731492605,-1.6197148959651428,8.267559608454913,-0.09632925704091733,0.07027434697051356,0.006818279280837381,0.9928422339241322,0.8364997819267324,0.6258055944889327,-0.17153098345873563
1729576228.1059604,-1.5104591725711969,-1.8742035432919764,8.423269626156932,-0.10882311434500656,0.08601572340659934,0.009452303704736983,0.99028757392273,0.9241844101263748,0.6189780718496416,-0.1893336725520338
1729576228.1139822,-2.0507038970974056,-2.332875703856045,9.335752024717598,-0.12142970496122601,0.10400693871583336,0.012795190948915913,0.9870530211394782,1.0266009242372178,0.5880630843939589,-0.21789426858941802
1729576228.1219568,-2.4517046051041462,-2.648541008251127,9.97493938743798,-0.1284858962639606,0.11537416571801645,0.015051803774537655,0.9848622337917377,1.1003958444861226,0.5546149397693784,-0.2499297783630197
1729576228.1299872,-2.738513121949206,-2.7057802592475513,10.51431433314638,-0.12460838693522684,0.12225232448346886,0.015473125512031775,0.9845240989689782,1.1476526270656997,0.5332689828102439,-0.33428166363087153
1729576228.1379466,-2.6766847298589767,-2.790880885040718,10.935143887973766,-0.12373936799894884,0.11526829607429716,0.01447321949059827,0.985490900335932,1.1419514916964835,0.4727841217510157,-0.444063713334805
1729576228.1460018,-2.4638532927493704,-2.6097036994814617,10.861072514424885,-0.1169109142016167,0.10758391415425778,0.012740611112274087,0.9872158914767718,1.1121380266643077,0.3756195263264082,-0.5146155338332474
1729576228.1539462,-2.0747076091945442,-2.24481781050919,9.45097706334243,-0.11566640374229001,0.10430298202790791,0.012214329298440572,0.9877211049406612,1.0103890055369822,0.26623796169619995,-0.5237428013382744
1729576228.1619518,-1.8524729468643828,-1.740736859401217,8.632453111784756,-0.0987715605562245,0.1029712587464333,0.010276325407263856,0.9897148558214063,0.8884659140715163,0.21295403470047392,-0.5096374190140371
1729576228.1699424,-1.7040486790073013,-1.4342181459141676,8.98673134705132,-0.07869438212030583,0.09213141506267275,0.007304236080704834,0.9926054829168184,0.726768526408134,0.15629365493824046,-0.477335546177621
1729576228.1779697,-1.5481958919746932,-0.7551860145016256,9.858182585086261,-0.03809864676454723,0.07752861831690719,0.0029648313098070153,0.996257504981461,0.644223555899814,0.07164030976691863,-0.4456094106933724
1729576228.186473,-1.5114267991008314,0.24312223407246214,10.679610274928711,0.011351103062903397,0.07021507383009601,-0.0007990425378713429,0.9974669705796338,0.7092072001281083,-0.10856147602033206,-0.3610174599376704
1729576228.193966,-1.4934354861987802,-0.019565994273319613,9.914792756754101,-0.0009838386700195916,0.07468177098576827,7.36806093973727e-05,0.9972069292353861,0.7609680885089458,-0.22179082823022683,-0.24726016038786852
1729576228.2019746,-1.5535090675981744,-0.3696727447573511,9.835862049316132,-0.01872230613695103,0.07817661261124019,0.0014684002320621097,0.9967626278579593,0.746475784961011,-0.26546410605282794,-0.1483560962327211
1729576228.2105484,-1.542148023566717,-0.09586863953019192,10.298229158300616,-0.004641098013197706,0.07424978720016816,0.000345558145328956,0.9972288152172147,0.5977283726112417,-0.2942222131151608,0.009746436519558671
1729576228.217987,-1.3332607770306553,0.19602477209243171,10.155467032333885,0.009628477057908294,0.06520787369787143,-0.0006292210404141104,0.9978250496546126,0.36757651485744763,-0.35191763319145347,0.23529480503977024
1729576228.2259676,-0.8392213734449556,0.07930763669295902,9.705651684244081,0.004081588678457292,0.04311121958761183,-0.0001761274863658017,0.9990619261880803,0.18436225369019588,-0.412076288924951,0.43618009561705007
1729576228.2339573,-0.6153420415962703,-0.0635063750154746,9.04550760478473,-0.0035082119319306353,0.033953787677001517,0.00011918654027430421,0.9994172394680784,0.05272350385528122,-0.4886120382039425,0.6661136157591601
1729576228.2419815,-0.7039146170476059,-0.050314253476081636,8.955878969609119,-0.002806727192429887,0.03920757474857215,0.00011013008139006647,0.9992271394613778,-0.026259746045667567,-0.5511354001683566,0.8398316930072367
1729576228.2499886,-0.7537062799941886,-0.09291663558174275,9.473358304617033,-0.004899907286861083,0.039683891395917874,0.00019460302217443019,0.9992002511018104,-0.11323887170220578,-0.6320698036161323,0.9904627560554441
1729576228.2585323,-0.6088045565707318,-0.39740255825334253,9.543946899274127,-0.020795133759578772,0.031811882871486334,0.0006620107926801049,0.9992773029854137,-0.20544121287355968,-0.684887346299418,1.1012745168345461
1729576228.265956,-0.4701487666572829,-0.5906285991609899,9.295643974525413,-0.03171064639599271,0.02520100665862697,0.0007997968319858982,0.9991790152387948,-0.33398130814784144,-0.6246288186335907,1.216290240308679
1729576228.273955,-0.21481219334397908,-0.3263650000727658,8.992715052928139,-0.018135778803916064,0.011931307943796614,0.0002164345715480059,0.9997643175138838,-0.4400522894918286,-0.48843653759051686,1.3168007389413487
1729576228.2819538,-0.1284084756743562,0.10824461079618428,8.735540347674851,0.0061951141529348625,0.007348472372603575,-4.552672816158219e-05,0.9999538081540258,-0.47815347461049906,-0.3952275373051977,1.3775327281824128
1729576228.2899554,-0.13594244624445748,0.8018820374738044,11.039122948839285,0.03624767282348277,0.006136739113998794,-0.0002225929911377718,0.9993239700418922,-0.43077532554046605,-0.33547092658084793,1.3714029155808483
1729576228.2979677,0.04676374123770052,0.12247781379287632,12.249608250504743,0.004999057440207811,-0.0019086554906554384,9.541615037879838e-06,0.9999856830814554,-0.4189503484954656,-0.33452354518612465,1.3306899926727125
1729576228.3059561,0.701786591910589,0.4211247693304133,10.809865189560657,0.019457028449112065,-0.03237867850976777,0.0006304429616624194,0.999286069033069,-0.4633638597053711,-0.3237385548742019,1.2402802794012162
1729576228.3140786,0.11341704181627534,0.27039195388340426,11.577428364224675,0.011675014783782692,-0.004896351449842299,5.716955741537678e-05,0.9999198550403526,-0.5198102707336565,-0.15209981683978002,1.219238276232357
1729576228.3219705,-0.22404237744929728,0.23980730611910503,12.05424684031215,0.009945082698714004,0.009289588245282346,-9.239427988895549e-05,0.9999073908835987,-0.5873076322061284,-0.023149480269942943,1.2325801680802255
1729576228.3300066,0.007071891645656,0.5834598084761505,11.749688376404086,0.024805811662573927,-0.00030047665807335556,7.455861980453015e-06,0.9996922433258892,-0.6703750552358146,0.03208483847593365,1.2533560050328074
1729576228.3379812,0.11389757102254984,0.49971348884545586,11.333997476526044,0.022028553029142854,-0.005018314045516112,0.00011057442218543443,0.9997447409958604,-0.7334119009589494,0.04606937695766818,1.2602875364053503
1729576228.3459742,0.026679433726811155,0.7377275769498517,11.012996306960547,0.03343727684100477,-0.0012078834551966552,4.041096009690602e-05,0.9994400871998136,-0.7759165990689125,0.09064375527098158,1.18356534355109
1729576228.3539398,-0.4192582015803195,0.24032650588670784,11.207538013668517,0.010717850147324282,0.018689122697980395,-0.0002003537235341777,0.9997678751787261,-0.769066973263776,0.19699242375236953,1.0098250093999241
1729576228.3619394,-0.8417256301767072,0.0771582570476497,11.381005617039,0.003387322086831429,0.03690276247848192,-0.00012508746344169937,0.9993131123545129,-0.7470782151992887,0.30294494092594343,0.8272538376002109
1729576228.369939,-1.1438083810357118,-0.0669507842968008,10.871452293563243,-0.003074759209917362,0.052387994476727935,0.00016130273406417793,0.9986220595760618,-0.6917416442758553,0.4261130598347722,0.5559489111648109
1729576228.3779414,-0.8514849431722082,0.0342892010527789,10.348566208901616,0.0016552543008159838,0.0410359654555303,-6.798231521837147e-05,0.9991562966076614,-0.6376808887101557,0.5089534224707721,0.33356934669888655
1729576228.3859303,-0.6813581241064499,0.1122714442156517,9.761656148680814,0.0057467200635785655,0.034833286829665994,-0.00020030201772584547,0.9993765942907883,-0.5814057919288622,0.5633402307284544,0.16055243230336297
1729576228.3939772,-0.9070482399423856,0.42002877107040665,8.875363722167473,0.023610967658769612,0.05082973973580825,-0.001202029567334011,0.9984274710210681,-0.5429581431840038,0.6066145672196146,0.01545034770423176
1729576228.4019685,-1.1288929893755877,0.7540813507770096,8.515013105126656,0.04405099093192573,0.06553897908877716,-0.002896113138460089,0.9968729933881274,-0.523295074428785,0.6385388299747792,-0.11247714895560199
1729576228.410015,-0.9332759510960557,1.0648855951341745,8.995994258339666,0.05879775445120464,0.05121946759540835,-0.003020801665717134,0.9969504827061548,-0.5353358766175274,0.6666328789185806,-0.25521560647811714
1729576228.417972,-1.052452852151774,1.3423478048344109,9.395913327464736,0.07078047341613829,0.05505046235350684,-0.003912287828195498,0.9959639878939408,-0.5693788318028807,0.6932801796984881,-0.34171006111455027
1729576228.4259684,-1.3897153770625488,1.5009242651760368,10.039766589008137,0.07395294601940043,0.06778752793160252,-0.005038570350022497,0.9949424232792577,-0.6608948451782521,0.7514118762511737,-0.36040290910237166
1729576228.4342086,-1.9337254689133105,1.5967884018790595,10.336774824010352,0.07622480645116081,0.09101260497608839,-0.006987000369932822,0.9929036541592442,-0.744325687321431,0.8420562922343112,-0.3401175533468742
1729576228.4419613,-2.192615037207361,1.5075423221332949,10.711304301144493,0.06949210083129655,0.09958639767467814,-0.006972238069442649,0.9925748260038317,-0.7794850404561673,0.912619164159751,-0.3104930473736324
1729576228.4500258,-2.2076485608986354,1.7551852431334924,11.052619608274586,0.07827440842531802,0.09692859189992556,-0.007646832825431272,0.9921791627552476,-0.7482207747771792,0.9196246122136661,-0.24163553641424354
1729576228.4579573,-2.1936843391759,1.6667450313781422,11.252859809398347,0.07311128997153753,0.0948503164224132,-0.006985070919467,0.9927786085213137,-0.712008922849843,0.8735964537934955,-0.1662658249216477
1729576228.4659412,-2.062004420644212,1.5365876108679009,11.0052545550726,0.0690041385602534,0.09139036427581168,-0.006348203931358167,0.9934011931168282,-0.6545238465306307,0.7050761483974607,-0.05974462917555765
1729576228.473936,-2.1740537620056672,1.2298469000168342,10.6888578661002,0.056950326390494826,0.0993602191485504,-0.005696168108435187,0.9934041276558341,-0.5957684672357675,0.5073323212079587,0.07483263847479361
1729576228.4819465,-2.340882155885041,1.0182691544143974,10.337890080988243,0.04875786750218613,0.11046228949220853,-0.005425682525047,0.9926687840996694,-0.5485959179379127,0.38485481434109914,0.1879314437361188
1729576228.489932,-2.3016366555915715,0.9301085739474666,9.525167692391774,0.04829788741438384,0.11759278363088804,-0.0057260346269084285,0.9918701849721556,-0.47133803129106616,0.2879553568405717,0.3030423237151994
1729576228.4985218,-2.180884768013146,0.9157588723958235,8.988453125200689,0.050373754799455765,0.11799704935923443,-0.005993597435239945,0.9917173276492163,-0.394759304939154,0.185969606009666,0.3878593839767429
1729576228.50597,-1.9355722756028095,0.8109021447265566,8.241214170042287,0.04868443050596957,0.11441728704104051,-0.0056139990822213996,0.9922232579751306,-0.3202908350100506,0.03453186248117186,0.43151288908881447
1729576228.5140235,-1.9926101817679356,0.6043360085156214,8.05862718122459,0.03713310463304594,0.12049627023828453,-0.004510444524925504,0.9920087889172965,-0.2517711096107148,-0.09464288916750743,0.410879085395234
1729576228.521992,-1.9059257416291207,0.7315480809394511,8.17796066664491,0.04429164309836236,0.11368476324684261,-0.005073252473503328,0.992516139448874,-0.18298942037608124,-0.19939190409028504,0.36784911875381937
1729576228.5299728,-1.7073899359442692,0.4882494027628894,8.148764868004525,0.0297529012381536,0.10286155739568635,-0.0030781418799524615,0.9942458397803903,-0.08808345909108513,-0.40016489295764984,0.2705152084433493
1729576228.5379934,-1.2636147074161708,0.3853658257397649,7.693826745509746,0.02493432741527402,0.08117707067036346,-0.0020314379126777013,0.996385686254943,-0.010706759369909953,-0.6040639383246269,0.18487069832349726
1729576228.5459702,-1.0184185449086869,0.41246056111768703,7.589176248721862,0.02708160890660745,0.06652744364349664,-0.0018063389257975293,0.997415371267646,0.06296342439636518,-0.8502791734302643,0.09134067616684491
1729576228.5539951,-0.9795187624432589,0.5256825695807684,7.599409101283899,0.03445178875158676,0.0638608617267853,-0.0022059412530799597,0.9973615184147202,0.11397657563952276,-1.0456856013773943,-0.05289517984978705
1729576228.5620308,-0.8273708436475959,0.5244233466801017,7.564129124100417,0.03454971600142161,0.05428517352767432,-0.0018794356515666147,0.9979258012402139,0.15139550736880983,-1.173146019620761,-0.19690485175714048
1729576228.5699565,-0.17224760140340126,0.48679710737329535,7.2659520057102505,0.033439854200240794,0.011817458207387473,-0.0003954228851741891,0.9993707857813962,0.18619187818878097,-1.2960224872661426,-0.3786652286690476
1729576228.577969,0.2799631249489749,0.9049938894239771,7.694215275691775,0.058497689287720395,-0.018028759073137807,0.0010566227864590527,0.9981241745106503,0.21898902240170054,-1.3459097244114977,-0.49197835543081225
1729576228.5859537,0.26470362203969744,0.8712413812618081,8.588030879282252,0.050523516513649044,-0.015307514215101053,0.0007744696352024624,0.9986052545848303,0.2505866306503892,-1.082967304412833,-0.5322963774928389
1729576228.593965,0.12985233313592784,0.767192818259038,10.114083207745134,0.03784462022448384,-0.006396014919676124,0.00024223324829492814,0.9992631370346178,0.24400379191188049,-0.7319385645098719,-0.5564871907300548
1729576228.6019464,0.09179776951046294,0.9614220984261259,9.646105465418565,0.0496496852774876,-0.004728823080921349,0.00023507713791359896,0.9987554714357539,0.22813476694783835,-0.5413287534568108,-0.5867522109464796
1729576228.6099846,0.25068493734104336,0.7061401487041131,9.730195153030436,0.036211491975707465,-0.012836409691093266,0.0004651690290085121,0.9992615964065217,0.23606664448935638,-0.3852452408016949,-0.638966427993297
1729576228.6179593,0.8545456706565792,1.0112211766248116,10.372256195822168,0.048531480400849626,-0.040848230370031754,0.001986429626926294,0.9979840537719408,0.24806250205912173,-0.2575399282916629,-0.6651866774838431
1729576228.6260467,1.1689780774427758,0.9086415353205901,11.532495898889783,0.039251667226154245,-0.0502942434417172,0.00197816666130959,0.9979608622352144,0.2901666016408675,-0.26903458350828424,-0.6255791191881066
1729576228.6340497,1.5276258393855873,1.7154706926767291,11.765122279324103,0.07217795461400697,-0.06368174847751687,0.004617910121366537,0.9953459964679094,0.36182927808927645,-0.2580523940568517,-0.536684004806974
1729576228.6419783,0.7748387653501024,0.6972066453423656,12.385693221110087,0.02809804749898592,-0.031172248702620267,0.0008766519859037806,0.9991186226464115,0.40312412371247364,-0.11779640108691426,-0.4765358951949018
1729576228.6499434,0.31119551262803025,0.28736115639487253,12.992667548876987,0.011055737798424885,-0.01196957971940344,0.00013235010674909057,0.9998672323396355,0.3929944460465054,0.2213455415108051,-0.460028772254912
1729576228.6579442,-0.03522518631966621,0.4202165656630954,12.77673708328127,0.01643791415055981,0.001377554105213941,-2.2647197516229174e-05,0.9998639391488077,0.39670751086055117,0.4239793269465127,-0.4407593171387534
1729576228.6659749,0.3698380193117159,0.07304365521816976,11.213770269988295,0.0032563611828045633,-0.016483192702372584,5.368280681246202e-05,0.9998588388309321,0.43937590558787165,0.4795776386813224,-0.32405219888793646
1729576228.673956,0.40912938141124827,0.1822110490879331,10.485003986944148,0.008686425046413255,-0.019495410764422072,0.00016938401050656897,0.9997721971969897,0.5113771591236254,0.578067205125899,-0.12291538900714055
1729576228.6819444,0.3683001740127646,0.23286743511682234,9.819816219070786,0.01185235182218664,-0.018736443348068812,0.0002221255216112618,0.9997541788395787,0.5724568938264829,0.6588711381272085,0.046721053989470615
1729576228.6899328,0.11443813053070562,-0.010395983021703465,9.424294860837003,-0.0005515414774438652,-0.006071102300156938,-3.3485269527231156e-06,0.9999814185811889,0.6316663079056852,0.744814223336653,0.1455230893572031
1729576228.6980124,-0.32374677378118605,-0.23416558785989708,9.107494550779544,-0.012850359780197976,0.01775790064447765,0.0002282502590045821,0.9997597076898227,0.6799626581970675,0.8210700980271176,0.15584995350970893
1729576228.7059464,-0.7324645974718366,-0.5561327609190633,8.37345174755757,-0.03312064948660317,0.04349318227929059,0.0014426813856360551,0.9985035224490826,0.7451241235961694,0.8864053656686497,0.09861825284336974
1729576228.71432,-1.147444189391305,-1.1211325825768286,8.46693303583923,-0.06562355966345025,0.06658007965628886,0.004388482616980028,0.995611059917667,0.8412634710715429,0.8668612977718086,-0.0038311773903588336
1729576228.7220738,-1.4749617589961108,-1.5005944836281284,8.929078410370725,-0.08287247672171835,0.08037477350522995,0.006705845831961434,0.9932910349024948,0.9317252142893433,0.8168227515021211,-0.10361294106217882
1729576228.7304502,-2.049756163063682,-2.1913102253331274,9.791269100665794,-0.10928462485149923,0.09998026466780013,0.011048861319728884,0.9889078521841967,1.031976786857923,0.7710490914662136,-0.1541168179131061
1729576228.7379928,-2.6778668619007093,-2.375417470649095,10.696683603954163,-0.10822999906356034,0.1188475515628834,0.013033476574362213,0.9869101556264355,1.1108580931034004,0.7478417960592894,-0.16781723162664325
1729576228.746049,-2.789695157423629,-1.7606781349773477,10.904025813007264,-0.07932248788418574,0.12298774044189514,0.009862366368927015,0.989183851640566,1.158612566912149,0.669212529472906,-0.2547901412252414
1729576228.7539723,-2.482338995088943,-1.887434277226643,9.291198413829749,-0.09918667613537244,0.12704793320680216,0.012769478910205202,0.9868423209173077,1.0761601451558076,0.5428566180891381,-0.43510659548447184
1729576228.7619987,-2.3963269859205534,-1.740587788015673,8.315122268512694,-0.1019787096339898,0.13630536880108304,0.014107583612423686,0.9853030829658485,0.960281042513926,0.47385411224226986,-0.583737023878903
1729576228.769991,-2.50393419081991,-1.8203134308660445,9.261765643822459,-0.09603409187378488,0.12868143462615375,0.012521261367475214,0.9869456720581431,0.8260486915865681,0.43202691867268683,-0.7103760063242206
1729576228.7779677,-2.4138330865134305,-0.6777517511465797,10.26190506866652,-0.032741028061942276,0.11495162033830691,0.0037908367282049435,0.9928241433506464,0.7731791350251855,0.3456312336804045,-0.7633721324724614
1729576228.7859893,-2.337985188822121,-0.3252481942426353,10.72504038861202,-0.015067100057094477,0.10705192938005359,0.001622473173920266,0.9941379353453309,0.8163788519056735,0.1899254476882994,-0.6853417723042017
1729576228.793976,-2.5402763220335065,-0.2700874285084717,10.486731702649637,-0.012779898402196021,0.1185026879296396,0.001525327417582533,0.992870314052419,0.8474069627715106,0.1028873270149668,-0.5955288599955807
1729576228.8019655,-2.594134515143932,-0.1828820115484424,10.052372149031187,-0.009019933383755521,0.12591553878696113,0.0011449098544915118,0.9919992979207026,0.8375025951730568,0.040873583197340524,-0.5863385690639213
1729576228.809967,-2.1952537120160467,-0.17652743324742481,10.144661741567148,-0.0086481712779142,0.10633345586533048,0.0009248686385759064,0.9942924871059245,0.6995960555607547,-0.057634031943767795,-0.6472320440930026
1729576228.817974,-1.9295890118775965,0.2091604785281076,10.489015637469587,0.009926088103010046,0.09081684884582247,-0.0009052420085149036,0.9958177309515996,0.5419306809760558,-0.1375974140400723,-0.66461207634466
1729576228.8260603,-1.6143276637183546,0.2818376555250677,10.032912955479798,0.013995075463337952,0.07964464779322279,-0.00111829589690272,0.9967244440440677,0.3383548004909564,-0.20047459544902613,-0.5452046269497349
1729576228.8339684,-1.6705765249888251,-0.008068329536521911,9.016330571139441,-0.0004454761804857902,0.09147479539373124,4.092141402561125e-05,0.9958072914395062,0.17406595611515568,-0.23990366454024653,-0.34627882893563233
1729576228.8419707,-1.5901224225616544,-0.1520843998215225,8.578284819734446,-0.00882475705986211,0.09149698551940956,0.0008108719655450687,0.9957659201792111,0.05974211721558009,-0.25504730476573817,-0.21032143773015158
1729576228.8499892,-1.7793547657928521,0.10651041723599276,9.049759018061371,0.005855574487951788,0.09691068084215788,-0.0005701613269170735,0.9952756940175856,-0.062063443806919215,-0.27051883982296365,-0.1189561315932364
1729576228.8580036,-1.678852543313602,-0.22794693203145122,9.349642368844634,-0.012137440047166168,0.08868583295075462,0.0010807581063613288,0.9959851090979462,-0.16451939466129895,-0.30449178442209673,-0.0373184740389793
1729576228.8659687,-1.5074602527948018,-0.35847123294933947,9.106277525798967,-0.019602494957169495,0.08185657759166806,0.0016103097107060826,0.9964500237337892,-0.27750146261083264,-0.3883033703394193,0.049550535963695755
1729576228.8739693,-1.314363475895631,-0.6376593327871818,8.629379950537974,-0.036762675502131574,0.07525052616875176,0.0027761747775169243,0.9964828934080382,-0.39765058094038275,-0.46200327527022456,0.10678022270284518
1729576228.8819659,-1.0768799654201913,-1.178188811342231,7.846683981064971,-0.07427379124338485,0.06720913883683421,0.005017174793965271,0.9949578702378468,-0.48506489415074594,-0.5032433877984734,0.1377125142546386
1729576228.8899667,-0.8508322211954741,-1.2274127277233071,8.055343729703436,-0.0754263867787459,0.051848565795355926,0.003927265151060179,0.995794739387039,-0.5089922479590077,-0.5041488118735491,0.19330692453291137
1729576228.8980486,-0.9642005473168938,-0.6411584105597655,8.939980345488078,-0.035736678398442454,0.05352216588397655,0.0019166812661622766,0.9979251444417353,-0.4803539640362996,-0.4868130837371891,0.22836633094572317
1729576228.9059734,-0.7374953186245112,-1.1448540734354686,11.61381222096472,-0.04908454911354433,0.031512365540175204,0.001549410159052309,0.9982961871030769,-0.47125910485045336,-0.40702416683706205,0.12978306752257937
1729576228.9145966,-0.29932393189736295,-0.5499641091003437,11.684385762754614,-0.02351262250284968,0.012787872781766263,0.00030078419509924325,0.9996417040228083,-0.5185877569602375,-0.30210834846107354,0.051051366641439624
1729576228.9219742,-0.1728905944899803,-0.15089218128051865,12.141645035533626,-0.006213304144728584,0.007118506853433737,4.423142267691011e-05,0.9999553588812673,-0.5371940768124812,-0.179562248830796,0.05276670318088942
1729576228.930341,-0.38912319458461314,-0.024694763114014306,12.019281384113144,-0.0010271563145833433,0.016181055875794145,1.6622658761082316e-05,0.9998685504126715,-0.5764534127803216,-0.026430547559229564,0.17469188255977627
1729576228.938003,-0.15159221997342412,0.268896038860107,11.152903603417105,0.01205206299820371,0.006793149416248074,-8.187930118264407e-05,0.9999042925171768,-0.6234219677414377,0.06715123344955842,0.283179265288457
1729576228.9459713,-0.14913443232585136,0.37944939455629856,10.692453136171356,0.017734974229788734,0.006967826449238353,-0.00012359666322920968,0.9998184359209961,-0.6579884516400377,0.13011134303822372,0.37849568928946964
1729576228.9539318,-0.2731159267294952,0.534845709731826,10.62950622374383,0.025132541673812802,0.012823613486260392,-0.00032241837964716217,0.9996018238941732,-0.6770255817333496,0.19385450254060682,0.4348341635671532
1729576228.961935,-0.9762221793287128,0.32832945098558,10.847678233758016,0.015112603605440476,0.04483533582180656,-0.0006783385030818845,0.9988798434901397,-0.6769542281298618,0.2729666441423917,0.43926463389288317
1729576228.970029,-1.242462822978087,0.19005448577689482,10.835647600655202,0.008754006917961948,0.05704101134446789,-0.0005001710273550246,0.9983333312158941,-0.6573296731405158,0.3468267129141086,0.37806940686901636
1729576228.977968,-1.304284361267321,0.11187790997199627,10.546152845061089,0.005293542008218393,0.0614814733972748,-0.00032607621970498084,0.9980941340956805,-0.6353383786718194,0.4047648361439238,0.3145337967825883
1729576228.9859693,-1.4931696694947676,0.16840147620780713,9.624746813237826,0.008720424322565597,0.0768653858893614,-0.0006723136261729982,0.9970031166681987,-0.5991563386716519,0.4425075405120471,0.2649187990712566
1729576228.9939685,-1.5631658043824073,0.1336020283028093,9.115238244192696,0.007300435467764069,0.08480541948204486,-0.0006213717031258221,0.9963705928848272,-0.5685076233808486,0.45706505196514247,0.23685256069030575
1729576229.0019672,-1.3520963698364754,0.38302772699145116,9.027884294171868,0.02113848750217154,0.07418121355108634,-0.0015727663211154142,0.9970194773966594,-0.5428816631615121,0.4321700439814992,0.23065506919828604
1729576229.0099647,-1.3039845235620413,0.8728992021128396,8.930460932948431,0.048566132179479304,0.07200817316148812,-0.0035104463685604495,0.9962147512305587,-0.5504933503488599,0.39254301562651545,0.22267967368845387
1729576229.01797,-1.5284239514419125,1.2628295737579383,8.90935646211281,0.07008493298873818,0.0838172901865138,-0.0059098123029597245,0.9939958944343269,-0.5788990061031424,0.37557783959691765,0.1889475122031364
1729576229.025972,-2.0528636384432724,1.4682967969891378,9.84599473786339,0.07355241975645178,0.10123014245879335,-0.007504920914911738,0.9921119775346955,-0.6589445286520925,0.4637331381768883,0.08697572351123588
1729576229.034168,-2.5016027436128385,1.765156751289186,10.562882550725845,0.08212886058255368,0.11409437869607603,-0.009464861735847518,0.9900241105153396,-0.738047216668191,0.5787770662983274,-0.001877203698936493
1729576229.041979,-2.694471173755594,1.752694271720777,10.667643232828086,0.08070156260423231,0.12142573279458874,-0.009905584385394203,0.989264842499983,-0.799130911444635,0.69164949950178,-0.061148620885508355
1729576229.0500224,-2.7402815433646848,1.9266972698195755,10.572003492187084,0.08928166711109677,0.12401110238100539,-0.011204211237198907,0.9881925399711654,-0.7855497010579817,0.6393283620915586,-0.07329851781703974
1729576229.0579724,-2.6322559511652948,1.7818626758565888,10.811021813329829,0.08099471374935942,0.11722018260894046,-0.009592527856250352,0.9897511144439863,-0.7556907816914261,0.516412316431089,-0.07548017523841417
1729576229.0659726,-2.261701043843708,1.576927777633094,10.448777415390476,0.07439214354961313,0.10493546850753854,-0.007872015807207285,0.9916614280057121,-0.7096798860149987,0.3553962264350908,-0.08530297092047948
1729576229.0739686,-2.3034485425659907,1.3112724197536845,10.824713948013581,0.059898801041512253,0.10371853197139076,-0.006257786492777648,0.9927816677737858,-0.6680255765808951,0.2702802040969667,-0.09417647875995287
1729576229.081979,-2.3352008064477974,1.0467737521451794,10.507270931064008,0.04932200151260888,0.10847572669990582,-0.005388714457536281,0.9928601707391694,-0.6059979555732363,0.2106967894648516,-0.09694644309486472
1729576229.0899365,-2.331507249005397,0.8002073506523419,9.53940784184153,0.04152159925357161,0.11906256733940325,-0.0049835080725549145,0.9920056585026452,-0.5087590843024946,0.11705289232674625,-0.08456064966756478
1729576229.097966,-2.2713514343641754,0.8330297350984364,8.931156669216245,0.046113117623613906,0.1235516692102611,-0.005747647564591985,0.9912494791755818,-0.41550917650016295,0.049372922384408185,-0.08010900404141905
1729576229.1059651,-1.9709380822981928,0.7370832255805463,8.638510855777794,0.04227029786167489,0.11143257725162839,-0.004744155490981006,0.9928612670632401,-0.30762504432039606,-0.061899609783691883,-0.11191891164415617
1729576229.114126,-1.6343487026504002,0.726920512740906,8.37936572977527,0.04304666490660922,0.09572461513481054,-0.004143547513601871,0.9944680053735832,-0.2258669625540547,-0.19081387805800853,-0.14760676860281766
1729576229.1219692,-1.4821944693929745,0.7332727336699342,7.953573286742114,0.04574980604619061,0.09151548217748462,-0.004208940860705737,0.994743261643621,-0.14105414833143923,-0.37203081401933424,-0.20137192744912896
1729576229.1299665,-1.5953667512158627,0.4878476734050855,8.278931143676129,0.029286756635647927,0.0948393741060206,-0.002791333048236124,0.9950577809678975,-0.0599424654340657,-0.5471686251842066,-0.24469896435492855
1729576229.137966,-1.5294342475068614,0.3882372502832856,8.332648539721303,0.023177703816068304,0.09051842725236157,-0.0021072330688081896,0.9956228040489868,0.005326456701377644,-0.6875835869844786,-0.2766548473588768
1729576229.1459713,-1.0960285721857574,0.49486801179106515,8.06153362700661,0.030577410359861678,0.06735647478479206,-0.0020652491273527225,0.9972581722033128,0.09429354717370135,-0.8774036993072256,-0.367344307486867
1729576229.153962,-0.8575329819345012,0.41567320941838903,7.985534779475449,0.025961658724641314,0.053372709093519884,-0.001388092439821435,0.9982361541236934,0.166829854222887,-1.0564263461045647,-0.4758206213693392
1729576229.161968,-0.7036617203130445,0.34253837023111156,8.13003508277316,0.02103185812803301,0.043106866154326184,-0.0009076625262005617,0.9988486547934947,0.22312234029625932,-1.2864386718840333,-0.6107195797785956
1729576229.169969,-0.3000927475198579,0.519642279951167,7.55378082505452,0.0343283117315572,0.01979357018314192,-0.0006800140999489386,0.9992143509647416,0.2654116331695233,-1.4938335473700255,-0.6865506740866051
1729576229.177971,0.40772085905644456,0.7990054058124969,6.67914912369482,0.05946701200760663,-0.03021057834492913,0.0018005455328641892,0.9977713933936652,0.3027045306144186,-1.649345847148349,-0.7448200325152717
1729576229.1860464,0.7644136958537886,1.0497020789367169,7.597116023289157,0.06850894973772115,-0.04953457529682442,0.003405774167292778,0.9964141961846584,0.35658133362954614,-1.5591808105252078,-0.8346956655010738
1729576229.193968,0.250592093244695,0.8809730015124206,8.19434367525279,0.05351724552333605,-0.01517589271594063,0.0008134317641263385,0.9984512682352776,0.3833734446396163,-1.2837229565910664,-0.9171422794105112
1729576229.2019687,0.7244848140522858,0.814212058964093,8.597451837475893,0.04715061684659683,-0.041789195673628446,0.0019743126397857532,0.9980113148384325,0.381569728664253,-0.8919811315327808,-0.9687386980634838
1729576229.2099667,0.9235868674352776,1.1924225234643933,8.684411887397646,0.06807581806130857,-0.052340918829235354,0.003576384151595427,0.9962998146581155,0.36601403698932594,-0.6914169314762341,-0.9298833791754941
1729576229.2179692,1.0260492676779636,0.8196012862954327,9.278395753044055,0.04396967864607304,-0.05477605195057893,0.002414455980880081,0.9975271534623932,0.346464060509281,-0.5629903002745275,-0.8840086145852126
1729576229.2259758,1.93603177618295,1.1942195388671035,9.77556513004909,0.060445688611893374,-0.0967244645936172,0.005885085197124278,0.9934566233356817,0.3292001038222476,-0.44549376571461047,-0.8479699546018031
1729576229.23397,2.117384368444145,1.0756619723436995,11.205127040675938,0.04761876583175214,-0.09272413751806459,0.004439637884915081,0.994542596914603,0.3482143440509078,-0.36690773381088165,-0.8122989865835104
1729576229.2419782,1.9199775314668772,1.2645377327226262,12.76915367679814,0.0491928771358885,-0.07410481864908507,0.003659960420074407,0.9960296890062078,0.4204965669771744,-0.26782192717027653,-0.7849367449120663
1729576229.2499824,1.6384882962238765,1.567962800766388,12.543269391137477,0.06200532115876206,-0.06428066663397998,0.004001767884121449,0.9959956435140124,0.44641260821299106,-0.07172393345660129,-0.7434036862829401
1729576229.258017,1.305352521191357,0.989858814493036,12.603823935707876,0.0391238114022285,-0.05138057597005542,0.002014413140884046,0.9979104698990016,0.4253528876687463,0.12681597444938986,-0.6542046518246976
1729576229.2659366,1.0731493337597362,0.8675725384516809,12.255647875829023,0.035293642982812234,-0.04352102449109103,0.0015384343499266957,0.9984277201740738,0.3880270317774016,0.3374632824073213,-0.465741481666288
1729576229.2739336,0.793766624181623,1.0010597962643681,11.329200002352882,0.0440240027036237,-0.03479857629841724,0.0015343922729870452,0.9984230525753636,0.38393619088546216,0.4595947665674599,-0.31307440385527324
1729576229.2819364,0.8662754249484269,0.6964039441648707,9.817565975532823,0.03536506395897079,-0.04385335412127016,0.001553345516719646,0.9984106282993978,0.3916982478253873,0.531596586879157,-0.16145185850251798
1729576229.2899272,0.8290961094612437,0.9436090510692349,9.09446024694079,0.051615306438872605,-0.04513965065135483,0.002335399960872556,0.9976436327603748,0.4129573943863616,0.6173666852123783,-0.053025038770921525
1729576229.2979803,0.6298570174833868,0.9858689816669315,8.78461645578166,0.055813743059790755,-0.03550324373721422,0.0019859224668100886,0.9978077980662144,0.43763220404388303,0.6867077267937165,0.01799071392850478
1729576229.30594,-0.09134931490059285,0.5929579099962525,9.364854712336182,0.03161081925162442,0.004864888628983356,-0.00015386183056882336,0.9994884017793332,0.44605173891646543,0.7836520597325836,0.08103328849833809
1729576229.3142993,-0.6705982559325432,0.2348675621598609,9.123784637704444,0.01285897383917804,0.03666068117251268,-0.00047177496595135563,0.9992449242683958,0.466002611991186,0.8494810806022204,0.11034503201099743
1729576229.3219352,-0.9786432931591352,0.009718286319354022,8.735412863921496,0.0005553576284309722,0.05575428443162092,-3.101181022826051e-05,0.9984443651920172,0.5724763294805894,0.8208680832900773,0.0440711360105728
1729576229.329974,-1.38349744806345,-0.838603953745497,9.2129888523861,-0.045241396710864176,0.07408036723571047,0.003364216512600238,0.9962198538782134,0.7487427362002077,0.7773075010921455,-0.13659661193361441
1729576229.33794,-1.7193049654201014,-1.6147902030578452,10.014048382232442,-0.07956027896058941,0.0835856814739559,0.006694977095968015,0.9932969209385137,0.9230386801273658,0.731589408946133,-0.31012784010381755
1729576229.3459437,-2.049597525150498,-1.8111542658776758,10.954849659222278,-0.08147727560089593,0.0908350703599208,0.0074569263144137286,0.9924992885656418,1.165965516458821,0.6113581202598026,-0.4338283198331929
1729576229.353931,-2.5966082428735016,-2.163604466264887,11.371368762818522,-0.09327727167826437,0.10962472717410061,0.010333660878851295,0.989532710542256,1.3389657821912642,0.5264486452041435,-0.520393619453217
1729576229.3619733,-2.7897816998744913,-2.364779519358541,11.8516024246833,-0.09765580388045733,0.1126429609835327,0.011125259832266587,0.9887624264215286,1.3818922628416592,0.49465901293653936,-0.7136618996306261
1729576229.3699365,-2.6451966334500856,-2.5541981388612185,11.07911128635295,-0.1122808997502512,0.11331378892542444,0.01288911021215807,0.9871103563576756,1.3046311563580848,0.44238140878193843,-0.8930506868949142
1729576229.377924,-2.492844468107161,-1.9687424257972,10.11259483455591,-0.09528691895360959,0.11787651776052657,0.011364133598538243,0.9883806888565433,1.2003806441091038,0.385899132662918,-0.9951499884544805
1729576229.385931,-2.115086650346718,-1.6148353761326166,8.901094565528467,-0.08899878712774421,0.1141263305437896,0.010265731612797886,0.9894185218201922,1.0241710903493528,0.30901507078384055,-1.0670518209267712
1729576229.393932,-2.162089209446312,-1.4163775159627732,8.94536675884833,-0.07787563219239933,0.11654185661936607,0.009166653282491726,0.9900855286458559,0.8656597904722103,0.2377689200301342,-1.1225379321925444
1729576229.4019687,-2.4711305996423962,-0.8117587031811795,10.564074178844152,-0.0380742851400158,0.11423288237939143,0.004381255139236161,0.9927144614630019,0.7667217999927665,0.12733650980544736,-1.1932903243606674
1729576229.4099643,-2.3489005204299693,-0.5095607175141764,10.919270543683444,-0.023178271513275908,0.10560520577870665,0.002462187048454523,0.9941349233766171,0.7495023217898413,-0.006181966040365722,-1.196578274007034
1729576229.4179776,-2.3447549008810284,-0.9088358287018652,10.41819800736241,-0.04321873796272919,0.10995457758817954,0.004785669503091253,0.9929850094154096,0.7242714827169152,-0.08331322111761935,-1.144914096050638
1729576229.425967,-2.0480201451184605,-1.0954890387250253,9.908540680638149,-0.054734881371105264,0.10098430555646785,0.0055642793984484054,0.993365643450258,0.6303803179026837,-0.11001023133671807,-1.05304191048773
1729576229.4339771,-1.872373493321076,-0.9929604959889213,9.69540188885164,-0.05076882605890923,0.09463545486256429,0.004832536170757783,0.9942048599648435,0.5170031507782324,-0.12858257783694949,-0.9800396165685799
1729576229.441935,-1.5460006890102238,-0.8648845641949152,9.036484685557078,-0.04751527802681249,0.08414799420105053,0.0040171491505400815,0.9953116476454382,0.330635013417117,-0.17590964096136102,-0.8587626490310001
1729576229.449938,-1.4311010225369938,-0.3348166308509335,8.693327959771747,-0.019179891484058735,0.0814139262219877,0.0015670032741296948,0.9964945804571741,0.17539374473132047,-0.24772626510513518,-0.6459444382874437
1729576229.4579406,-1.35809107983079,-0.18987665087384137,8.372272824447032,-0.01129932881703866,0.08029409238840637,0.000910267084557027,0.9967067549232529,0.08948571456469712,-0.30316125137379857,-0.46461656409709395
1729576229.4659324,-1.2465292072246457,-0.11823555351258605,8.335741691494391,-0.00707123855834734,0.07414283746046224,0.0005257419799334736,0.9972224229498317,0.02261605425208996,-0.381545389649972,-0.30516272226890234
1729576229.4739268,-1.178634402996897,-0.3651887161407547,8.293951137943509,-0.021942496793532624,0.07043838239004713,0.0015498194650844465,0.9972735628604446,-0.048155426360740605,-0.46050262722532836,-0.1856517737301136
1729576229.4819288,-0.9669515219250912,-0.4551815133758591,8.63662618081298,-0.02628198702814439,0.05562288752025566,0.0014646558133028804,0.9981048072848412,-0.1561745841935918,-0.5542771864699036,-0.07691016925964361
1729576229.4899273,-0.2531229663777109,-0.4600960576837186,8.404810563224117,-0.0273370839368772,0.015024993419113439,0.00041093952538594187,0.9995132638155885,-0.25504128381026503,-0.6071364015249525,0.04580295172001266
1729576229.4980307,-0.08268135184811091,-0.2815642984285905,8.681354600873922,-0.016210027324609987,0.004758717821981896,7.714995663901924e-05,0.9998572816490913,-0.3113814731500348,-0.6316151995131274,0.1768989826051807
1729576229.5059507,-0.10970327277878841,-0.0858597814497324,11.640356680202087,-0.003687904111954978,0.004711878349814495,1.7377266620944066e-05,0.9999820984716217,-0.3353947153402699,-0.5807462088408795,0.23852899867780025
1729576229.5139372,0.15588111006319572,-0.5607625619850738,12.523438969058752,-0.02237126025186392,-0.00621542831621108,-0.00013908446139134477,0.9997304015688939,-0.3979056375996205,-0.5076558082913275,0.23974904315856133
1729576229.521934,0.4629539822000268,0.04853008976208074,11.830808974696968,0.002050583910869376,-0.01955418041069682,4.010524028069878e-05,0.9998066950794339,-0.503522600789156,-0.3816433860994242,0.2702793741493602
1729576229.5299354,-0.5101593770374058,1.4790465792478733,13.115114156790836,0.05610947511593852,0.01928552196089258,-0.0010840108045451088,0.9982377574333108,-0.5588046675350986,-0.13873973862970385,0.3805466260196383
1729576229.537973,-0.9817393347185371,1.7368906965721613,13.629996528742472,0.06328986743384735,0.03558528284212231,-0.0022581538751906406,0.9973580004523592,-0.616663931147462,0.07596423980897753,0.45351801812519776
1729576229.5459433,-1.0841645041514347,2.34386186057025,11.978314212411497,0.0963682313133258,0.044075779115148574,-0.004271595745844341,0.9943602180089055,-0.6977797060142416,0.2703428963373392,0.3900269579001014
1729576229.5539293,-1.155435832617814,2.4331902083831656,10.70478902671448,0.11135894160880862,0.052081900153720516,-0.005844216793336981,0.9923973533470433,-0.7528345218562398,0.41123442375769204,0.3144715963563848
1729576229.5619292,-1.1469627141702976,2.092941043975212,9.390965214124389,0.10922199721992512,0.058934275761992935,-0.006487211010265916,0.992247561124243,-0.7765022300092739,0.5136483227913091,0.20783901057962229
1729576229.5699296,-1.2103530105822566,1.9675607799495802,9.472963230037134,0.1020107532039539,0.06186055307930895,-0.006355965000989464,0.9928376906183559,-0.757073340045594,0.5495552585237573,0.0714921486650194
1729576229.577922,-1.3053691879411506,1.35938333198342,9.879616347446106,0.06816435414290702,0.06487932859426439,-0.004442214771839661,0.9955523895171758,-0.7292397837318287,0.5532204373818209,-0.015424249221286684
1729576229.5859246,-1.6080239846885187,1.1012582572466927,10.642671137813368,0.051382465043392396,0.0744185053331488,-0.003839567412761494,0.9958950678018882,-0.6899780766860819,0.5154046789192281,-0.0752365090593869
1729576229.5939333,-1.8911310131275645,0.8075195161155937,10.632437587473177,0.037740714993759535,0.0875886158732824,-0.003320813154747615,0.9954360074867463,-0.6647182922127858,0.47866745181342546,-0.1430506195718994
1729576229.601968,-2.058840448696851,0.9169045294935749,9.831422506097189,0.046224711677375074,0.10249037943367803,-0.0047678739721232315,0.9936479585505473,-0.6657386438643653,0.4570508056114059,-0.2629174373113448
1729576229.6099873,-2.060346161307954,1.1233145951375512,9.220090046627064,0.06020548000117321,0.108727448593084,-0.0065972832148044605,0.9922248323613203,-0.6808243169450221,0.44791202844335243,-0.38677171545337985
1729576229.6179771,-2.00139454737071,1.2071774667993276,8.953847040671551,0.06654316893241541,0.10853974687449204,-0.007282031229962336,0.9918357233120911,-0.6843417499944097,0.4356177211591279,-0.47130084381368964
1729576229.625975,-2.138406098539613,1.3125618279799873,9.111811797400977,0.07098807927309292,0.11358127865094285,-0.00813650339418559,0.990955994509166,-0.6847494495781941,0.42440992623543483,-0.5330862624278884
1729576229.6339707,-2.262990398625721,1.7574281893172892,8.909709645579259,0.09646637813765097,0.12122827406654688,-0.011838225991148766,0.9878551512550979,-0.7105354730161867,0.44833493370648525,-0.5667519931047114
1729576229.641934,-2.5151513216949644,1.5275511616372484,9.601519238275289,0.07814770165061473,0.12584493411686448,-0.009944708264158147,0.9889171310384857,-0.8107194093099266,0.5695381436160855,-0.5528962265938426
1729576229.6499238,-2.63963281694276,1.7418120092382083,10.404465662838222,0.08219325780836889,0.12186585784708817,-0.010127082392606578,0.9890856501154254,-0.892114274159272,0.6516252509140104,-0.5267037841059161
1729576229.6579247,-2.239312104716437,1.9290264584726122,10.309470337644338,0.09182337465985822,0.10453061834262449,-0.009693092802613356,0.9902261669168836,-0.9281804912250183,0.6263817545369097,-0.4905551956629826
1729576229.6659434,-2.2813960531130655,1.6649866270366922,10.606575568065118,0.07733110134655417,0.10418064345459409,-0.008125354588122587,0.991514131471021,-0.9396036599893773,0.581437352408307,-0.4224658258978611
1729576229.6739235,-2.3516574133619796,1.167783193263031,11.018512788348835,0.05247016933030685,0.10423208614612903,-0.005506781954780205,0.9931526714964711,-0.9404979003875245,0.5212668863371069,-0.33350922709357855
1729576229.681926,-2.250162129901953,1.253251659121881,11.01979061002102,0.05629534648618427,0.09975696563415969,-0.005653152759592517,0.9934019446504734,-0.9108104502626084,0.35234930751823307,-0.14774565869631726
1729576229.689925,-2.342733286241953,1.1091658831684412,10.814177119918861,0.05078277904827364,0.10579195768301017,-0.005409867637498319,0.9930759811685484,-0.8751189976062534,0.2084297540807056,0.017349430086255516
1729576229.6980731,-2.4691443491865783,0.8934275279479397,10.19425160154116,0.043376116018281,0.11799061251771374,-0.005158970343670384,0.9920534829039493,-0.7983644180223763,0.10249627919093568,0.15812410937907825
1729576229.705946,-2.2279986871486654,0.7177764227746231,9.273545270006727,0.038336106073238056,0.11719547784903218,-0.0045274152599213266,0.9923583352065637,-0.6888838511142074,-0.001504361581819269,0.2345008057869933
1729576229.7139447,-1.762727687630996,0.6504535660671177,8.591116320939582,0.03757507524527196,0.1006618024306941,-0.0038044266966470435,0.9942036217944622,-0.6053165283879006,-0.11115634286775775,0.2654276714805712
1729576229.7219322,-1.6897058508598475,0.6356778098062862,8.079187120444608,0.0390338780518218,0.10251705612898075,-0.004025967424652547,0.9939569412973475,-0.5181410994049198,-0.26974796503804377,0.21629907112425495
1729576229.729936,-1.7454915378596587,0.6588946582958811,7.69397862602653,0.04242728251682138,0.11082090777968488,-0.004735341630798113,0.9929230728695774,-0.43859167808156135,-0.4096003947937287,0.12977944267455296
1729576229.7379482,-1.0745888216415764,0.5365946929267473,7.857178542803418,0.034005738948096706,0.06771366487728092,-0.0023092983833711126,0.9971224280139614,-0.3282855862526276,-0.5880150462917106,0.029764688659522212
1729576229.7459424,-1.2018840193033051,0.4280199493009703,8.171773743113691,0.02608969548299813,0.07282720044222,-0.0019057539776949288,0.9970014517377243,-0.23528345728315941,-0.7550861358566463,-0.03066985381095828
1729576229.7539313,-1.1525655507421393,0.3829863970708165,8.172825453143606,0.023351599584856407,0.06989808200931767,-0.0016366847212051167,0.9972794403733442,-0.172671138918086,-0.8906610646969562,-0.1346152990657096
1729576229.7619293,-0.802390867310518,0.22691879625030237,8.033395682042412,0.01410106656073278,0.049730663034149,-0.0007021943146087822,0.9986628700413259,-0.12446149636249115,-1.0711918063217956,-0.3885430938764746
1729576229.7699327,-0.45916844494685766,0.10742085782830642,8.180778279586775,0.006562335419147565,0.02802775970844792,-0.00018400381374888698,0.9995855874221921,-0.0882989797842797,-1.2399582400243077,-0.6060303501666244
1729576229.7779217,-0.11341361457553648,0.31057644536104634,7.99746594968566,0.019405701308567405,0.007083388612589688,-0.00013748746487408765,0.9997865899579182,-0.04403989657986515,-1.4714792590531967,-0.7680237684889046
1729576229.7859333,0.8039200758835845,0.5428424944138934,7.292758859362177,0.037082968963904527,-0.054680711451426334,0.0020321675162239213,0.9978129802238364,0.005077126600271247,-1.7368218187247533,-0.8673482697895829
1729576229.7939339,1.6368360860574944,0.5658439231620079,6.83426100043176,0.040996916445714966,-0.11678449971018352,0.004824961287394489,0.992299024094028,0.05072356284391029,-1.908798056371548,-0.9256659003856038
1729576229.8019915,1.4561535803454342,0.3543504041901735,7.862326248696556,0.02241957941271082,-0.09132422363139575,0.002056568103515415,0.9955666824300197,0.08619953575787231,-1.7382650894395386,-0.9483114669608175
1729576229.8099792,0.6893386203752293,0.7390951875824635,9.724629101268714,0.037894644623326264,-0.03524963574787851,0.001337566181921381,0.9986589357759849,0.10152545864578108,-1.4486416822370394,-0.9529593156152429
1729576229.817942,1.4320965584556062,0.15040682934635308,8.941732955145994,0.00838192756959786,-0.07930778193675395,0.0006668762754818652,0.9968147141222001,0.06474648574062693,-1.1786616840251205,-0.97916097818831
1729576229.8259647,2.101369756362426,0.18170260102578062,11.702012727189159,0.0077311772542776455,-0.08870989856137815,0.000688567447351345,0.9960272630156081,0.08567379820519963,-1.0698849427807233,-1.004247157084315
1729576229.833936,3.6614878584561277,0.6745319927443747,11.67146552083498,0.028514825926216986,-0.1511120226479463,0.004360845990190703,0.9880956655789428,0.16421214521055813,-0.9888683657599897,-0.966513296800626
1729576229.8419523,3.3552074782572703,0.4114229602950623,12.09319146215919,0.01684140069544519,-0.13481352163107496,0.0022917036206872732,0.9907252039302109,0.3071154172427304,-0.6197138032666397,-0.8655460093213989
1729576229.84994,2.7397646908117843,-0.9897513812936657,13.616351007666609,-0.036087481084622994,-0.09879878323455973,-0.003585310607168932,0.9944463985998379,0.39456014070788187,-0.17984206424060753,-0.7743159524085963
1729576229.8579266,2.8069619809909767,-1.0698181188152618,13.17345265416051,-0.04027445361519859,-0.10435782816150398,-0.004229537103810639,0.9937150110083366,0.423614021406561,0.16496209085279778,-0.643379397259211
1729576229.8659294,2.355271913936383,-1.3848116464356415,11.191310471890837,-0.06117905603663492,-0.10257490829932424,-0.006320806701862144,0.9928220176307984,0.4440261802560027,0.3982373677194869,-0.48223359224594575
1729576229.8739238,1.9006226063696423,-0.7755809295117754,10.367140915702862,-0.037168826398018905,-0.0902257719204694,-0.003369687087852887,0.9952218012254752,0.46734141716368055,0.6229148560704447,-0.37958644837751815
1729576229.881926,1.2598442266635823,-0.4684610198652684,9.99282810532992,-0.023372785787015796,-0.06258038512288315,-0.0014659541495045097,0.997765132313641,0.5102774834877054,0.7845398229531273,-0.27883467640195464
1729576229.8899276,0.9967632230098681,-0.6686978606984578,9.542946042885452,-0.03492292346240197,-0.051855024960496605,-0.001814481532065957,0.9980421601615611,0.5215656611924112,0.8248980249082867,-0.17751736731626153
1729576229.8980076,0.9033186454758427,-0.5130279339483715,9.394402829588694,-0.027242014011648923,-0.04782319727387666,-0.0013047790302854396,0.998483405984684,0.518547696401608,0.7486500915763429,-0.06351572418209173
1729576229.9059482,0.5113454060355056,-0.8026982435233196,9.177426532958293,-0.04358993565959435,-0.027694544682290358,-0.0012088173819207145,0.9986648429100577,0.5278048591251389,0.7058811620074108,0.04362305729145504
1729576229.9139447,0.13897370724435015,-1.0837606636432886,8.830804924901928,-0.061017327648372956,-0.007794826251215868,-0.0004765219253565635,0.9981061563467181,0.5529408995865108,0.7189575998590964,0.10748063611412106
1729576229.921939,-0.5101383672061243,-1.4949307438890982,8.559864456406,-0.08630396057307811,0.029206646689408044,0.002531185515795603,0.995837432153685,0.6484779454796581,0.8293947673824573,0.08236736424987796
1729576229.9299448,-1.2752558523549244,-1.7794611782670526,9.050677808365085,-0.09667706341238588,0.06831491974724892,0.0066514027566756135,0.9929463107294638,0.7598628108212244,0.9514224659480001,0.03324419621436958
1729576229.9379363,-1.560986143248892,-2.164939327809841,10.071566603231942,-0.1053583898185034,0.07470077245703109,0.007937081229230316,0.9915928635436702,0.9165143329946528,1.056140149635516,-0.022622488417581414
1729576229.945941,-2.2014484230098823,-2.372044780767936,10.349629908228227,-0.11180087591052085,0.10139346013269347,0.01146801409347821,0.9884778272883575,1.0820211766243313,1.0466034493994802,-0.03783782655388465
1729576229.953922,-2.9036757713352266,-2.493674430716621,10.816221939077561,-0.11209018258649714,0.12676396680748955,0.014418439968369006,0.9854738942639901,1.2081437566742463,1.0298134876598461,-0.07165705300046443
1729576229.9619293,-3.3202237770101206,-2.417732877424113,11.454828566278568,-0.10278812139290562,0.1369914259665518,0.014293766423302566,0.985121129381359,1.2970136966095183,0.9686567032406217,-0.2413658004415854
1729576229.969929,-3.0072757701123223,-2.1657877623431396,11.034498465450733,-0.095894369357802,0.12967587636161354,0.012601168037877851,0.9868280739720562,1.329476847559042,0.8685348134312443,-0.42407216058404396
1729576229.9779196,-2.7036276056220805,-1.8448717955894771,9.440829214768486,-0.09540078492937819,0.13593279828981572,0.013151875155558976,0.986026365146415,1.2582827550373432,0.7450338603877752,-0.6226651995150837
1729576229.9859474,-2.750563805804889,-1.9401052550880613,8.645278595755624,-0.1088551436105592,0.14902310805663047,0.0165077607189694,0.9826851809255657,1.1031841232983477,0.6785957096680103,-0.762679835885347
1729576229.9939313,-2.861325483189965,-1.5734716369395554,9.57406285935767,-0.08048543577056667,0.14242433127632004,0.011620430661581705,0.9864595126413219,0.9799009498911462,0.5995693335816444,-0.8471143077689671
1729576230.0019436,-2.5348939971893696,-1.0130359899762333,11.203456920936867,-0.04478509782589103,0.11048030432788898,0.004983471840807438,0.9928562647114406,0.9089108762770596,0.3622957405177588,-0.8739363474572654
1729576230.0099432,-2.379736533811669,-0.9379820029212868,11.119983182103136,-0.04182208687821782,0.10476466424109217,0.004409665746806739,0.9936074843838504,0.8880270252431712,0.146287204046496,-0.8823671501639279
1729576230.0179367,-2.9658770667713763,-1.1294967347117564,10.66480001790446,-0.052234133114053546,0.13430889496678639,0.0070896918046902384,0.9895364835824593,0.9163629605231932,0.060102468432865555,-0.9338258484872867
1729576230.0259573,-2.5085606455804035,-1.14360968389346,9.483808849854004,-0.059452779519076175,0.1278215792308476,0.007676234236872615,0.9899838818477444,0.8988836267127819,0.004560416511528997,-1.0311087170693791
1729576230.033934,-2.10009549989707,-1.1422612265958416,9.003620987402636,-0.06263055884544247,0.11322617927577076,0.0071517258439386,0.991567495555785,0.8385902892354773,-0.09644953441373597,-1.0869242978498623
1729576230.041949,-1.3838375257683202,-1.04736002697313,8.16196884610369,-0.06353880222103428,0.08303896550520468,0.005305351958116641,0.9945045017800282,0.6976945316294347,-0.2698633712563333,-1.0633711780822397
1729576230.0499306,-0.9241552205391169,-0.8833984929905185,7.629683662398542,-0.05749627064549659,0.059738280299234704,0.003446616157321075,0.9965508705358769,0.5897441236853975,-0.38881082551306284,-1.0019877093993808
1729576230.0579245,-0.914102221678939,-0.5424889444271236,7.840388799734047,-0.0344736801812705,0.057828417965097974,0.0019980957718098774,0.9977291451409546,0.5245481888575132,-0.4295296136418343,-0.8557552823939232
1729576230.0659318,-0.9837271948237697,-0.39588289546486793,8.370234861871678,-0.023586496247320617,0.05838081263268038,0.001379737933811598,0.9980147565213437,0.45988922427306067,-0.4586434771951795,-0.677343843099236
1729576230.0739226,-0.931649473632543,-0.37232329074571757,8.873932547982381,-0.020934880071990195,0.05222110726552008,0.0010949776224105086,0.9984154885499027,0.3874643306668887,-0.5046330294451427,-0.5166600317782077
1729576230.0819242,-0.781650438574057,-0.2475754112150087,8.78900875120154,-0.014065796910357063,0.04431440534497717,0.0006239923272629379,0.9989184138205548,0.28441278589850105,-0.6088509718582863,-0.2985023874074498
1729576230.0899282,-0.4847919941014654,-0.28381764052783337,8.58171310472483,-0.016522574516944784,0.02819267783779892,0.00046606457464847835,0.9994658374509248,0.20300011621021502,-0.705011252161673,-0.11822775365539934
1729576230.0982852,0.3658543189199801,0.22211906778290935,7.738356958293882,0.014343232323903174,-0.02360709449982583,0.00033873131493438884,0.9996183581932032,0.13371939144706588,-0.7942084848918954,0.08231176993309179
1729576230.105952,0.2245404148383162,1.3277386489216987,9.962930263843516,0.06619088153084049,-0.01114345417645214,0.0007392624777450819,0.9977444783721815,0.12535478138321487,-0.8294221518871614,0.317997490742397
1729576230.1139514,-0.1736489249251353,1.2307119503393475,13.073214198345173,0.046913375035148856,0.0066044526960235194,-0.000310185479820772,0.9988770796411166,0.09479461165718236,-0.8296915390726816,0.4223738878807834
1729576230.1219428,0.8233243681894501,1.6819820444711868,13.291934396692652,0.06286392856666566,-0.03062165113603387,0.001929724423232578,0.9975503581927674,-0.06614766076821774,-0.7587629311198343,0.45690418210732114
1729576230.1299374,1.588384199771092,1.3326458709698215,12.292145651443324,0.05385553555702636,-0.06374695901606914,0.003445164317119716,0.9965059143572091,-0.19549115895603422,-0.6485210465756629,0.5406244877396245
1729576230.1379347,0.36477517196226444,2.008180520628768,14.062292627682401,0.0708579759102537,-0.012804267348560383,0.0009096460766704041,0.9974038151779768,-0.28373950940527487,-0.3184480777427005,0.7292059410941667
1729576230.1459413,-0.4642006304652194,3.1695901947014793,13.51691381879694,0.11489351969386882,0.01659994068133825,-0.0019202115229332735,0.9932372495478801,-0.38096028606687055,0.050297418203351596,0.7810554442563595
1729576230.1539316,-0.6493822154373348,3.552077321166591,12.534393539080899,0.13759038994385558,0.024662453208263498,-0.0034269825507184768,0.9901761983543358,-0.48526727870172737,0.30176871013478707,0.7006343500506229
1729576230.161946,-0.19450189395966644,3.0326633177487823,11.20411537759893,0.13178070260975747,0.008304486087389191,-0.0011040385322023448,0.9912434933100053,-0.6602336505086178,0.5122480938983328,0.42336044046060795
1729576230.1699324,-0.02308785146369048,2.8467105028563005,9.879224115475374,0.13981593229577485,0.001111789195016291,-0.00015698795507853273,0.9901768752883654,-0.7886264269731638,0.6542862564305554,0.176540673090275
1729576230.1779225,-0.22621839813407366,2.2522283390672957,9.054840677781318,0.12158152238418993,0.012029619870194852,-0.0014736206652791448,0.9925074559431059,-0.8886493561708411,0.6969401478036858,0.008441379779359742
1729576230.1859233,-0.5918264551402098,2.0018415945048305,9.132664232108244,0.10762638180793763,0.03141902013190366,-0.0034029917409825468,0.99368899901332,-0.9205675696329534,0.6561248330394872,-0.08688422540818298
1729576230.1939452,-0.6989032314825634,1.5913598273083671,9.148233743122368,0.0859451288804011,0.03741485150948238,-0.0032298619511235117,0.9955918499566132,-0.902683462363024,0.5980061293254675,-0.17983755368351928
1729576230.2019465,-1.1565166300516474,1.5124254630354108,9.222218894555061,0.08102601335385126,0.0613212199289542,-0.004994529034332743,0.9948113126749875,-0.8242682782286034,0.4907675966485103,-0.3326668846620643
1729576230.2099488,-1.6518300622595041,1.1832673090712464,9.336041833559209,0.06274582417376615,0.08659661009384695,-0.0054649964876467925,0.9942505330561302,-0.7555089746133874,0.39449772243268355,-0.47289315025586287
1729576230.2179427,-1.8123092067892963,1.3370018002376696,9.678471687049587,0.06828266752687277,0.09135877923008873,-0.00627932316138069,0.9934543879180551,-0.7010570005389347,0.3065118035393833,-0.5876785940374083
1729576230.2259653,-1.6998223087415465,1.544403594791039,10.001484900657488,0.07625319306981894,0.08286678772586975,-0.006359438705467489,0.9936186912382455,-0.6977584303351434,0.2677680242316502,-0.6237717255737592
1729576230.233942,-1.773827488028131,1.785681712538686,10.455303129115196,0.0841774395396286,0.0824610504640937,-0.006990233754347988,0.9930082932488379,-0.7196179316547424,0.26538056965864987,-0.6254201716068541
1729576230.2419708,-1.9705018211860195,1.8571860123864927,9.93247969485193,0.0918465951266441,0.0957375160966963,-0.008871943416967532,0.991120486921385,-0.7778567789614772,0.389526665046149,-0.5472308877947732
1729576230.2499452,-1.9788519850455961,1.8550776010842394,9.9072869343428,0.09196644309533933,0.09636401277298066,-0.008942306814642666,0.9910480238290743,-0.8285506196196132,0.538084392973042,-0.47051901320518247
1729576230.2584863,-1.8315908577754045,1.8006612774474184,10.41482550044943,0.085168933561075,0.08537549656228335,-0.00732499571292371,0.9926749829529393,-0.8764202165344381,0.6587200942773681,-0.4496076020776879
1729576230.2659285,-1.5404453007980552,1.6164585181774354,10.339628256812627,0.07724763699167946,0.07278923388484296,-0.00565482961583936,0.99433523165564,-0.8979052436384785,0.7102427020483242,-0.41875608275832377
1729576230.2739227,-1.6149943594339111,1.6890932896173987,10.557632673081716,0.07900699622547096,0.07465199563392272,-0.005933290134844031,0.9940572268051155,-0.9078164294706685,0.7815968225497909,-0.342351322807869
1729576230.2819302,-1.9120726495958935,1.5502359859774704,10.78755527157364,0.07102416942919697,0.08650923529981455,-0.006183220169966986,0.9936968790094209,-0.920999872014837,0.8597415699520194,-0.1824235303657717
1729576230.2899287,-2.0273521200309736,1.3421836972993728,10.743310084330902,0.061827358181885395,0.09224407614026034,-0.005738796637384695,0.9937985079534147,-0.92720717729549,0.8602282016939953,-0.03623542764799356
1729576230.297991,-2.340249531295928,0.9805657799030612,10.502721343567291,0.04624141723300939,0.10882646654301754,-0.005067908698447007,0.9929717255861158,-0.8981534257313053,0.6787505244948933,0.14683200775016836
1729576230.3059452,-2.0264027302521663,0.9891288258519929,9.726298860827875,0.050377171090516745,0.1018810897689427,-0.005166025295355499,0.9935067671450745,-0.8309154376017368,0.40937876500424614,0.27923404224655324
1729576230.3139622,-1.8967525902997373,0.7198911431674457,9.525722915129537,0.037517729425297484,0.09777547749074422,-0.0036886226231232205,0.9944942282604617,-0.7556660596841092,0.23626207765038298,0.3659119939892387
1729576230.3219466,-1.5867249452931236,0.48580422325398304,8.927015856011316,0.02707059343965372,0.08768097188418358,-0.00238364000175217,0.9957778609713173,-0.6432574032225316,0.06428165540414002,0.47070433265614187
1729576230.3299413,-1.302785510388765,0.3637874240891085,8.436349949397805,0.02148006201439599,0.07644502821945867,-0.0016472475424340641,0.9968410360593698,-0.5451625249203187,-0.11255097857653723,0.5770001221254111
1729576230.3379395,-1.4084733008621653,0.3305605123147933,8.098854775546886,0.020316635090485903,0.08589987642195239,-0.0017520380405221068,0.9960950637022543,-0.4369255508093953,-0.29740322033541944,0.7046311050262772
1729576230.345945,-1.417058757128627,0.26369801271114157,8.351016566500007,0.01572456607665368,0.08389266806354422,-0.001324008644643242,0.9963498408029129,-0.3349483309956446,-0.45556616221303425,0.7931290164877338
1729576230.3539333,-1.144722058476395,0.2719433864841068,8.148450635700785,0.016637656684021312,0.06968045254297862,-0.0011623066525538871,0.9974299333570833,-0.2520518059728305,-0.5938843136087304,0.8509103540406902
1729576230.3619313,-0.9746162746366183,0.2323584598689797,7.863626523998596,0.014740250731994005,0.06158313469973201,-0.0009095766459420844,0.9979926929588401,-0.16527885561194533,-0.7798921993199597,0.8851534665110019
1729576230.3699331,-0.7358438895378303,0.33909149437841907,8.073649541108141,0.020963515227324675,0.04537974907258713,-0.00095251029958015,0.998749369024858,-0.1059783543505597,-0.9268292058480458,0.8950570824566382
1729576230.3779259,-0.52841585398637,0.22093256874619202,8.22097174614926,0.013426304577622523,0.0320741848249617,-0.0004308983755045673,0.9993952147873199,-0.08061461506881709,-1.1009808021802279,0.8405512632964115
1729576230.385924,-0.2236756476457283,0.2302429689820902,7.955502063802837,0.014464647566520323,0.014046407861906196,-0.00020321765448703762,0.9997966948832839,-0.07093034229877793,-1.2714537195061522,0.7699613563301546
1729576230.393964,0.12556549153951613,0.2815584608326135,7.123928428223109,0.019749100210932933,-0.008803322231178119,0.00017389835126685476,0.9997661948265285,-0.06384270845236834,-1.4920793069881513,0.6884439264958936
1729576230.4019735,1.0425967656268347,0.4701256453472244,7.165355561572536,0.03266413081305267,-0.07199168122346096,0.002358935205052126,0.99686743743466,-0.04171114556311725,-1.6921393792498138,0.6076067139856846
1729576230.4099534,1.8214617886241475,0.8844565249036471,7.149989253691568,0.061008384143634437,-0.12326731803463746,0.007592718912056621,0.990467311923141,-0.022898237030560195,-1.7138410184090822,0.5344143629147613
1729576230.41794,0.6743706229791759,1.0059229444832039,8.518393104216894,0.05869115166047136,-0.03915160199328782,0.002303598970671736,0.9975054858044186,0.002862970178683113,-1.305428841057232,0.4006783493037187
1729576230.4259665,0.5901730024496149,0.7797670088774222,10.687131529034042,0.036394675309331805,-0.02748867916070105,0.0010014842414559036,0.9989588565884195,0.023002285180311447,-0.9445938379284491,0.25275202136463015
1729576230.4339476,1.5037994386768003,0.4357779030803596,10.138135540955581,0.02141670453342821,-0.07347839742978188,0.001578296521690652,0.9970655740011128,0.007416020186256394,-0.7451204385096607,0.015004703089465915
1729576230.4419508,2.1434338038310803,0.06274800405524698,11.909410484729598,0.002623500588153236,-0.08891678861424257,0.0002342017223385534,0.9960355752164414,0.08873624428123608,-0.6322474398417801,-0.20213944863148814
1729576230.449937,2.650036968089664,0.6067505370522889,12.702588344060414,0.023731603868191457,-0.10251233869481392,0.002446370338690158,0.9944455976398754,0.24948486490273822,-0.512589453142684,-0.27240364099791414
1729576230.4579291,2.5496182062444235,0.15623361812981076,12.73652543319406,0.0061018265813115626,-0.09861544562372683,0.0006046932773839361,0.995106725905742,0.4153215172939506,-0.2190101391015078,-0.2553912378745473
1729576230.4659355,2.278198362711498,0.39756436155171454,13.014503785307062,0.015208997839389995,-0.08648953401689569,0.0013205219159555712,0.996135785479134,0.4645920814761584,0.10740604101929502,-0.2775362406716416
1729576230.47393,1.9570897268554142,0.15019257567126312,12.93899758856705,0.0057865788543785155,-0.07498192799789619,0.0004351210983802975,0.9971680082355782,0.39752277603360187,0.3769001297247082,-0.32658120751270886
1729576230.4819298,1.387816624199186,0.21317751073478913,10.91273141690976,0.009745671876357321,-0.06319044310797627,0.0006170960812760443,0.9979537108362905,0.4266686727863791,0.46495220231502465,-0.3560081876173492
1729576230.4899433,1.1633292237870898,0.414253024995561,9.776219788866559,0.021133977398524066,-0.05911907128568098,0.0012518918324828873,0.998026414067522,0.47693434557062186,0.5641836625685759,-0.3651505744508927
1729576230.4981742,0.8550571631785039,0.6095974253488992,9.709622638700793,0.031313806839423086,-0.04379671304003865,0.0013734351469653718,0.9985486503440926,0.5262498020069589,0.6892788081858596,-0.3672304860593226
1729576230.5059319,0.7953106736395241,0.009740668344105044,9.089070446013444,0.0005353142521298618,-0.04362590373728043,2.337582664998846e-05,0.9990477933589201,0.5200811107059505,0.7021851465827733,-0.333997538045956
1729576230.5139484,0.6517237052091052,-0.11721756432556824,8.829027188262364,-0.006633069777811118,-0.036828819526338416,-0.00024445936253050007,0.9992995450200302,0.5163798959253455,0.7014151483916808,-0.2910705059189863
1729576230.5219402,0.11187030955124433,-0.560663038595341,8.662706166473043,-0.03230933926741702,-0.006439760376652525,-0.00020817741212050985,0.9994571490286911,0.5528969626500273,0.7452249158690766,-0.2206168301892912
1729576230.5299752,-0.5414838762809722,-0.7956057015751733,8.570574998711951,-0.04624205096965733,0.031374275042157666,0.0014530828869270904,0.9984363856239526,0.6122679280934953,0.8166339228704893,-0.17579048438270195
1729576230.5379395,-1.385521661217802,-1.747966241990026,9.427008290242796,-0.09129591880899586,0.07139590705608949,0.006562521160071733,0.9932394539991266,0.7606983736470143,0.9680302927441551,-0.17784160107816654
1729576230.5461617,-2.2165980772970877,-2.3557744314733124,10.329686614770676,-0.11125822905992282,0.10229079676499929,0.011513721629319509,0.9884460701413476,0.9080761793994241,1.1205931735803492,-0.175241060542287
1729576230.5539412,-2.641981356143877,-2.6522245978488312,11.024761935903422,-0.1169651645370526,0.11341073317644176,0.013445984503964508,0.9865476984849345,1.0863234658193588,1.2112795219591415,-0.16686969523736678
1729576230.5619345,-3.0355961794089827,-2.684048396404611,10.929926813641663,-0.11902670122389769,0.13039417808654008,0.015770103991992954,0.9841652841555499,1.2332867034487505,1.17416796777208,-0.1678065369148831
1729576230.5699294,-3.2787082581824993,-3.093397546143548,11.069110856251402,-0.13446888677208632,0.13721658455229546,0.018805062743990974,0.9811911623273383,1.329978447255626,1.1344477427399,-0.17645675308917147
1729576230.577926,-3.5363847229759053,-2.5376677403326133,10.92325676277428,-0.11250416189837444,0.15115752560410955,0.01731873184904504,0.981933947644101,1.3488300078852444,1.0114298233999386,-0.22677002930871984
1729576230.5859296,-3.4800614355921837,-2.2616906966898025,10.034405011033709,-0.10908610814102587,0.16140053030964327,0.017953467027002217,0.9806771960477723,1.299267265473945,0.8707857321464227,-0.29016181983448736
1729576230.5939713,-3.1010235837674194,-1.913426883834194,8.663841639432725,-0.10687233742872941,0.1663400356386682,0.018138244857680987,0.9800919855348932,1.1154298177779098,0.7276540489125529,-0.4031183449672654
1729576230.6019728,-3.0225202159342794,-1.428656564870829,9.173876840349088,-0.07617412700190941,0.15624752841137593,0.012086924290226132,0.984702045545776,0.8846570617665339,0.5600425471715209,-0.4955822836117301
1729576230.609966,-2.763531348310568,-1.1837630453678099,10.386103289268046,-0.05621993718221148,0.12866096987484615,0.007305882327074103,0.9900668147036922,0.7321456361314613,0.37433763383449536,-0.5310532139096934
1729576230.617977,-2.9509877054707156,-0.7665215662343577,10.946323882740515,-0.03463494505568864,0.13089908044957366,0.00457587222206426,0.9907799517106979,0.7083235005228807,0.11605161462787915,-0.49997589452864155
1729576230.6259644,-3.176707258292195,-0.1903258328070209,11.151253987847433,-0.008447477548257665,0.1382926076414884,0.001179601323748515,0.9903546856230379,0.7357478451810114,-0.04530534781802106,-0.4574908594581366
1729576230.6339767,-2.8562829938913326,-0.8700449637955406,10.099616716438929,-0.04253258646265834,0.1367660085966518,0.005877714679472987,0.9896724157272868,0.7385803700091049,-0.10295603963105426,-0.3592068379058263
1729576230.641972,-2.0776884486785496,-1.1232110151425587,9.714040023759841,-0.057198575993073646,0.10431408197324776,0.006009403632830432,0.9928800442522857,0.632154609294605,-0.229495507994673,-0.2155241027434958
1729576230.6499782,-1.4283329752129892,-0.9066430104527226,9.56625164609184,-0.047095173544277225,0.0736323470178547,0.003481071962146735,0.9961667552370291,0.5027428834007521,-0.369698388293611,-0.09696201697498308
1729576230.657972,-1.009271010713731,-0.713495283810696,8.998738287459792,-0.039487354005861196,0.05559953293869437,0.0022006067697067045,0.9976695836500479,0.2969631393643689,-0.5432150293800004,0.07506377905262607
1729576230.6659691,-0.877304494855973,-0.6553069078352458,8.490157315737594,-0.0384535041451305,0.05127106721524305,0.0019756175541007386,0.9979422341101966,0.15050802962358928,-0.660095715875695,0.25405208760943315
1729576230.673947,-0.7804074930561619,-0.17842425578513185,8.248694496864433,-0.010800903101855282,0.047133328060446886,0.0005096787923061685,0.9988300806972421,0.11073794072433109,-0.7327782681418841,0.5023484830874498
1729576230.6819372,-0.6358386120446347,-0.07353573022889162,8.629583490110846,-0.004257564771598361,0.036764228507626756,0.00015663339598110795,0.9993148853641849,0.08006484640138366,-0.8278962969385033,0.7632828065387742
1729576230.6899335,-0.2926782856349839,-0.41641979629163184,8.220540983959085,-0.025299516882448088,0.017764735465957797,0.00044965417798698275,0.9995219589536087,0.03356544575112112,-0.9305159507929122,0.9534729154650693
1729576230.6981614,0.24457541997643154,-0.5304523123452916,8.143188436810998,-0.032514827398126424,-0.01497245038818332,-0.00048713890502233764,0.9993589817599733,-0.03349768029354332,-1.00102723439626,1.1122844372743597
1729576230.7059498,0.8848776238120307,-0.9433974408739718,7.821204297438161,-0.05988666863473461,-0.05579784228234752,-0.003352816295556215,0.996638824419035,-0.08608056770274089,-0.97650066490873,1.234389824232042
1729576230.7139475,0.6841554805372184,-0.5112112465068049,8.115952112154302,-0.03141868530525566,-0.04193355285208498,-0.0013193106164096846,0.9986254066357355,-0.09762286725954394,-0.7966169793689436,1.345539471876772
1729576230.7219398,0.8632368222578779,-0.6467033836462704,11.344929077351175,-0.028445936307456475,-0.0378861348026213,-0.0010789187193925517,0.9988765216140114,-0.12455567988234126,-0.7312557741912749,1.291758973069855
1729576230.7299397,2.8158968467726955,-0.9123521937619811,11.935576822631406,-0.03787176376777228,-0.11517838081630537,-0.004394470848317508,0.9926128947014619,-0.21521112821187519,-0.7414190982142693,1.1786095621079191
1729576230.73797,2.052499079743305,-0.07479590854234491,11.84536222150853,-0.003145052525296246,-0.0856781929290429,-0.00027045828166743314,0.9963178623076797,-0.33984325735083076,-0.4478312893587958,1.0081286107184078
1729576230.7459466,1.0859319869084827,2.1154106128335775,14.11241197035629,0.07427033262633474,-0.037861933647456186,0.002821852159112951,0.9965151422946072,-0.3929123416996405,0.0016144154131126354,0.9505374963382143
1729576230.7539353,-0.13972445653655088,2.3104846697020998,13.743070540368072,0.08318386272274848,0.004995535846428602,-0.00041699845204974076,0.9965216082536399,-0.4124087805265274,0.4224018100952789,0.953869243180219
1729576230.7619321,-0.7487044749473211,2.493609069643526,11.88407116699428,0.10317851710056838,0.03062067677927979,-0.003177871100377754,0.9941863350990979,-0.524995188389161,0.5880334743663241,0.6898120028716521
1729576230.7699358,-0.17963557803479888,2.3532896361220526,10.485198066407506,0.1101622384017805,0.008306477741834704,-0.0009206962403490352,0.993878481493722,-0.6606574429406662,0.7035886952645085,0.3887714880967314
1729576230.7779276,-0.22030882484822306,2.1297554393880755,9.410284762696065,0.11104914837165338,0.011344157264730367,-0.0012676828327605944,0.993749359608407,-0.8101652055054944,0.8031458221672234,0.043830815507434756
1729576230.7859278,-0.3050466547722151,1.8100842926855796,9.014094332959436,0.09890901664873328,0.01650119780974793,-0.001640387584969238,0.9949583036615128,-0.9139176350726383,0.8607516480015422,-0.160153757615909
1729576230.7939353,-0.7253146688887196,1.5694398907968947,9.285387348066678,0.08355798871943713,0.03829063846483142,-0.003213106519900106,0.9957618015738552,-0.9936223853328681,0.8633883888924812,-0.3123428057922575
1729576230.8019445,-0.9813062000148725,1.5253702992242304,9.596603660060708,0.07862987152108049,0.050145920064679994,-0.0039602577684189275,0.9956339921697395,-1.015478141739822,0.7517368770781441,-0.5096530600021124
1729576230.8099482,-1.4020940239640016,1.2690851849056322,9.459158542471972,0.06645038697044249,0.07270662219402255,-0.004855049703142183,0.9951253798657705,-1.0098612328796648,0.6264264315692435,-0.6642228677522981
1729576230.8179479,-1.8276674983627759,1.1948016114316606,8.990746164301543,0.06567170299293927,0.09904415798186386,-0.006550962625270432,0.992892021865597,-0.9703074323392978,0.4920692457206807,-0.764627173508726
1729576230.8259623,-2.0770260788516497,1.057336442933215,9.193566892916863,0.056858661910636675,0.10998724523343953,-0.006302348118510825,0.992285331373937,-0.9282704793722103,0.4216714956866318,-0.8112476749957978
1729576230.8339403,-2.237175714449662,1.2643163225470382,9.291317313484493,0.06708871433116195,0.11656785234704659,-0.0078923433080436,0.9908828140227768,-0.8838922548261664,0.43690100396357673,-0.8034620107252302
1729576230.841971,-2.238694530232297,1.4488381321512698,9.08133813955554,0.07843500709746606,0.11874053737794182,-0.009409601720480979,0.9897778002361338,-0.8508799691766096,0.5090408380261243,-0.7570729861396105
1729576230.8499408,-2.2178185845944562,1.5698462850524806,8.93380282025676,0.08621282586039213,0.11916079988573831,-0.010386712360910062,0.9890703557553874,-0.8221331064961728,0.5795689023972229,-0.7156174894214538
1729576230.8579452,-2.175126076293783,1.5385428247424258,9.671520621597415,0.07830767731795138,0.10872340169093546,-0.008591668896944507,0.9909456659289572,-0.8172300006703097,0.6955301216528136,-0.6775477994852366
1729576230.8659394,-2.143046226830957,1.3854460354216271,10.37344334219673,0.06598500715995068,0.1005960653449576,-0.006686548211979738,0.9927143096280133,-0.8274845290801147,0.805973099106523,-0.6329957923889428
1729576230.8739345,-1.9418389909813867,1.433648758948289,10.595638816597335,0.0669117395414266,0.08950393919556147,-0.006026723907243214,0.9937180397773623,-0.8438538076010866,0.8879894178528438,-0.505801733626127
1729576230.8819356,-2.0713087229579727,1.2590632519510045,10.549390976725979,0.05907269822314113,0.09595443525758914,-0.005704712414473701,0.9936149248754786,-0.8634662461272964,0.9682745835873646,-0.25495237316900454
1729576230.889933,-2.3532159637552525,1.2347571235338841,11.003834487158636,0.055524591137122124,0.10434824669736534,-0.005834898389941207,0.9929725158084791,-0.8718281887513261,1.0377301861011787,-0.02356164521694512
1729576230.8980367,-2.943500380255104,1.2326232951164242,10.981774369052994,0.05536612427788388,0.12958946208921238,-0.007247381664288142,0.9899942621333149,-0.8751425940798958,0.9576561900313261,0.24170273980851395
1729576230.9059455,-3.1042195360143907,1.067340184345245,10.55912981430289,0.049818612218351974,0.14161893613711607,-0.00713631948925162,0.9886411157483671,-0.8805367577687339,0.7759451130903366,0.42938260494174546
1729576230.913949,-2.7359364872336345,0.9324967131462095,10.020154243562201,0.04595583019314187,0.13219467567988993,-0.0061356202113338415,0.990138870844777,-0.8463125305733779,0.506007623693095,0.5560382960499314
1729576230.9219394,-2.3880739699768996,0.618634808893585,9.305077509516227,0.03291567866128039,0.12494806497648446,-0.004147554729615359,0.9916084594973282,-0.7870401986631195,0.3116926853836356,0.7052504012863123
1729576230.9299502,-2.1161495357947335,0.7501830081388854,8.681622294283954,0.04276690282895285,0.11872512086418084,-0.005118491983716538,0.9919925094162845,-0.7391317877345656,0.14359522496105412,0.8594825537703699
1729576230.9379404,-2.095210453898715,0.46878457783255006,8.326463358259826,0.027895415098594136,0.12271131845121858,-0.0034505346206626154,0.9920442893093394,-0.6759058461990086,-0.07773353868624971,1.0533360798887679
1729576230.945938,-1.9773021317142288,0.6866090877639831,7.799009318666833,0.04354244467596776,0.12325726917670178,-0.0054134555105217145,0.9914042543817219,-0.6256252694952755,-0.23862634093112609,1.174756476297351
1729576230.953931,-1.8210841391359593,0.688974584738468,7.702564027479396,0.044280129271835424,0.11526378862997753,-0.005143323380124577,0.9923341551145667,-0.546928256466364,-0.34793272412191284,1.2195131700860067
1729576230.9619417,-1.4343030603858724,0.6025266819954246,7.930325110823575,0.03774994999595387,0.08903042130325155,-0.003376739125202468,0.9953075519610753,-0.44564741084333914,-0.4905664551610126,1.18975040818475
1729576230.9699364,-1.010219439991289,0.34044703458787967,8.077037407802738,0.021018654041752873,0.06210502390607112,-0.0013081799755894133,0.9978474186232337,-0.37679079230174556,-0.6268038110984542,1.1395403063728817
1729576230.9779313,-1.0351726014947733,0.22414009453202466,8.277113423685549,0.013508808054346597,0.062140895859532,-0.0008411522566154079,0.9979756077327776,-0.33207130068509316,-0.7877245760928571,1.0655681689551715
1729576230.9859223,-1.0657068091878796,0.22235125764694916,8.531713166516017,0.013001414608249268,0.06206772412814992,-0.0008085959776885469,0.997986927275243,-0.29161752374831673,-0.926846041235702,0.9747846698051837
1729576230.9939575,-0.9075746714502277,0.4049132228498882,7.969803816657657,0.02533610170936762,0.056573224943300846,-0.001436108205908919,0.9980758937890987,-0.23116160236197822,-1.103970733843056,0.770897358742018
1729576231.0019388,-0.745418322157246,0.28843776525290166,7.948213985551234,0.018115273585197524,0.04670017190058976,-0.0008470500156682958,0.9987443182885496,-0.16977233590391524,-1.260051286598526,0.519580883481123
1729576231.009969,-0.4783756148763788,0.31072925461072537,7.788495525119803,0.01992633213687014,0.030636660847314243,-0.0006108844981120468,0.99933175828642,-0.12187083443106463,-1.3600849691737384,0.3351614834690855
1729576231.0179408,0.35102937350581326,0.23671578762971646,7.658666785286725,0.015444369848167501,-0.022885459400441246,0.0003535863115449588,0.999618728398355,-0.09057579317858207,-1.420530868780328,0.1959886093439069
1729576231.025965,0.9125975508613003,0.7307636608102517,8.288256131963049,0.04388820957675786,-0.0545426461507133,0.00239967372488846,0.9975435661549017,-0.06881893799685831,-1.420189063258547,0.09545728241031849
1729576231.0339403,0.8772400991202959,0.8256006049334167,9.460405850808689,0.043462515678878336,-0.04599762524429105,0.002003191722495345,0.9979935948820874,-0.0468253335971214,-1.2041591187842284,-0.02105260186282272
1729576231.0419748,1.6360565289545992,0.38067810343856556,10.272153017321152,0.0184600991198591,-0.0788235188798542,0.0014598833777464146,0.9967165827618228,-0.044697112555292066,-0.9587534553819645,-0.16800843355133516
1729576231.0499418,1.6479402393942437,-0.2791638898899856,11.540668739103626,-0.012060529074446302,-0.07083265291716569,-0.000856493364046917,0.9974149313792521,-0.017878776242472576,-0.8379028411512521,-0.2583103828717528
1729576231.0581033,2.1973571416834212,-0.03054999897305386,12.478470254692645,-0.0012192706566164762,-0.08704183990465306,-0.00010653196677081096,0.9962039048990015,0.13358166509014519,-0.7641154024284387,-0.3124915524640034
1729576231.0659623,2.178890361670209,-0.9195075042666448,13.625815209456213,-0.03357430722972296,-0.0789790302879115,-0.0026614946506780908,0.9963071790944045,0.27639211738808367,-0.5516953649172481,-0.33733783311303717
1729576231.0739272,1.2316774445411875,-2.1009923968470963,14.680774456484274,-0.07095009706076923,-0.04131407406222841,-0.0029411799983672816,0.9966195766046668,0.3867684123316446,-0.019837784021603744,-0.2837095016070703
1729576231.0819366,1.0263106659434627,-1.933366104612164,12.577895767640564,-0.0761208022224267,-0.040109740921096565,-0.0030645649171844643,0.996286826468224,0.4849209439074335,0.3503595718912267,-0.18725330342272345
1729576231.0899332,0.605970172759437,-1.6218611630114388,10.981459162244494,-0.07322144100083955,-0.027190845241904606,-0.0019970579318046543,0.9969429724274145,0.5812731882615656,0.5694981550086906,-0.0804252274439817
1729576231.098429,0.4325351114681622,-1.0303381174845976,10.100211652131852,-0.05079607680112435,-0.021259656327725033,-0.0010815487578834855,0.9984821559981558,0.6986811434787293,0.7197116675834985,0.011341472138295415
1729576231.1059616,0.37468216673441296,-0.7999227764966179,9.435233071601376,-0.04226786958621642,-0.01975522259505446,-0.0008359217950274736,0.9989106364513369,0.7806195482685024,0.8119682254356932,0.05618493041257292
1729576231.113961,-0.024187672615602215,-1.0002136866499238,9.40734718060731,-0.05293752975735608,0.00127657253170251,6.767354184462525e-05,0.998597007669286,0.8127549886838851,0.8341183353529718,0.05116425076748704
1729576231.1219738,-0.47803004497561136,-1.2654768533473764,8.935717330581182,-0.07025866678781555,0.026390770624152234,0.0018594278272886376,0.9971779126591288,0.7932984573400697,0.8423001205657944,0.05496288396382802
1729576231.1299708,-0.8808194588701324,-1.3947072326138945,8.57804032876863,-0.08039599429680755,0.05031832078880762,0.004063744029044873,0.9954838204001553,0.776090567734774,0.8718992152582858,0.07426966634011388
1729576231.137975,-1.685130497343564,-1.7542824157402117,8.680187007319772,-0.09908501645173272,0.09341537639206662,0.009343515563755237,0.9906404118978784,0.7840705066144641,0.9837361756568898,0.13608516301840512
1729576231.1459374,-2.242176792058482,-1.9582959374812363,8.968684751999284,-0.10647946787033026,0.11880257282827629,0.012815238156417358,0.9871088295028202,0.8131228034456139,1.0925559779193312,0.188499303238013
1729576231.1539261,-2.6829465427643866,-2.16833183128757,9.192301053836289,-0.11441505048888644,0.13702577677021968,0.015935836118843673,0.9838085087298934,0.8944076907636085,1.1548680288465616,0.18631827251427724
1729576231.1619375,-2.9888280819086313,-2.5218025252862137,9.650406319557634,-0.12604692907186751,0.14387156299321172,0.018478977070737174,0.9813621515219858,0.9691457169035892,1.1611798849161716,0.1573398000850037
1729576231.1699345,-3.401960944604163,-2.7154495889021972,10.805617429429892,-0.12138720068093219,0.1465160893469071,0.018119205228177154,0.9815650143904047,1.0318675151689831,1.0666325943602084,0.10802596201778722
1729576231.1779234,-3.6302082086082006,-2.708097021407725,11.199229467667699,-0.11691591062470151,0.15095208127703913,0.017982488976673556,0.9814381127157895,1.0460876407478075,0.907738605275743,0.01628691020400072
1729576231.1859226,-3.722863836297733,-2.249266005813385,11.000849089292025,-0.09932855772074778,0.15858372924990488,0.01603726660993084,0.9822056019581598,1.0435517744970892,0.7958002994280444,-0.07238603573977168
1729576231.1939607,-3.6111025168665307,-2.08673429465014,9.456073773643574,-0.10658798563882811,0.17647822894314438,0.019227158993738315,0.9783275281742703,1.00882642995262,0.7128867836453301,-0.1728414001283206
1729576231.2019465,-3.166719543567184,-1.5824404058916466,8.088436058619738,-0.0947623742075826,0.1815422392182241,0.017578699730919977,0.9786488119493864,0.9590442990465202,0.6324889897504352,-0.26206154294086814
1729576231.209965,-3.097371976384451,-1.4757097684373317,7.8077459039706705,-0.09158927357714836,0.18397073355348031,0.01721990878057421,0.9785037807300457,0.8683013417137899,0.46080019558950913,-0.37348747698723295
1729576231.217944,-2.874522370400983,-0.5950091996854457,9.573128492089435,-0.030690058685331416,0.14500335098794656,0.0044999085541608955,0.9889448413956976,0.8679182051198298,0.2764801173537055,-0.4148016337273299
1729576231.2259655,-2.8914078912347305,-0.049590026647204966,11.422205172646239,-0.0021534098682310424,0.12364684274591352,0.0002683219942085232,0.9923239134013723,0.9166426802315872,0.12331906426602013,-0.37956782910524167
1729576231.2339413,-2.8048134566646663,-0.07452558703324486,10.507114257152196,-0.0035149940465966536,0.13005732306410409,0.000461069745192047,0.9915001386530118,0.948857195728876,-0.0452017786497568,-0.2724381539166583
1729576231.2419455,-2.571855150414815,-0.19866251896799375,10.293966200775692,-0.009572956448307694,0.12208160742660415,0.0011775450569898502,0.9924732001523336,0.9205086181435016,-0.11311045960518445,-0.2111401792337425
1729576231.2499437,-2.7658318780906863,-0.21975398110735875,9.653718211676354,-0.0112644846140094,0.13901984821645927,0.0015814467478197194,0.9902242635960993,0.7723869326619713,-0.13384823528972556,-0.1990514179887909
1729576231.2579303,-2.406250624657146,-0.05930807836168087,9.073484302249952,-0.0032396044640702086,0.12924844573960084,0.00042225791131605543,0.991606860572813,0.5809226165607035,-0.29868794270385757,-0.11602533030157829
1729576231.2659926,-2.0956914868548346,-0.2936797859818523,8.64657472197497,-0.01685044635041518,0.1185310220489502,0.002011774694327921,0.9928053243372551,0.42986037167567015,-0.482304089383281,0.018928334603155614
1729576231.273924,-1.4173475630113381,0.02801753002221677,7.9202077677552944,0.0017615186000297543,0.08842315263137276,-0.0001563717815316063,0.9960814317508466,0.29537694841406087,-0.6844228306667339,0.24335808425870062
1729576231.2819304,-1.0247064186661778,0.045301517769189434,8.05564411133677,0.002805902711046294,0.06321859361152864,-0.0001777414626229601,0.9979957438485041,0.1887198007079114,-0.8154849468504324,0.4107940687846041
1729576231.2899299,-0.5039723143344723,0.10379536378651365,8.61885871167511,0.006018412714025012,0.02919655912342944,-0.0001757950737695217,0.9995555556045136,0.0698114941556196,-0.9298801817234621,0.577237619026761
1729576231.2979984,-0.35768944695029276,-0.12327341039020118,8.370926325637878,-0.007360844293049051,0.021347484557723718,0.00015717558861945668,0.9997450065742692,-0.018986782295698758,-1.0734387734645976,0.7873574750907213
1729576231.3059473,-0.06641258540650376,-0.15584574301146448,8.002379181613195,-0.009735991307481998,0.004148462095781149,4.039165291794105e-05,0.9999439979838946,-0.08418506988742666,-1.1727703204146018,0.9436533830929017
1729576231.3139513,0.13085902712523834,-0.6633274409240661,8.060893649104635,-0.04103936064510102,-0.008081953439942864,-0.0003319687448503705,0.9991247883538814,-0.1394802647780206,-1.1319063940795648,1.0301941968493555
1729576231.3219414,0.668446705337643,-0.5672665219274865,7.837428550302624,-0.036084909377678304,-0.042390693660600796,-0.0015320419512702126,0.9984480763933783,-0.1543527090695096,-1.0252298564163707,1.0757333341812974
1729576231.3299453,0.4338685859467264,0.03481148698999246,10.46841298833587,0.001662313958233712,-0.020709272107906542,3.4432744139625914e-05,0.9997841574937318,-0.08963179501147153,-0.9220604481639472,1.1154018283628613
1729576231.3379467,2.361233108355145,-0.3040062730892077,11.656988200716366,-0.012968684264575595,-0.09972008011944694,-0.0012998281507274878,0.9949301630246192,-0.1193353464720358,-0.9342288739068866,1.0578961231325517
1729576231.34595,2.560449998069728,0.4530173567519442,11.567118091328258,0.019450300233114073,-0.10860523947775638,0.0021253855540374713,0.9938923837695244,-0.1984568461989069,-0.7874301271033948,0.9706071323730738
1729576231.353944,1.1141722461562897,1.5182317983285103,14.78535143463094,0.05110356832293711,-0.03735352399097217,0.0019127377542957809,0.99799272591758,-0.2701940795383654,-0.1438253488133484,0.8833271528775006
1729576231.362038,-0.2137599640738042,1.0912224640068717,16.28485630145239,0.033447212103240004,0.006544381364251246,-0.00021901855373407728,0.9994190347926906,-0.33750075304537624,0.3445031329115669,0.8364931359791631
1729576231.3699472,-0.19457536443061066,1.784796661997873,13.36437105259995,0.06633111219917649,0.007199114776230121,-0.00047859179314597473,0.9977715806990869,-0.4434410266147356,0.5983367362920092,0.7798714917222045
1729576231.3779223,-0.2642280409239914,1.4592175064760675,11.566111231413485,0.06270470371445783,0.011308191744937652,-0.0007105207294884479,0.9979678051379387,-0.5678788695454218,0.79576004483525,0.59307577310316
1729576231.385922,-0.5279621407165043,1.8032836471961873,10.087563081621528,0.08830156883665033,0.025634402923859566,-0.0022731934062630715,0.9957612881205321,-0.6638260783769351,0.963168387029328,0.37457582656622535
1729576231.3939383,-1.0201937321838088,1.5486000918821654,9.461162752537371,0.08091314461335718,0.05280828349368161,-0.004293010037524307,0.9953119703329437,-0.7690716905595906,1.0866006556647245,0.08299070547287865
1729576231.4019463,-1.537954021292707,1.5248374281761743,9.394174569247033,0.08010193290731428,0.07976235051259416,-0.006430469761410605,0.9935694725804863,-0.8666999528476084,1.1019147883642022,-0.1524083559107378
1729576231.409948,-1.5665732391916396,1.2704414034389075,9.27353648349158,0.06777866450792366,0.08262785512757095,-0.005632754637612409,0.9942569900532416,-0.9755083374729389,0.9250767111249809,-0.3855968460167065
1729576231.418136,-1.8767950531341244,1.184602014914907,8.776422257526587,0.06665191188168543,0.10399285422885872,-0.00698498399872346,0.9923175998189234,-1.0437731986783714,0.6572116414258761,-0.5472201332148514
1729576231.4259655,-1.9638081927691466,1.1524914152477723,8.546627889428061,0.06653278564453205,0.1114640886428103,-0.007479513150845975,0.991510565884415,-1.0740898638650802,0.4437070319851213,-0.6565391173161372
1729576231.433947,-2.1840890330931284,0.9728135442170226,8.655832879897071,0.055491126714144016,0.12234043648729705,-0.006851071116320328,0.9909120118762571,-1.032683254372421,0.3211382371196748,-0.7059542854413515
1729576231.4419518,-2.413940965021893,1.2083353396649792,8.708666605379648,0.06823761902589176,0.13326018307454174,-0.009197413644398633,0.9886863802737805,-0.9661216626535463,0.30293666819047105,-0.7028252515839036
1729576231.4499416,-2.5824979054291513,1.4949764577052376,8.277088819428961,0.08819619242024347,0.14780888080698046,-0.01323487967733082,0.9849867026295765,-0.8759532803697018,0.42695947631641284,-0.6698724567827066
1729576231.4579306,-2.8502685052203813,1.615006952504002,9.230087028229642,0.08552006966696789,0.14655724607571952,-0.012719075579110641,0.9854164177763992,-0.8201494907535469,0.6316343199993595,-0.6624457916843872
1729576231.4659395,-3.130401527936916,1.4509569656918544,10.368593486469035,0.06869894589183134,0.14440913735271407,-0.010050617047945786,0.9870792475679709,-0.7998636088891771,0.8063734137074954,-0.6367052895522941
1729576231.4739282,-3.0152472851703527,1.3707229062217532,10.723691733971265,0.0629123640220394,0.1353050057577338,-0.00860906209241619,0.9887671484833762,-0.8157876238270492,0.925264641960624,-0.5029191511865934
1729576231.4819326,-2.7594070100182275,1.3410178233228955,10.615927660011664,0.062266518813944044,0.12560852211771986,-0.007899470125478689,0.9900924089083462,-0.8342815240804751,0.9748891857779376,-0.35496274839471
1729576231.4899292,-2.364567317583202,1.4239906634761592,10.410729578184732,0.0674837524914547,0.11019205369090666,-0.007499254534299698,0.9915883297187812,-0.8385668232491381,0.9846564791796102,-0.13465067772781217
1729576231.4980338,-2.6431351195538277,0.9978070775290547,10.658233146080761,0.046300769500020975,0.12060762012708597,-0.005631508233926807,0.9916039163022692,-0.8172993593084622,0.981577363929911,0.09374251856274568
1729576231.505949,-2.894312279007687,1.0533431417811046,10.985342730666035,0.04737009884124477,0.12774817178353054,-0.006108522004016757,0.9906559262936162,-0.796450769776278,0.917579145806635,0.266110711438429
1729576231.513941,-2.8204424589573467,0.7337594556253034,10.773157678194544,0.033707402151122265,0.12732401542306698,-0.004329520400175438,0.9912788010392806,-0.7852186862413537,0.6842141667830589,0.4997927859712207
1729576231.5219395,-2.648509618440814,0.7720920234728382,10.156950667707742,0.03760693305474631,0.12675403634453689,-0.00480910565145406,0.9912093650482813,-0.7818849566120952,0.4888554713788491,0.7162005516925993
1729576231.5299451,-2.6389631990430034,0.8709877568083124,9.665122176747692,0.04451000961460754,0.1322354068884434,-0.005944047037577137,0.990200648613184,-0.7666883269292172,0.2894820722741512,0.9852458612235109
1729576231.5379481,-2.225742224845724,0.6600198293779562,8.648652121966583,0.03776202037277243,0.12517211646900062,-0.004767732195426535,0.9914046801411369,-0.739265676476623,0.07194931867506515,1.2122293164072107
1729576231.5459352,-2.0568182951125125,0.8681484650095862,7.785942393785419,0.05501750773725827,0.1278251721623289,-0.007101907957803833,0.9902440921850585,-0.7062101738080473,-0.07772638625017787,1.3360743777350317
1729576231.553968,-2.1750122295089134,0.7935886480975486,7.355944337638438,0.053137392343585076,0.14226818242537714,-0.007648705297772748,0.9883712253559243,-0.6497675269211671,-0.16753180920532368,1.3209865016246976
1729576231.5619707,-2.026380297910426,0.6059189188389978,7.260751216840875,0.04121897789106724,0.13509979245330242,-0.005625161646896913,0.989958281695313,-0.6044083071295643,-0.246105086543209,1.230626974219249
1729576231.5699668,-1.245037439000162,0.5265964843600394,7.558456030397495,0.034651802080977886,0.08129450345507162,-0.00282807703831848,0.9960835598988669,-0.5414348100917918,-0.39286052732805565,1.0491299293988323
1729576231.577968,-1.361853449728222,0.3806013354402423,7.82710090095334,0.024198019392598847,0.08590265765827884,-0.002087006661448239,0.996007446592602,-0.4751294777511722,-0.5430645407724202,0.9351234217690381
1729576231.5859663,-1.630661793958027,0.3234106071723485,8.266972896529035,0.019452935658714695,0.09713046151954663,-0.0018988153194925024,0.9950797210473341,-0.41917005601124324,-0.6421264401297415,0.8215963706761861
1729576231.593967,-1.5685677856033318,0.3333889009245028,8.597694320192812,0.019295437673176288,0.09002262222781454,-0.0017444375591304118,0.9957512593563872,-0.360478689341026,-0.7403013753371792,0.5261616471997501
1729576231.6019692,-1.3498308947506708,0.4301161200957173,8.619435091871546,0.02484909595782661,0.07747389970798016,-0.0019315637683218903,0.9966827912407866,-0.30908764700333846,-0.8217679097191295,0.21778827418358276
1729576231.6099603,-0.9154828300632931,0.5298115604851648,8.023155232369021,0.032908735983322,0.056623319073435555,-0.0018674142673531127,0.9978513554618453,-0.22248762354919982,-0.8953378539130976,-0.17624956980397516
1729576231.6179528,-0.02543837479578837,0.47255236353719254,7.931143700944849,0.029751326271261834,0.0016001477262949583,-4.762766141722959e-05,0.9995560493759021,-0.12327601265443114,-0.9943938383580805,-0.5050470195337707
1729576231.6259758,0.35440171145065197,0.46022350064184675,8.303541198594253,0.027674095495580194,-0.02128503992752698,0.0005894036541095941,0.999390186122076,-0.06034352562587367,-1.0844771134503364,-0.7006227291258
1729576231.6339695,0.7003399050442193,0.4310389477972174,8.563132142252256,0.025122711222144777,-0.04072640839798396,0.0010243317602188155,0.9988539231460697,-0.03833456568283436,-1.1661969325007222,-0.8149883244507834
1729576231.6422946,0.9423793251066097,0.7099303816177835,8.471805097118931,0.04172353777115646,-0.055122739757011506,0.0023054377242383633,0.9976047889392068,-0.03449437106917547,-1.1973498413495482,-0.8721140499862985
1729576231.6499362,0.18786199325732517,-0.41057583108792367,9.705328783369016,-0.021136875922221694,-0.00966612625943775,-0.00020436692278117018,0.9997298418640639,-0.06028579835747422,-1.1568706681156216,-0.872334280390645
1729576231.658324,1.0378367174387702,-1.0326013238480667,12.52480713696477,-0.04108133991354613,-0.04115118819528277,-0.0016934136038613589,0.9983065839567474,0.002992006640022374,-1.2249579075125263,-0.8098899795983343
1729576231.6659653,1.6866852482366996,-0.14215698327368373,12.432574492139796,-0.0057033257697521374,-0.06736516227782371,-0.0003850865394212981,0.997712011902635,0.15887483666350308,-1.3432858423367589,-0.6881367669534655
1729576231.673948,2.189718945572879,-1.0108925517806164,14.035937815401066,-0.03582970671060101,-0.07705709705247679,-0.0027709673523735453,0.9963788223616605,0.39032811459128974,-1.0605341621563502,-0.4128820601720793
1729576231.6819284,0.627174331210915,-1.1928755176406354,14.047936590607826,-0.042332171580449496,-0.02220618479032179,-0.0009411123377191838,0.9988563394772589,0.518983519872873,-0.5520338651243278,-0.15322604245867655
1729576231.6899254,0.5690378323691272,-1.8972638298714906,13.042149133319773,-0.0721489385759791,-0.021516789891145728,-0.0015568341265658646,0.9971605360635981,0.5770207102760314,0.04338693501199109,0.11026715371925908
1729576231.6981976,0.44437337080819506,-1.7790466621807068,11.03280144410319,-0.07983573355225065,-0.01980668650692064,-0.0015866601712848894,0.9966099705136867,0.6671827325079907,0.3601988592548895,0.3079522471419894
1729576231.7059717,1.035162755395073,-1.254415146966627,9.326325843268554,-0.06669606098569303,-0.05463159394575345,-0.003657354539941056,0.9962698671292373,0.7685315426694517,0.5426235926943119,0.4695579994032928
1729576231.713966,0.4769667132956377,-0.8366855664514606,8.837783973978711,-0.047159857233159595,-0.026805492302565324,-0.001266008247822904,0.9985268202062885,0.9140531509972727,0.7180603922845803,0.6474025624378608
1729576231.7219596,0.174849650780117,-0.637044313503689,9.255018484973164,-0.03435360838216741,-0.009417091787825797,-0.0003237165397326538,0.999365320181257,1.0030688762398134,0.8484381856650012,0.7413385984147407
1729576231.729967,-0.5168643806745079,-0.6360119640787757,9.36936853727296,-0.033869233497457144,0.027472354844643915,0.0009313540771008451,0.9990481856853392,1.005821194071356,0.9602943765487542,0.681061143160272
1729576231.737964,-1.3444137455922047,-0.9370619636035155,8.557151777881355,-0.05433871603806906,0.07726995414377062,0.004217647701925158,0.99551939688477,0.9427676954280527,1.0691257171022852,0.49760590874172783
1729576231.745935,-2.305657906779151,-1.2017284415898435,8.438768198076467,-0.07002703015972282,0.13137293597155678,0.009303739086557844,0.9888128271721761,0.9019557658118366,1.179973358010841,0.33559858059223346
1729576231.7539253,-2.3571165592530376,-1.3873433869753906,8.32105111782049,-0.08171315965313754,0.13534913664357878,0.011201400791696065,0.987359154193469,0.9336596961550951,1.2801114574114751,0.2043389787855743
1729576231.7619324,-2.746164319096745,-1.7180212262770311,8.30476924735245,-0.10052139686740201,0.15513201306537247,0.01586961306845517,0.9826381137912211,0.9892913996467849,1.3061391121348929,0.11196113573479378
1729576231.7699316,-3.3042467201201564,-2.1644672218502032,8.974235136057954,-0.11624276350273233,0.16982139863369786,0.020176584201702447,0.9783870491524783,1.0703477086255464,1.2229956107097524,-0.02094116128176428
1729576231.7779229,-3.7698195713787337,-2.3913939708054346,9.990985075775395,-0.11531151730558127,0.1737414059967874,0.020489197869186637,0.9778023167233862,1.1360090964712846,1.0368886901868177,-0.1756039903090167
1729576231.7859244,-3.954592316557709,-2.142083552893417,10.569670997857814,-0.09820714684430243,0.17395800358544913,0.01743811049559707,0.9796886656482302,1.171149028564107,0.8588168882849803,-0.30117982245794456
1729576231.7939641,-3.8609911418877503,-1.8256214464333158,9.805015300130703,-0.09028128091703111,0.18285455497142564,0.016865199685256724,0.9788406750241626,1.1500896717350595,0.728560853763466,-0.4642174744084798
1729576231.801938,-3.42750425544515,-1.785142366151005,8.630355585107718,-0.09998523127134751,0.18343804337322037,0.018758407428599563,0.977753322633967,1.1042502328435924,0.6806312274143617,-0.6190825338147132
1729576231.8099582,-3.394621861128418,-1.4328492905402124,8.494422070547055,-0.08192717937488804,0.18593882440648796,0.015559951450383,0.9790161279411437,1.046096885083446,0.6425082702527344,-0.7924569910747772
1729576231.8179393,-3.88485737815166,-0.6169375259842838,10.455594818255966,-0.028980955341245486,0.17658258582625588,0.005201561530653451,0.9838453325437208,1.0810180465071313,0.5408818345852822,-0.8551897294689985
1729576231.825946,-3.697045894176152,-0.03473486300267959,11.838199809654752,-0.0014495847141212002,0.15077247050648365,0.00022108504458511738,0.9885674038541485,1.137303018462691,0.3956193410153286,-0.8383410446383912
1729576231.8339367,-3.307589291876784,-0.0055180271766077545,11.435946050343631,-0.0002387716001600931,0.14030781615628,3.3836233095834416e-05,0.9901079024877479,1.1361674165961404,0.1922484580942218,-0.7643783245207221
1729576231.8419678,-3.40192095793857,-0.16803189052471462,10.730358092852663,-0.007733098032507813,0.1528821523901115,0.0011963535573220193,0.9882134462825085,1.0844032481007662,0.08299663018541867,-0.7178722421428105
1729576231.8499508,-3.314628437800251,-0.011994252723031904,9.950029850828786,-0.0005946205365670527,0.16009066526486276,9.643702950144107e-05,0.9871021304917594,0.9256377285649321,0.010208802395282261,-0.6776235809336646
1729576231.8579564,-2.9098264413422603,0.07492456530954024,9.28694489047774,0.003985416490952223,0.15122952727841785,-0.0006097303725952953,0.9884904525403433,0.7073539890809045,-0.1484002108735481,-0.5381123775519665
1729576231.8659363,-2.386344808897153,0.004971571461114766,8.894600578085472,0.0002769748764685565,0.13068442707941577,-3.6509408568755995e-05,0.991423977151504,0.5346661193672089,-0.30954757836146124,-0.38970076618071886
1729576231.8739252,-1.7612490337757916,-0.05806919945731551,8.531822462329798,-0.0033847018782294726,0.10160813117507257,0.00034570443672140243,0.9948186829572248,0.36422005788945255,-0.5007391924987801,-0.189123003254918
1729576231.8819273,-1.4848326771014124,-0.11600495595368616,8.153983501811942,-0.007082855730435709,0.0899298250360215,0.0006395676774394328,0.9959227132046333,0.23130273657753248,-0.6388671143615832,-0.009605426956215066
1729576231.8899274,-1.4231306353135815,-0.1232330907597117,8.612979480969976,-0.0071284370382676855,0.08177397022046412,0.0005848944789034102,0.9966252360231617,0.07620520291160084,-0.7540963121503794,0.18579727148418518
1729576231.898014,-1.2163605125358052,-0.13140069429957701,8.909206622908156,-0.007356185650036018,0.06778362769297985,0.000499792065262048,0.9976728003495701,-0.07389578552387037,-0.8662285270313224,0.36944654013650224
1729576231.9059534,-1.1555053626972644,-0.17604500398208994,8.889181850942158,-0.009879250310856139,0.06457196041902183,0.000639288114320325,0.9978639454613272,-0.17928122079778624,-0.9505354584183694,0.5153940664907031
1729576231.9139562,-0.9698335093664056,-0.3053034208462852,8.308783513641465,-0.01833084615081512,0.0580178110662179,0.0010654902718383063,0.9981466717917565,-0.2544318036830726,-0.9836663247306543,0.6297810561753316
1729576231.921938,-0.6613876007370307,-0.5119059404472243,8.034764762725896,-0.031779545086099016,0.040950365061843845,0.001303136939284713,0.9986548102069803,-0.2922854223693899,-0.985240171875158,0.6916022090027163
1729576231.9299412,-0.11934458803010907,-0.10124222149489708,7.812653252166787,-0.00647877061034763,0.0076364341956759365,4.9477186581093065e-05,0.999949852720706,-0.270725827189129,-0.9827789596701639,0.7457225031576283
1729576231.937939,-0.16593829822822168,0.31873563023782736,9.046475493780541,0.01760760079062805,0.009163170635894688,-0.00016137324559423142,0.999802971918453,-0.2190522744879276,-0.9979041447441866,0.7862827908183542
