Time,Accel_x,Accel_y,Accel_z,Orientation_x,Orientation_y,Orientation_z,Orientation_w,Gyro_x,Gyro_y,Gyro_z
1729841064.1054065,-1.0438043704896622,-0.037740732322935934,9.77720397956579,-0.0019271881846390478,0.053152518903449845,0.00010258010436532401,0.9985845408162703,0.02756343460789326,0.009150755183694882,-0.010877975991009814
1729841064.113387,-1.0366487868445786,-0.004927347108605307,9.773420076948458,-0.00025171299315731845,0.052811942330984255,1.331202976403236e-05,0.9986044438167636,0.026754622239824714,0.011024423909223341,-0.0120607563936123
1729841064.1216273,-1.0582128145872158,0.046842986266086815,9.813527104762825,0.0023830536672405926,0.05368192367553274,-0.00012811199691347542,0.9985552341823809,0.023289504388749365,0.024493636926939334,-0.00723645383616738
1729841064.129374,-1.0905442646800638,0.0829330097772302,9.827775094644803,0.004212506487935589,0.05522615136800303,-0.00023299818289701713,0.998464958176307,0.013973702633249619,0.032575164737568926,0.0007664084358439517
1729841064.1375482,-1.0852828576361633,0.10841774654016623,9.774074645409929,0.005537118314303281,0.05525956564392675,-0.0003064517236934847,0.9984566223992702,0.008384221579949771,0.03444425099371247,0.00812226616782294
1729841064.1453578,-1.1098987526676354,0.12203264743581849,9.769627115126816,0.006234758987290382,0.05652541005671522,-0.000352993582218676,0.9983816310378619,0.0024763925791976725,0.035140012685936556,0.016366991360168618
1729841064.1533816,-1.1265836510146439,0.13020158797320983,9.800716840365153,0.006630704897850794,0.057185916160216545,-0.00037981287116403386,0.9983414548578343,-0.0010683048212535864,0.0368345398856571,0.02216520659850009
1729841064.1614037,-1.1327638673665987,0.13222991030345715,9.81362459152378,0.006725035436514955,0.057421472829238485,-0.00038680845393740756,0.9983273004058932,-0.002343743138600278,0.0361484959596413,0.021812925188340687
1729841064.1695077,-1.1347960560156625,0.12794023988324615,9.77133042752169,0.006534920558811408,0.05777033222276161,-0.0003781642193607782,0.9983084395716512,-0.0014062458831601667,0.03318272923525963,0.015216205420314571
1729841064.1775212,-1.1525353606601787,0.09950905970143206,9.744996248456372,0.005096252103440546,0.05882351335338136,-0.0003003033796792221,0.9982553442427157,-0.0008437475298961,0.031828959262092664,0.009129723252188743
1729841064.1856344,-1.1495319939839979,0.08221093142632799,9.773009631398041,0.004198412397093479,0.05850657143570951,-0.00024605838687176006,0.9982781645851282,0.005027722281068752,0.031016697278192486,0.002072313459616993
1729841064.1933823,-1.1714325704138362,0.08021176027181241,9.774255350372028,0.004095523614395023,0.05960208784370597,-0.00024453855698231084,0.998213783721648,0.010253364413495789,0.02925226990346628,-0.003864892661774184
1729841064.2013788,-1.175714370129161,0.0754209550888687,9.78146712623884,0.00384804126805226,0.05977427666023872,-0.00023042762174807095,0.9982044757118933,0.014240129815876072,0.02563947310985837,-0.008278596457532953
1729841064.209386,-1.1722979458079654,0.06703980816074309,9.796568099229633,0.0034152275732259106,0.05951199791100455,-0.00020360908868579723,0.9982217273074167,0.01578080893438018,0.021343344726383464,-0.007521298243291961
1729841064.217391,-1.1613895450726697,0.07398212830464898,9.76995507828778,0.0037792347072737476,0.059122572142265524,-0.00022383122457062977,0.9982435518188398,0.016279526344020613,0.01791428757337446,-0.004512778945975177
1729841064.2253847,-1.1651395717701645,0.0628246297659925,9.755423786718762,0.0032140198353406927,0.05939946683543288,-0.0001912497487256386,0.9982291003771118,0.01572737666688081,0.015856853281569057,-0.002707667367585106
1729841064.2334146,-1.1606858231402237,0.054693609646704874,9.77304123003907,0.002793071985122197,0.05906961122034296,-0.0001652749164845366,0.9982499448852303,0.015396086860596927,0.015048082767947845,0.0017809200711451892
1729841064.2415261,-1.1347898178587434,0.061307165543882304,9.801089368150395,0.003122121064486943,0.05760108042858135,-0.00018013751491154575,0.9983347812452467,0.016900073222674727,0.014137130398313087,0.009582353271927746
1729841064.2493827,-1.1328991641527462,0.08634427369156375,9.796609856241798,0.004399123245400403,0.05753072209402032,-0.0002535070766426591,0.9983340119740359,0.020782295470155625,0.012313488792146136,0.015965973438245407
1729841064.2573993,-1.1298494106010226,0.09705697559189137,9.782190560961876,0.004952192132343384,0.05746037960120541,-0.00028502928118973275,0.9983354643242314,0.02438869900303026,0.011644993889907997,0.020221835599498035
1729841064.2653887,-1.1318502811262385,0.09749909258169731,9.759413193999,0.004986288408436055,0.057694084231487204,-0.0002881629341192235,0.9983218151151068,0.02655254112275504,0.00996682676417902,0.02192397277332555
1729841064.2733889,-1.110066467503868,0.11356609373261213,9.762266765276353,0.005806597160383991,0.05657681176836877,-0.00032905138685141783,0.9983813096831934,0.027850846394589908,0.00810854636581757,0.021668184893235964
1729841064.2813954,-1.0996298011566177,0.11147470628839541,9.73740326961503,0.005714357397263948,0.05619182764424996,-0.0003216136143361136,0.9984035863268012,0.02735275937330473,0.004865127819490542,0.018109191673485958
1729841064.2894244,-1.0983956248345956,0.11452943681014661,9.751455012306128,0.005862521315459651,0.05604899576221977,-0.00032911147163716464,0.9984107534494566,0.02449976679176144,0.002919076691694325,0.013419655372863765
1729841064.297383,-1.1108232281722417,0.11731995578725984,9.78430691485438,0.005985030851410306,0.05648840440034878,-0.0003386316455674242,0.9983852587566681,0.021085210996987337,0.001751446015016595,0.008051793223718259
1729841064.3058302,-1.0945771937392825,0.12282498982977778,9.770020392809112,0.006275268240711662,0.055750125450856586,-0.0003503988802264653,0.9984249705117283,0.014779576905502561,0.0027536278548580834,0.004831075934230955
1729841064.3134172,-1.095124640218179,0.11631178344864791,9.754744714933514,0.005951802621519451,0.05586482990878012,-0.0003330224348443789,0.9984205456223723,0.008867746143301537,0.004632007143149071,0.0011958853146904467
1729841064.321479,-1.0762994948242668,0.09851748999106373,9.761620459331201,0.00503806214657263,0.05487630339027149,-0.0002768909871534352,0.9984804117194325,0.001915127194284669,0.0061847247775856954,-0.0009852290570338583
1729841064.3293636,-1.0918194661816694,0.08305251059620075,9.78944850240536,0.004235023173162906,0.05550458492165332,-0.00023542825300416347,0.998449422957886,-0.002682134236587483,0.006264975235323607,-0.000591137434220315
1729841064.3375404,-1.0862873987031423,0.07113990113311108,9.791301277956888,0.0036269741471326553,0.055216229314662135,-0.00020057515494654933,0.9984678126251311,-0.005866181156572807,0.003758985141194164,-0.000354682460532189
1729841064.3453536,-1.083686418714073,0.0709355202697104,9.795046565113976,0.0036152032774877103,0.05506436371686893,-0.00019937266381698206,0.9984762422833403,-0.00820229937002603,0.0022553910847164984,-0.0002128094763193134
1729841064.3534555,-1.100082343171803,0.07631955557002935,9.77861896445901,0.0038959133388786027,0.0559824589211813,-0.0002184470531515512,0.9984241275296182,-0.009603970298097966,0.00433306508106412,-0.00012768568579158804
1729841064.3613458,-1.0888509232370662,0.06949432977756448,9.781691093030874,0.003546523413805575,0.05539929536685748,-0.00019677833783672668,0.9984579618205349,-0.010444972854941127,0.006005359540334725,-7.661141147495281e-05
1729841064.3695905,-1.0531422311883334,0.06803281612825744,9.786407412166179,0.0034706276265467815,0.05357283702111617,-0.00018619988784363703,0.9985578957711909,-0.008821124081736867,0.007860116338821152,-4.596684688497169e-05
1729841064.3774214,-1.036505419279406,0.07673271457929821,9.786603581821193,0.003914529189673074,0.05273215498333228,-0.00020671074863051704,0.9986009981783032,-0.007421124756352279,0.010250040602299101,0.0021008701991791752
1729841064.385641,-1.0317905757863939,0.0611230992065633,9.771637813155216,0.0031230315736905127,0.05257473357048221,-0.00016442075324282532,0.9986120953751754,-0.009135265529893716,0.010832615037461808,0.003814662488279695
1729841064.3934197,-1.0452422409796487,0.06061587612550048,9.781333124904847,0.0030939392949585315,0.05320206288396933,-0.00016483819447213205,0.9985789607601889,-0.010163749994018577,0.009053709391249274,0.004842937861740006
1729841064.4013946,-1.035835567976461,0.0615086431069409,9.800079000919471,0.003133600624248173,0.05262722073265396,-0.00016514235563873912,0.9986092974297238,-0.008226700303721305,0.005432225634749564,0.0029057627170440037
1729841064.4093845,-1.0452750346335329,0.06012894196768016,9.785469148598558,0.0030677923779610723,0.053181442121918894,-0.00016338160177797471,0.998580140084015,-0.004936020182232783,0.004962095626697865,0.0017434576302264022
1729841064.4173932,-1.0159833703894947,0.05403387763177996,9.786519464012649,0.0027567562175089,0.05169797198660878,-0.00014271008698263748,0.9986589506039888,-0.0029616121093396694,0.004680017621866845,0.0010460745781358412
1729841064.4253929,-0.9974506911790092,0.05971422550484923,9.77805168695251,0.0030493380798125276,0.050805692690339535,-0.00015512479225141784,0.9987038895808049,-0.0017769672656038015,0.007916291310664486,0.0006276447468815047
1729841064.4334207,-1.0026116549417805,0.0815577870118939,9.787815071009398,0.004160540120768015,0.05101496135705553,-0.00021252837565273938,0.9986892001295153,-0.001066180359362281,0.011560815769791198,0.0003765868481289028
1729841064.4413533,-1.0265377876428028,0.0649758233301832,9.77715310998845,0.0033180576631847997,0.05227984758033908,-0.00017370605663959274,0.9986269462900178,-0.0006397082156173686,0.012044770199419099,0.00022595210887734168
1729841064.4493458,-1.0291618791286503,0.0444921578164693,9.760221446071196,0.0022759717036508107,0.05250332560331215,-0.00011966143776270315,0.9986181484604298,-0.0003838249293704211,0.011058072672809744,0.000135571265326405
1729841064.4573536,-1.0247508298697683,0.04872194996331908,9.78406011129506,0.002486315549871549,0.052153668157407025,-0.00012984759241399502,0.9986359678442972,-0.00023029495762225266,0.01302019452561632,8.134275919584299e-05
1729841064.4655879,-1.0345540489472516,0.043598379938928955,9.810813159062192,0.0022187506923407752,0.05250625597622359,-0.0001166595008200137,0.9986181235183375,-0.0001381769745733516,0.01802867819045855,4.8805655517505793e-05
1729841064.4733849,-1.0330139552472573,0.04339727991648237,9.818964122243955,0.0022066979841557635,0.05238557854063905,-0.00011575837758966654,0.9986244881059984,-0.0022113564920541694,0.019756698204977795,2.9283393310503473e-05
1729841064.4813862,-1.016527588236245,0.055008208037780046,9.789857036578795,0.002805506178659627,0.05170791448706027,-0.00014526177133732002,0.9986582997269376,-0.0030295741410806282,0.019516440029303243,0.0021460203432964605
1729841064.489387,-0.9932282387327628,0.05694694142423053,9.804953927757824,0.0029001040614159874,0.050454631310883055,-0.00014651090269078538,0.9987221325825674,-0.0018177444846483768,0.022777805615594768,0.0046931326976741294
1729841064.4973757,-1.0120491917748138,0.04709685381938206,9.831968574916413,0.002391791242141364,0.051263433286366795,-0.00012277320975189084,0.9986822941602035,-0.001090646690789026,0.02473462496736968,0.005795710048838699
1729841064.5056202,-1.0355521920668413,0.04310216258459799,9.808912455985004,0.0021939160037263653,0.05256660958896002,-0.00011548667469434496,0.9986150033680239,-0.0006543880144734156,0.024631646394048533,0.006882946520999472
1729841064.5133874,-1.0616250005428391,0.07733663324411816,9.795797045124205,0.003941367234882864,0.053948819532771454,-0.00021294388063622093,0.9985359007818617,-0.0003926328086840494,0.024144169188593814,0.007960978465757967
1729841064.5213895,-1.0482988455405473,0.08877934933123652,9.78170287429132,0.00453116767470039,0.05335286166923497,-0.00024209807313688343,0.9985654120085125,0.00231856068356176,0.022574612680934886,0.009033487694075096
1729841064.5293784,-1.030247505566516,0.1133620712686638,9.819933304164636,0.005763552640075842,0.05223763332082141,-0.00030149100845561086,0.9986180051597189,0.006499417147681435,0.02588977939095985,0.00882561310814131
1729841064.5373728,-1.0507807433301437,0.11087345247799515,9.85412430989136,0.005617219340302718,0.053086939215033394,-0.00029862680839111996,0.9985740506110158,0.009433621087615272,0.029581639662822953,0.008275198295119007
1729841064.5453804,-1.0755505346211331,0.1172811466821096,9.798024460202393,0.0059753179242707935,0.0546351318904968,-0.00032695649294297793,0.9984884531322652,0.008640003082803384,0.030093995580092688,0.008796329530229689
1729841064.5534647,-1.06670981296018,0.11035185573387513,9.748323399265969,0.005651031594226884,0.054464358588367005,-0.00030824227419240914,0.9984996767511641,0.00773814221845422,0.028698648884606402,0.00953469833275813
1729841064.5613468,-1.0750523294264984,0.11864412979774694,9.779794325204112,0.006055992888970983,0.05471080313026945,-0.00033183135008901717,0.9984838220316465,0.0063456455769206575,0.029138511051700726,0.005720818999654878
1729841064.5697708,-1.0166114953121492,0.75568873251732,10.051983416411531,0.037460394033874286,0.0501989905566955,-0.001884176969845735,0.9980346838176827,-0.008963314497708553,0.027273978044647162,-0.0003987191533653578
1729841064.5773735,-1.0026159694529144,1.161378670418595,10.980244301555901,0.05260849548895761,0.04519974232740963,-0.0023836375878663594,0.99758891722381,-0.06795442773354378,0.02019559737994658,-0.015138383643190324
1729841064.585392,-0.9358001334295611,0.9798218384816257,11.433053060425728,0.042696152630397666,0.04063732780281556,-0.0017380821636282318,0.9982597984542906,-0.3681283139044286,0.08789018936820957,-0.05207772639357938
1729841064.5935898,-0.8243634223428928,0.5675423889776473,11.15933917756403,0.025386496811579513,0.0368014455215886,-0.0009351953000962122,0.9989996520504438,-0.7121233192698416,0.2421661909715298,-0.08403220345743954
1729841064.6013944,-1.1094490397338608,0.7619049255740884,11.014503881294276,0.034479551217724405,0.05002418323838585,-0.0017280061799558389,0.9981511687283638,-1.114763440823086,0.5241638692841261,-0.09085987791335673
1729841064.6095366,-1.0370101013305508,1.0741287231667187,10.992246148356644,0.04862911999554393,0.04673666244015801,-0.0022779559283394525,0.9977202533722578,-1.4061532509460903,0.6737807334444303,-0.10347028381614767
1729841064.6173851,-1.3344810546948147,1.2578716992320624,10.45599786601594,0.05970371610602453,0.06286694623176327,-0.003767603999588351,0.9962273929754824,-1.5920550786179057,0.7184277054256375,-0.11231359754220833
1729841064.6253881,-1.0041957739301701,1.57928607129705,10.285562441533392,0.07601181943191569,0.04794341614476799,-0.0036590969482302197,0.9959469078040972,-1.6972108242990647,0.707329473144241,-0.04908348588245763
1729841064.6333659,-0.6705127915065395,1.3890624289110425,9.336472059646596,0.07373200552543901,0.03535371495152103,-0.0026154678403330646,0.9966478141892949,-1.7313573475283417,0.7164210660494983,0.0361061779356783
1729841064.6413453,-1.1773107522965018,1.073815304026313,9.488869631051628,0.05620320766817471,0.061197754593532674,-0.003451465775784205,0.9965360613969353,-1.6288208337033807,0.7274099925916591,0.1187210407747502
1729841064.6493483,-1.443082302207979,0.869583558636491,9.785730676336055,0.044177787177586095,0.07278698372475484,-0.003227304392232148,0.9963633687700005,-1.5030197261276375,0.700799523722917,0.1495595957738639
1729841064.6573477,-1.4780467458267406,0.46093741301392577,8.82396789310632,0.025998628305044597,0.08274754126787234,-0.00215946587972291,0.9962290160638226,-1.3785847045140578,0.5975667798019554,0.11400009096765415
1729841064.6653721,-1.5028561346542473,0.1609225076228086,7.484835834740744,0.01069320009395715,0.09888607890655587,-0.0010626787308742225,0.9950407376505507,-1.2736996971821057,0.48284156582808646,0.07010281482644062
1729841064.673389,-1.7679358414370796,0.2449940075033726,7.3210872833151495,0.016603105458968544,0.11811765529833383,-0.0019752253086220044,0.9928588292808412,-1.1669226164523454,0.3888907238175052,0.039507548527092186
1729841064.6813958,-1.385415249979435,-0.028977417519460806,8.168787228387528,-0.0017671508379789157,0.08390062714689954,0.0001487899127788478,0.9964725484446797,-0.9832374607436583,0.23801702496658547,-0.012479126108017376
1729841064.6893995,-1.1233417525267235,-0.2881706582753484,9.101899149776656,-0.015793312054308874,0.06132207642548747,0.0009704267220198859,0.9979926014300903,-0.8164095891439958,0.10577517963275453,-0.038562850151538736
1729841064.6976626,-1.4535571120629092,-0.5109636693792715,10.023530173459745,-0.02539493466632822,0.07182795542884098,0.0018293860542046177,0.9970920195542987,-0.592862748360209,-0.027206875311760026,-0.03122582125870184
1729841064.7053907,-1.6095483785658704,-0.4193450998209222,9.648995064525064,-0.02163763351027738,0.08245428963790888,0.0017906366308825961,0.9963583173521656,-0.3880700936872398,-0.17680927835824195,-0.08727159265060819
1729841064.713378,-1.410332275430538,-0.4984492510546627,8.917660927875195,-0.027825622012400145,0.07819498146224577,0.0021833625025416124,0.9965472956974619,-0.2554036294698316,-0.28742953319777065,-0.15367719021832843
1729841064.72145,-1.002540733666526,-0.5200543638652195,7.831468316979023,-0.03307855754827939,0.06344496585561119,0.002104065368083667,0.9974347689182648,-0.17069547020184223,-0.3946679320018429,-0.22161609281545466
1729841064.729425,-0.8007220183249155,-0.4947102049890536,7.091646129347569,-0.03475938831339752,0.056018684765583096,0.0019514243038297246,0.997822571314359,-0.10709987279718768,-0.48029547435738784,-0.25982529400495824
1729841064.7375588,-0.5869751848719025,-0.1780737206496822,6.343210365596823,-0.014016894929566778,0.04609764938159561,0.000646897354993089,0.9988383827736282,-0.04638094109690727,-0.575092386039842,-0.2823251246571983
1729841064.7453725,-0.6816272593606414,-0.24834155050504367,6.749836580686218,-0.01836260640351473,0.05025805167006463,0.0009241931739047397,0.9985670176785212,-0.027828564658144362,-0.6204769013898397,-0.31838659630603
1729841064.753373,-1.0793528204601348,-1.3444298192190418,9.053543997972277,-0.07351148445552827,0.0584988338329724,0.00431948081754126,0.9955678229928857,-0.03500181143775398,-0.6030101541463249,-0.33704364886509486
1729841064.7613463,-2.310624165420612,-3.4965434567169713,13.27720697861735,-0.12793162672502487,0.08257903068629609,0.010689739557785863,0.9882813020808333,-0.03419747876797537,-0.4473697948416632,-0.25501175694034883
1729841064.7694952,-2.6287257407074454,-3.496379263727449,15.811404767004396,-0.10823362210625977,0.07990276503012587,0.008727844292021447,0.9908707564159486,0.004171536304012617,-0.3544112693203283,-0.1504529137954371
1729841064.777378,-1.9241552649811076,-4.3967399923185,13.802151932468261,-0.15323680968488657,0.06519921405010139,0.010132940704531093,0.9859842119210253,0.17320463642868225,-0.334394119170338,-0.02216133844333719
1729841064.7853944,-1.4252773667523362,-3.7566150110161,11.016905976375488,-0.16325682541482386,0.060063591449461974,0.009958118520827073,0.9847032089991334,0.5270587029504689,-0.176797828060329,0.03608324406359336
1729841064.7933815,-1.0840520987623392,-3.0689552517268472,9.288776403208105,-0.15862347075163055,0.05445340774580933,0.00876203156548008,0.9857974678981585,0.8274889855861813,-0.07500332234946909,0.061239122154124956
1729841064.8013802,-1.0394890290327943,-2.7540428238876706,7.866192771856504,-0.1672565249076653,0.06112462263866003,0.010390129589747733,0.9839619304577801,1.0609584128503626,0.015445995317927029,0.10357681294201393
1729841064.8093805,-0.9208138434450671,-2.767165987301352,7.575519403348278,-0.17392321139727301,0.05594100828160419,0.009896500565294793,0.9831192091533244,1.1759243555826115,0.08461473806953582,0.12685097710743715
1729841064.8174007,-0.6812963553834465,-2.734817297458936,7.600073540202326,-0.1716916734581408,0.04143658980565327,0.007228143560422926,0.98425237222528,1.189989903293359,0.12271046322880483,0.1208080427179756
1729841064.825525,-0.8143555744605366,-2.5119009424402057,8.167387765478816,-0.1484582577822346,0.04696257351995321,0.007058249680449969,0.9877777298036715,1.12776468171711,0.12811460580442294,0.14740627644810292
1729841064.8333695,-0.936807895457572,-1.8701015371438108,8.47665167906268,-0.10819378160029412,0.05341032167605953,0.005821294223325596,0.9926769644224919,1.0359412209042207,0.1219919099976291,0.17528453840711622
1729841064.8413467,-0.9054132553409495,-1.7491023370812082,8.71679782506456,-0.0987203517380215,0.05047482798995874,0.00501387028670873,0.9938216364101022,0.9280615767951952,0.09149981864144482,0.2005252968117648
1729841064.8493474,-0.9967097476381633,-1.661658766750678,8.926247217987957,-0.09175110193967603,0.054410072178499705,0.005020895136888924,0.9942816854143548,0.8888751940175017,0.06937335327457597,0.21779820216186413
1729841064.8573492,-1.3505234303700073,-1.496665146525016,8.66621096629082,-0.08514514796793816,0.07583541909870634,0.006499543716135604,0.9934571198190305,0.9479472362745197,0.05311764362422044,0.1740993075662457
1729841064.8653722,-1.567360623163411,-1.7340543076415722,9.370186451600663,-0.09105191384709661,0.08107863436141835,0.00743805948698909,0.9925122061244065,0.9923299529194333,0.05187801906324775,0.022301402677575313
1729841064.8733766,-1.6512548467984371,-1.8944443167626779,9.873256338733835,-0.09431807343673668,0.08094298416579906,0.007694276472100532,0.9922162730207,1.0044861208166724,0.05241131451105023,-0.12879963892177337
1729841064.881376,-1.778205834104453,-2.334725100799794,10.105427002703191,-0.1128578927277381,0.08425146746830059,0.009604622519425645,0.9899861299557442,0.9887925582360662,0.047623011042187344,-0.3135377674644916
1729841064.8893762,-1.8945990143786873,-2.213187683770892,10.162608284141447,-0.10655757378863812,0.08945335953271627,0.009626001020953878,0.9902277112063337,0.9823562511179365,0.05241245006718617,-0.46694965073632566
1729841064.897377,-1.3682787091643216,-2.3746575760828477,10.412634622584479,-0.11163939449065517,0.06326832928747535,0.007122302280239683,0.9917071326340051,0.9976505196128501,0.08593579790745175,-0.5781528334652175
1729841064.905381,-1.1911108021587493,-2.3238172690383805,10.252601310660063,-0.11103054264886526,0.05603107165726698,0.0062699630469471735,0.9922164205310385,0.9995903496649439,0.09583324513652233,-0.5810212338832479
1729841064.9133549,-1.2785009722620464,-1.764194517917169,9.224518617206584,-0.09411922049267976,0.0672965535149442,0.006376857819666889,0.9932633497231278,0.9867064756679531,0.08942670169156577,-0.5750798530277496
1729841064.9213476,-1.5804108873123062,-1.6891494280354575,8.27702975186692,-0.10003931359701806,0.09187375182920579,0.009277365884155396,0.9906892953606163,0.9423668059840239,0.14347662398342814,-0.6426052647786098
1729841064.9293506,-1.767781760658868,-1.8524179185400247,8.447626485153354,-0.10715392937131257,0.10005861521824097,0.010839440100803604,0.9891353878409148,0.9153373141122043,0.2035764313535776,-0.7201555471763227
1729841064.9373436,-1.7693527478015707,-1.81821908120214,10.038220277078342,-0.08913048461068827,0.08541621325281527,0.007672102560150521,0.9923209995101988,0.9638245083313414,0.17067452581881817,-0.7964840209172926
1729841064.9453716,-1.8069266254875829,-1.736408216299409,11.181239643053647,-0.07670585989766296,0.07885894763552903,0.006085996853416129,0.9939116852504941,1.0482565328528877,0.03088878516566959,-0.8222736722731592
1729841064.9533384,-1.9920372448237995,-1.9458954766546455,11.766973633244298,-0.08155983741949445,0.08237561455853268,0.006764299732389678,0.9932353675213846,1.0963616071970432,-0.08065251322125161,-0.8258281413657421
1729841064.9613378,-1.9134828449411547,-2.0737426143619277,10.772872694350875,-0.09457388660134883,0.0858439706637432,0.008185919155640112,0.9917759744021706,1.061796832645694,-0.16886179532650591,-0.8134873607315829
1729841064.9693756,-1.570666299982271,-1.8107136814101257,9.748089454012868,-0.09140536565320787,0.0781437904000096,0.007195164864879499,0.9927168965794276,0.9950834412769849,-0.21753046397503817,-0.775007517864359
1729841064.9773831,-1.3855665072842844,-1.5901682381429503,8.737697395552251,-0.08960814226908828,0.07699160500716636,0.006947901018642957,0.992972507307699,0.8490585811517136,-0.22927837264421425,-0.621232763275181
1729841064.9853878,-0.9623027351811174,-1.1695790922998326,8.490113569167288,-0.06828344765116164,0.05574763571564817,0.0038215452563951143,0.99609987836604,0.6992929161030943,-0.2542061004271252,-0.4165857342956978
1729841064.9933832,-0.622392632319608,-0.9181832854580244,8.433740037252326,-0.05415721359056788,0.03655463750860593,0.0019839407185619946,0.997861121936287,0.5966628152300617,-0.29725828115336583,-0.28656078586315337
1729841065.0013788,-0.5544372248995773,-0.5528253326029396,8.84260380506624,-0.031197642650168424,0.031228192957419926,0.0009751970141676205,0.9990248025191718,0.5159287019404508,-0.3818348180708706,-0.18470717336175296
1729841065.0093791,-0.6647381052034183,-0.47486845883910755,9.090795107746773,-0.026073391821227438,0.036426113130633216,0.0009507071134021255,0.9989957020313529,0.4606771929832917,-0.4564193836632473,-0.07251219848546893
1729841065.0173972,-0.6418543316279103,-0.36440857042065206,8.588965878124627,-0.021184152882114296,0.037245336308006805,0.0007897364495684536,0.9990812744248142,0.4143298957036732,-0.5543813807014273,0.1105924831579741
1729841065.0253437,-0.6412921766134649,-0.3424253680824693,7.901444192402119,-0.02163486071007576,0.04043362064389474,0.0008756973429637605,0.9989475903558929,0.36140580370964226,-0.6335917018745127,0.2715380995194837
1729841065.0333471,-0.4867682966907351,-0.4520579918455754,7.482706256652209,-0.03014911590003674,0.03240107682416812,0.0009778224366076688,0.9990196418961756,0.3117723659318184,-0.656002180952104,0.3838560016104846
1729841065.0413406,-0.023910392076941085,-0.4108167518944546,7.504163064294059,-0.027341849320531193,0.0015901590710651228,4.3494205435750816e-05,0.9996248760300617,0.27858678277342785,-0.5843104561062525,0.4767881465528071
1729841065.0493479,-0.012191453752024023,0.08989528211528036,8.067224690383076,0.005571375117804477,0.0007555570674561931,-4.209558380628355e-06,0.9999841943226373,0.28464252662757744,-0.5127741870807856,0.5474465856693717
1729841065.0573463,0.1037760847800356,0.9735500269351838,10.03072459328258,0.04835734178261078,-0.005142488882840917,0.0002489716682765167,0.9988168302130866,0.38703606719925854,-0.44941930271532793,0.5923957895080826
1729841065.0653753,0.8066229470105996,1.024184281297829,11.661807489123845,0.043758579755485326,-0.03435722428034224,0.001505757188569346,0.9984500490925033,0.3407726059923732,-0.47057729063927567,0.6432039552531829
1729841065.0733824,1.280045820208313,2.0632419933392443,12.098649390935243,0.08423617313455309,-0.0517511924723106,0.004380826142739496,0.995091397599058,0.20659201390273407,-0.5224355690481512,0.7094468198630537
1729841065.0813816,1.1884493036484252,3.0541865753980777,12.579345143594349,0.11868160508769383,-0.04543607903971703,0.005436586261865324,0.9918773527332513,0.013701482422974254,-0.47948046539908307,0.920745633398175
1729841065.089382,1.0104294283804613,2.6970581647212684,12.168176870092157,0.10875236730114635,-0.040195853111574864,0.004401118829382567,0.993246115598787,-0.17227169660611685,-0.4000704554654262,1.1284060331970336
1729841065.09738,0.44632498612983934,3.313329674223386,11.025326224594357,0.14542063880539066,-0.01916755179058879,0.00281784610798933,0.9891802174078791,-0.3741018970535222,-0.2992131918224781,1.2134130973603798
1729841065.105382,0.5783229470001693,3.1870139959402812,10.785416186416768,0.14311557907272965,-0.02542135444686962,0.003677271658777249,0.989372611020697,-0.5518167954964156,-0.23784745351378517,1.2043950371922412
1729841065.1133547,0.596948421520414,2.4717333255426848,10.730055624936,0.1129185394604872,-0.026903627172463657,0.0030586090407137855,0.993235240616145,-0.6937780096635002,-0.20485922108172772,1.1904703998621176
1729841065.12134,0.5485080848946703,2.4153421217904545,10.96044089083074,0.1082051135813161,-0.02427058913522826,0.0026425094073851047,0.9938287624344122,-0.7764005977949788,-0.1493083164596826,1.1046400262779534
1729841065.129349,0.5493714036711772,2.0482345284453665,11.030437303053132,0.0916416837439249,-0.02435900963594476,0.0022424104687036313,0.9954915429301368,-0.8246970804894799,-0.09852448116651222,0.9782203513101375
1729841065.1373425,0.8292927286773156,1.9445675932879232,11.13564207421469,0.08627334442795885,-0.03647044135699602,0.0031603364457241387,0.9955987290178662,-0.8277078763569966,0.011124171441327893,0.7780670483825347
1729841065.1453514,0.3831327978509206,1.2091179253575195,10.555682370993658,0.05698425123873501,-0.017992198231684003,0.0010271079895206468,0.9982124127472721,-0.780134306747911,0.20760021187487568,0.6154060604797699
1729841065.1533427,-0.14217925927772893,1.0012827864645115,9.941710744617678,0.05016604271303806,0.0071051525460943,-0.0003568957995297214,0.9987155538947006,-0.731582732093744,0.37146036277290373,0.47524046159190775
1729841065.1613464,-0.4518598297365592,1.4377825722693318,9.257293149651467,0.07694177910489579,0.024023995899530012,-0.001854486477759216,0.9967443860534638,-0.6752076233676739,0.5174537401954682,0.23661560994847305
1729841065.1693854,-0.440625375380998,1.5486083189963646,9.038178725484238,0.08471931004606979,0.02391854346182871,-0.0020342642781394967,0.9961156577189363,-0.6464908388695763,0.6114351175709373,0.017242177960708566
1729841065.1773877,-0.37043835877352066,1.7307437072181313,9.469108040954605,0.09025076807791049,0.019152408164167457,-0.0017359260784971906,0.9957333833328631,-0.6484168209365091,0.672506534672301,-0.19866851340143238
1729841065.185385,-0.5284814075980968,1.8907820153465038,9.759029671984871,0.09550690383091431,0.026432616461596857,-0.002536993253369317,0.9950745257380771,-0.6870331355853275,0.730859578067683,-0.3665270337502998
1729841065.1933792,-0.8167587310334675,1.912824168924699,10.262664219206549,0.09193288012589189,0.0388640503238061,-0.0035908382038345025,0.9950000186056184,-0.7442581292915812,0.7943926382228683,-0.4655393857137721
1729841065.201385,-1.1527702581513304,1.6780101690794285,10.56340842654346,0.07856810797828155,0.053489309420840396,-0.004221704447872526,0.995463773021374,-0.841595254611714,0.8789126910153409,-0.46237035785693686
1729841065.209396,-1.3098450235431418,1.4897165763011726,10.487435953142871,0.07035461818854485,0.06132367353732535,-0.004333358345729286,0.9956258618421274,-0.9110654714018065,0.9202595413386597,-0.41832562505809456
1729841065.2173789,-1.1388123388329163,1.6314834772748443,10.471061729356428,0.07709105412879012,0.05334011581363554,-0.004130270007352896,0.9955876366689004,-0.9301860282183744,0.8467332473349218,-0.3552894400930545
1729841065.2253845,-1.3716203805946718,1.6660259628297502,10.527556581070886,0.07822859899929359,0.06375141303092119,-0.0050128376116778455,0.9948823624400261,-0.9046233269611184,0.6910866748296267,-0.32938705083496733
1729841065.2333786,-1.720558430749381,1.1437465176392563,10.75634150723628,0.052771088246413765,0.07867752542817279,-0.004170693120151287,0.9954936788130229,-0.865872752826353,0.5649205965938732,-0.30916302660403266
1729841065.2413993,-2.082910746926191,1.0135352775269133,11.03630688188083,0.04556839432708494,0.09265660829329489,-0.004244941154546566,0.9946457936635678,-0.7808973494334992,0.48879525959095904,-0.2761697990538323
1729841065.2493854,-2.1116590458119644,0.841076988049351,10.616749019265216,0.03932115481781909,0.09763697125229018,-0.0038606734148985624,0.9944375112742159,-0.7030936335256789,0.44312005738921056,-0.24275178055692712
1729841065.2574282,-1.790367910397335,0.73233477071047,9.544760812926317,0.038108685755916735,0.09224589191380642,-0.0035330332022796996,0.9950004729503272,-0.592557894761682,0.35356418709470483,-0.16948971177603003
1729841065.2653787,-1.5228941373516822,0.7504076580805789,8.713862478966728,0.042773178781194285,0.08601091845195083,-0.0036960779130410606,0.9953687337324116,-0.4530177609318144,0.20915868182658867,-0.07232121282473783
1729841065.2736638,-1.4617692424207749,0.5898265516354567,8.257940268141756,0.035503057981311675,0.08721478501548555,-0.0031102263936798754,0.995551827199598,-0.34545503719202014,0.08122344270390189,-0.0097632128393422
1729841065.281354,-1.5062577417415275,0.4860558626218991,8.250622166256148,0.029293175932720034,0.08997332127891318,-0.002647492178382832,0.9955097699605874,-0.24473374772387085,-0.056411379558780686,0.006061394017331565
1729841065.289428,-1.4161138003183538,0.28971815624501446,7.929478425486111,0.018185245664367394,0.08817558915562972,-0.0016100353036489362,0.9959376336415374,-0.1587595703552594,-0.19305491072206826,-0.013816456109544357
1729841065.2973795,-1.1783921681304654,0.22626391010443053,7.5129343257994785,0.015005845786242832,0.07766862693899873,-0.0011691480054567057,0.9968656088333028,-0.04672707520648403,-0.4610675862789486,-0.08874529528205058
1729841065.3053615,-0.9648908196771073,0.24206089977359582,7.123186489034374,0.01694372347649302,0.06722031689804653,-0.0011417098463645855,0.9975936225385089,0.06646694852068061,-0.7985365671198199,-0.13285121866263028
1729841065.313377,-0.9119679427339987,0.36430599176845435,7.05525596202414,0.025737023059268466,0.06412401891201208,-0.0016543174381302664,0.9976086302134883,0.14843113478522643,-1.043161271709084,-0.1542064919534337
1729841065.3216465,-0.7056769155427429,0.4682988282153695,7.496929280339484,0.03115154882359722,0.046795487599569405,-0.0014600623723368164,0.9984175637297645,0.2039949974658844,-1.1993012758148067,-0.19468950992294778
1729841065.3293536,-0.17081787417916142,0.4660510852592998,7.320921325527909,0.031779597748987,0.011634604090095913,-0.00036995497996404944,0.9994271140447872,0.23903607532012727,-1.2900054478480065,-0.23685830328606158
1729841065.337586,0.2597519866741438,0.5860884636555799,7.626879818021824,0.03833205371599113,-0.016958848963777345,0.0006506394687053906,0.9991209274997797,0.2498441605575843,-1.1941593593718292,-0.3055799655730571
1729841065.3453608,-0.0009690167357480818,0.5685677486035042,8.950813164250594,0.0317127431003767,5.3994046455495157e-05,-1.7131610047577052e-06,0.9994970230104527,0.24398399991765957,-0.8190869204354472,-0.3876792088456094
1729841065.353358,0.001573371452691776,0.4673150766523369,9.88188208678278,0.023625243179397595,-7.949783256900217e-05,1.8786800004067702e-06,0.9997208818271626,0.24217066377955285,-0.5421092695752501,-0.4492837665915397
1729841065.3613932,0.23725172672903694,1.0067898296828084,8.9941862174017,0.05570307037116796,-0.013083583954242176,0.0007299919735684239,0.998361384917233,0.257258884432246,-0.3584693865391885,-0.46496199816599626
1729841065.369629,0.399727714504219,1.3649511854073413,8.29301689889805,0.08144960221424107,-0.023681176222521243,0.0019358024852549288,0.9963942075607414,0.2718457876228683,-0.1942228189118735,-0.4411651123166318
1729841065.3773558,0.5355205337318283,0.7459475606096391,10.176973825862268,0.03656213710097405,-0.026195416900271728,0.0009587311077289094,0.9989875330046384,0.2925172512581786,-0.025436018194249344,-0.3557967405428538
1729841065.3856668,0.7058211068601906,1.203178580311096,10.52683824082986,0.0568378080059097,-0.03319889716494598,0.0018910570733110818,0.9978295048309908,0.2878925269808835,0.04390930762667278,-0.2522158399187572
1729841065.393364,0.5168665288622081,0.9242171884698607,11.425568707437371,0.0403356549220823,-0.02250970487303175,0.0009089142350536673,0.9989321908935807,0.2834149321686583,0.006338151687288181,-0.14494415302932384
1729841065.4013593,0.6699684268388092,0.8789446380330883,12.011493919774923,0.036499774334668014,-0.027763531282605416,0.0010144304079896308,0.9989474078925203,0.3232973814275264,0.0016744407050627505,-0.18061830533924125
1729841065.409358,0.9835326393552387,0.8630338555737592,11.869364664853235,0.03625161447787233,-0.04118995839431314,0.0014954571192131378,0.9984923491861252,0.34296995036822686,0.06187834321210817,-0.2301183407816858
1729841065.4174287,0.5901195836131432,0.580787817006365,12.179609226158036,0.023815085923041938,-0.024170139711352002,0.0005759457037542271,0.9994239912646474,0.32880639798346323,0.24103254536757804,-0.19894468325808198
1729841065.4253552,0.24489615446476093,0.31375676613155334,12.395444063526853,0.01265245146871743,-0.009873076669268514,0.00012493471464430643,0.9998712028157585,0.3211596466755291,0.3796004411475883,-0.12958337142993795
1729841065.4333649,0.030818912161278418,0.5284701155871351,11.609641671270408,0.02274228449104073,-0.001325578741691219,3.015451451201583e-05,0.999740481539001,0.3553093914838135,0.47891740095115165,-0.04071498751076602
1729841065.4413798,-0.20919723058409234,0.5301660171061873,10.8755163137974,0.02435143539488975,0.009602221187265319,-0.00023390802533361976,0.9996573163987322,0.3924011507658034,0.6019353959911324,0.047086937819161706
1729841065.4493587,-0.39989384860436167,0.5350142806738686,10.16665109321008,0.02627967477585702,0.019621631446564612,-0.0005159277099353394,0.9994619072739332,0.4274269081788583,0.6914967252892159,0.09593688246396005
1729841065.4573598,-0.6141500286450389,0.3037703164511961,9.23878903239089,0.01642387944599942,0.033160319914048025,-0.0005449944497276001,0.999314941521536,0.47526083649879924,0.731611440901281,0.0409602170813568
1729841065.4653769,-0.6703988465327264,0.22080883659923325,8.493408705079066,0.012985066832788295,0.039357432905477864,-0.0005114984322420859,0.9991406902352604,0.5171575853960868,0.7378012876871147,-0.03544616841733238
1729841065.4733775,-0.6588977258883858,-0.2685434761166319,7.481388337061111,-0.017920798585141846,0.04387318552179782,0.0007871272103922505,0.9988760528719243,0.5933784421099031,0.7125682715791969,-0.14854902942754686
1729841065.4813616,-0.8133662453963129,-0.8070816935801354,7.497147388222995,-0.053513284021297035,0.05362269568355918,0.0028778083421812034,0.9971221856723629,0.7297829392296056,0.6761439588413446,-0.29984599808023377
1729841065.4894328,-1.161987514571772,-1.459886192661753,8.120715544750203,-0.08859327733555235,0.06962252015527959,0.006207740429373984,0.9936122985636476,0.8618570647539467,0.6227883066504428,-0.4089288519147133
1729841065.497354,-1.737951970412985,-1.885805975850958,9.366106422797387,-0.09876262646015183,0.089405565004134,0.008909701247479706,0.9910465204947065,1.0483754355569834,0.5311783067312174,-0.4416004294828245
1729841065.50536,-2.228379844357166,-2.1169369888308873,10.65610646598312,-0.09737503206735304,0.10049456343635414,0.009883390841849584,0.9901117434083315,1.208815125045477,0.4711040260421377,-0.46758872694562176
1729841065.5133529,-2.3231995704326587,-2.1129211776735324,11.346788274121124,-0.09145065845156106,0.09873263177068661,0.00911244239912368,0.9908610436816722,1.339134143655536,0.44953291971839904,-0.5891785307273459
1729841065.521656,-1.9235171494861578,-2.1121876321412287,10.330661867060565,-0.10024218119154771,0.08963866586493946,0.009068319616560443,0.9908754615345192,1.347512384741798,0.41062316217497186,-0.6953362377904189
1729841065.5293584,-1.8496258719670853,-2.391629678894112,9.461454562863292,-0.12291538128332523,0.09280156975583448,0.01154526963414338,0.988001206701643,1.2929427207888708,0.36301297414557976,-0.7245499670498381
1729841065.5373654,-1.782785609850173,-1.7117475192505298,9.130029792161334,-0.09210169329023565,0.09426025433931136,0.008758256495532144,0.9912394138088528,1.1533527169901445,0.3059256272099884,-0.6786503854476469
1729841065.545361,-1.7848194017987755,-1.3943190462182866,10.162273423392502,-0.06786131844005937,0.08583215499025473,0.005859968753679819,0.9939785427238919,1.0295838489334779,0.25805113708184857,-0.6179068116922938
1729841065.5534918,-2.0470076579249685,-0.7183178657192532,11.783592996906595,-0.030320563696381246,0.085698810033377,0.002609248434446427,0.9958561990561711,0.9136049020761987,0.1693041443388182,-0.5239925091417077
1729841065.561347,-2.079343284940528,-0.342165837839755,12.1396383933588,-0.014036053331941557,0.08467663062838675,0.0011929289173291356,0.9963089050856089,0.8214559607043435,0.05858779039562574,-0.45615029595188117
1729841065.569366,-1.9883719646166604,-0.4827874751159624,11.522956495487936,-0.020855834688856847,0.08524159700729954,0.0017846727584153255,0.9961404114090651,0.7282801804111095,-0.006564951785903661,-0.3813897631210227
1729841065.577417,-1.6263736792582775,-0.6911801034777805,10.325750683181433,-0.03330713380283077,0.07781762634478197,0.0026012265038253936,0.9964076904001594,0.562972366439427,-0.03288589525096035,-0.23096230817992375
1729841065.586028,-1.4589741025744978,-0.7336157232194809,9.658663111324875,-0.03778512198719065,0.07462470527305237,0.0028296311804427723,0.9964915609811786,0.4203672917872904,-0.04357018059244998,-0.08919733777835856
1729841065.5936306,-1.164364601925558,-0.5708928445762197,9.120743972751956,-0.03118528320262216,0.06329117258158325,0.00197868841623632,0.9975057846333383,0.2713764278381656,-0.05849455302658439,0.09121621823007561
1729841065.6015632,-1.1879935804912722,-0.3559432360426068,8.86550897642461,-0.020016278541220383,0.06648861682737826,0.001334075798341861,0.9975855014320861,0.14154135362979778,-0.1261944049688254,0.30588686720064406
1729841065.6093943,-1.1597935982459353,-0.5528243168697047,8.633359323843047,-0.03189384278911222,0.06655138340705397,0.0021283880309149157,0.9972708589561516,0.041078735847289403,-0.1736253571175625,0.46576463106971344
1729841065.6173878,-1.1574782390256861,-0.40543600125463536,8.822314579901532,-0.022909006202409633,0.06509566312579303,0.0014948422920403348,0.9976149044213168,-0.07070733225912143,-0.20719220914434916,0.6349099799626245
1729841065.6253872,-1.1788339392650211,-0.3205943143758281,8.82244199501123,-0.01811865949303579,0.06631248475357732,0.001204343217800634,0.9976336592664643,-0.165448827118,-0.24180578245013024,0.7815203358133465
1729841065.6333477,-1.073373797396903,-0.3618660661645593,8.522764396225488,-0.02117183627928123,0.06253046298330993,0.0013267803091567235,0.9978175856346025,-0.2784848121463153,-0.2834327394452384,0.87587190024571
1729841065.6413505,-0.5927883629107982,-0.9425627427260792,7.825331438028262,-0.059856589576570994,0.03745758944328268,0.002247699634767232,0.997501411289083,-0.3854698888178114,-0.3433154986821899,0.9201378271227293
1729841065.6493464,-0.7478432496800727,-0.46426291541103815,8.32648452077594,-0.027817293404339482,0.04468600773071579,0.0012447703558482936,0.9986129427598605,-0.4564719758041016,-0.4184086398788677,0.947974453433327
1729841065.657349,-0.6311441163119498,-0.18853576682474787,8.95159069537572,-0.010522322444557903,0.03517795114224836,0.0003704035449212955,0.9993256002349886,-0.4718290640623056,-0.524338203385945,0.8156849077079745
1729841065.66535,-0.039906934875060474,-0.26347732435266125,8.95004647899301,-0.014714508229786235,0.00222820284179032,3.279054052322485e-05,0.9998892525097126,-0.4512450127148859,-0.5555434968190769,0.6592612791481354
1729841065.6733897,0.0677537626589481,-0.6567986004221436,10.772543933538383,-0.030442292291291247,-0.0031374130038459022,-9.555480181211295e-05,0.9995315974740242,-0.41931283907918054,-0.45081655505496687,0.6126586988345173
1729841065.6814036,0.01766792165786885,0.48770531118226074,11.408510469009748,0.0213599893014288,-0.0007734470084137618,1.6524594867197e-05,0.9997715500871716,-0.40313336532799154,-0.2870918454299994,0.7443309236946083
1729841065.6893823,-0.22235506853848183,1.1595636078519345,11.897350624667567,0.04855728917408908,0.009288483133445175,-0.00045157579029061687,0.9987771071808009,-0.4074734531055252,-0.15224767436928413,0.8722886156787966
1729841065.6973975,-0.1602280997168391,1.6536582489396765,12.411400111128666,0.06617864766452268,0.00638391489173654,-0.0004234157555272584,0.9977872784030912,-0.47095118456111595,-0.07091548167139296,0.9605568625287844
1729841065.7057507,-0.18591942208596282,2.24843256044779,11.95224875075923,0.09283572080858768,0.00760984389352127,-0.0007095503931447683,0.9956521057860048,-0.5430930283514328,-0.005939943717101048,0.9862736467052071
1729841065.7134004,-0.3756320963668121,2.353905973036252,10.752117253385224,0.10753756645362954,0.016957305719804777,-0.0018344537596391268,0.9940547049148554,-0.6046828072684904,0.11137235036448792,0.8659085876046726
1729841065.7217424,-0.6089303637771185,2.5033812803549544,9.855585692607306,0.1239947576524515,0.029670702880539572,-0.003709308356853419,0.9918322390892516,-0.6071557796403004,0.27328309002777806,0.6259676679283115
1729841065.7293837,-0.7618380131881461,2.38979874379891,9.626279350134697,0.12127638791426662,0.038037036030880066,-0.0046507640322584415,0.9918788192205589,-0.5958688612195254,0.4078902592344109,0.40452752493640504
1729841065.7377071,-1.0048961477566378,1.8049805036035647,10.003927741916756,0.08902234996339449,0.04905100309624993,-0.004389410388255517,0.9948114159873167,-0.5793058387534337,0.5265409762285115,0.1226719176295501
1729841065.7453842,-0.9591948956852326,1.3683771400527638,10.508962430062162,0.06462724204521716,0.04502215889227378,-0.0029187379673804455,0.9968890639198453,-0.5697937153352407,0.5990084766093579,-0.07666544111836711
1729841065.7534466,-1.1178036134365301,0.9378633250472833,10.381745204619328,0.0449645481728787,0.05333306631595205,-0.002403960434006899,0.9975610229049543,-0.5985673362627495,0.6233329240720743,-0.09282517143184374
1729841065.7613456,-1.2474453479935588,1.0506562933682138,9.447811834685659,0.05522481683117475,0.06509424875145026,-0.0036080114352733277,0.996343284535471,-0.6490353336132932,0.6132375689849063,-0.08081081648536612
1729841065.7693877,-1.2464611541086352,1.0747576041459284,8.880508627911006,0.06003291166843278,0.06904485442396921,-0.004162458740267272,0.9957969328790979,-0.6844244127611638,0.5982408646419028,-0.11276568917198646
1729841065.77738,-1.0167455389007278,1.3001475568723224,8.511396283924338,0.07558242430604035,0.05856900169450734,-0.004447208483948248,0.9954080527669197,-0.7192799422166711,0.5815804209297842,-0.1719534785613896
1729841065.785688,-0.9842610428228586,1.344162445256206,8.308124810149524,0.07997237408672346,0.057990230661116866,-0.00466046246810344,0.9950979010230034,-0.7487070611192161,0.569881394456665,-0.21512857330134805
1729841065.793393,-1.406500551474965,1.5573191077787238,9.10577478355065,0.0843409755612895,0.0752034672254842,-0.006383752596876673,0.9935744995023863,-0.8016956075620918,0.6003227039814522,-0.2704062443862033
1729841065.80139,-1.857126473463104,1.691198609442625,10.24253080396828,0.08139514073190789,0.08809910431814366,-0.007223175577630839,0.9927543526059951,-0.8956394844012738,0.6973401510668003,-0.32911425072483835
1729841065.809393,-2.169879396040753,1.7815819574136216,10.856828509236438,0.08083394808930595,0.09688817195993808,-0.007895205241667836,0.9919759174016014,-0.9754187638851948,0.7785378826369589,-0.3639133644665573
1729841065.8173878,-2.266072646169374,1.6892868245946575,10.948398000317253,0.07606449411698758,0.10042084843856665,-0.007700035880495004,0.9920033041180076,-1.0360570334194084,0.7765994042650723,-0.3605284992082529
1729841065.8253882,-2.041512220514124,1.5977572998349197,10.717472016743086,0.0735940191920003,0.09272097898194415,-0.006872193732089431,0.9929448692395293,-1.0605206734189996,0.6992377962402367,-0.341044287533327
1729841065.8333666,-2.0068535945155057,1.4863364257993892,11.114259917809525,0.0661519765437012,0.08823777024632651,-0.0058730279187372576,0.9938830511908249,-1.0228389798589244,0.5417157253837451,-0.25485799977251594
1729841065.8413486,-2.013352317842116,1.045988442393696,11.056169913088059,0.046948366590570605,0.08945268498337493,-0.0042212916024350535,0.994874991504435,-0.941059045179657,0.4437969623781539,-0.11502838439338875
1729841065.8493462,-2.05292515657441,1.018087356207702,10.796979214698538,0.04677672041641605,0.09330320759481037,-0.0043884287827313405,0.9945286278294975,-0.872835031606305,0.38334294432895105,-0.010271802154272883
1729841065.8573503,-2.057994086864568,0.9467589066445431,9.816901743907012,0.047789269696138614,0.1025590122852329,-0.004932958695284989,0.9935660524693352,-0.7829462663941602,0.30407583729176413,0.07258958007791212
1729841065.865356,-2.1077223774117093,0.8493740390550851,9.106990396930145,0.04617180706267034,0.1128791527476627,-0.0052511049588451625,0.9925214793666929,-0.6902752116738284,0.2233117482754135,0.1235834796016092
1729841065.8733835,-1.9012516478825727,0.7811268916947699,8.41480836413465,0.04597011391675561,0.11030103033159074,-0.005107213532920228,0.992821407758817,-0.5559199174711535,0.10504012478582996,0.12693565538225743
1729841065.8813856,-1.7256544543057155,0.6242992429270181,8.134292697924149,0.0380737682021717,0.10396061145738521,-0.003982688004518294,0.993844413193812,-0.426352383881415,-0.03573601938769337,0.08467519445859509
1729841065.889395,-1.8946716484135073,0.39349373887144523,8.256878799906833,0.023650837324003512,0.112386941051269,-0.002675760370518262,0.9933794107396487,-0.32860443083885643,-0.13680361828882656,0.05080511667515705
1729841065.8973813,-1.8062217732277919,0.2949936041627109,8.339767847571053,0.017573247501672502,0.10635971708941924,-0.0018800450965161025,0.9941706377596045,-0.23206924354320044,-0.27662252906144436,0.028780309759246104
1729841065.9060016,-1.54916586667105,0.23445700234137654,8.270030613327789,0.014107705637124174,0.09241072100298035,-0.0013094383711986133,0.9956201668590877,-0.15158655790831918,-0.44437481763303527,-0.00018510666439563311
1729841065.9134016,-1.2093816940748958,0.2208799570200603,7.527884287186126,0.01461771369333009,0.07951992966553924,-0.001166218451912115,0.9967254101139842,-0.0692417416104279,-0.723390326528581,-0.08567476635250573
1729841065.921575,-0.8702387967183749,0.15623057064758306,7.4932020762179254,0.010405015534954074,0.057761812132860926,-0.0006020504954427108,0.9982759870126329,-0.0019558692502877964,-0.9925395565553341,-0.18464584904911935
1729841065.9293532,-0.7515077970739937,0.3532698023494873,7.591863412478802,0.023218118768166943,0.04924733878450565,-0.0011451298734354027,0.9985160525805704,0.041395484596030485,-1.1608401355547784,-0.24487987879001155
1729841065.9373991,-0.3608826958225212,0.2557757717905517,7.36040413269236,0.01736184293800708,0.0244746350085263,-0.0004251162466426682,0.9995495875278886,0.05761542549019473,-1.274165494736844,-0.28995978792524957
1729841065.945351,0.03318561566078416,0.35074767987120603,7.315620690064634,0.02395181865889811,-0.0022648641610989715,5.426332235388456e-05,0.9997105470228644,0.06862446021107937,-1.367702113933805,-0.3289270551273292
1729841065.9534767,0.18798432593943926,0.690964881116083,7.622023495581749,0.04518437243783416,-0.01226597378023049,0.0005548388727752071,0.9989032037832529,0.09268317356355345,-1.2756839440631949,-0.3629496669851278
1729841065.9613419,0.03976744492889793,0.9094604118239467,9.205994309751393,0.04921524966091697,-0.0021467843076302586,0.00010578295859633604,0.9987858826234559,0.09860460034579727,-0.8948201451223745,-0.3995394564353642
1729841065.9695783,-0.06352789363836436,0.9682528401119461,9.9483206739856,0.04849206093366094,0.003174092454981183,-0.00015410035233718436,0.9988185127522291,0.09960331604637136,-0.6143676782595144,-0.43681817231813913
1729841065.97735,0.017668162498622006,0.6645093420066208,9.482004500338626,0.034976203857251156,-0.0009288187731669202,3.2506458030144374e-05,0.9993877132538467,0.0853033933155447,-0.4367310167896337,-0.48642956578137414
1729841065.9856765,0.3730830288468294,0.563666099588738,9.502208264168019,0.029614784197428478,-0.01957706534492953,0.0005801363503812649,0.9993694844807075,0.060547217341491516,-0.3012020957282871,-0.5174734720437012
1729841065.993373,0.5197731425034101,-0.06019549649675717,11.34350059082503,-0.00265255217334645,-0.02289219817226838,-6.073888113747433e-05,0.9997344185035332,0.10826995079197824,-0.2215875033373273,-0.5280117046333188
1729841066.0013554,1.2489544152872023,0.6661020490257739,11.707270573000878,0.028372167670872795,-0.05300852943638336,0.0015066943266542814,0.9981897844502587,0.23140678450684127,-0.20872533294263798,-0.4930427082252724
1729841066.0093527,1.364921895998493,-0.33487983992047315,11.545093918507558,-0.014472469586009404,-0.05877492397949798,-0.0008521812145033383,0.9981659830521494,0.290389732584588,-0.1307691705645892,-0.46269612902827983
1729841066.017354,0.069328597804174,-0.47434573354212767,12.742572183624066,-0.01860290189591327,-0.0027179699185517154,-5.057106591154037e-05,0.9998232554422507,0.3236510511239259,0.1399174991912687,-0.46662406470610995
1729841066.02535,-0.008202235848745602,-0.758659368836214,12.82970816491077,-0.029527825345304046,0.00031896132317849366,9.422343253455472e-06,0.9995639077644165,0.389582368885428,0.3440471270680625,-0.46472392549818764
1729841066.0333586,0.02285139774856514,-0.7927780553837597,11.614978235128103,-0.03406794214036204,-0.0009808493181133948,-3.343494227194659e-05,0.9994190373086961,0.4815010371021592,0.47716715533068965,-0.38270273029564833
1729841066.0413532,0.06829863650070159,-0.7572249484646307,10.16931630020772,-0.03715351685691294,-0.0033464347521972634,-0.00012441842032251044,0.9993039588031607,0.5724102031950086,0.6072705995407857,-0.20748575498136335
1729841066.049346,-0.05454946433981343,-0.8101133357779973,9.666556052097288,-0.04179285660922476,0.002809209798013721,0.00011750803429375273,0.9991223406913757,0.6414291649404272,0.7015088884024003,-0.06191501395389935
1729841066.0573487,-0.1794942403714662,-0.6799983359394545,9.368970046053295,-0.03621675508091314,0.009546480500066162,0.00034598532418348853,0.9992982996361128,0.6841176121720646,0.7597546219652174,0.012231038757256063
1729841066.0653622,-0.4148726172209266,-0.6050417981945321,9.250034063764788,-0.03264402261099741,0.02234893446769611,0.0007301309071259217,0.9992168732686563,0.7156903413715154,0.7691606584151857,0.03458278718792366
1729841066.073356,-0.8886542539263059,-1.0820038374616412,8.720901116969811,-0.06159905835507195,0.05027348658433393,0.0031066499569488305,0.9968292136983488,0.7559184819642875,0.7207416424794886,0.053953497106792654
1729841066.081369,-1.3824158812132052,-1.4256419008656565,8.506132600113528,-0.08266135121683281,0.07910920966783273,0.006582646934599032,0.9934110441907079,0.8583823376289645,0.6967985136556147,0.08260352551659533
1729841066.0893638,-1.731105873942767,-1.8848918543865814,8.53528879957007,-0.10792034895960097,0.09702674193370758,0.010583804783857665,0.9893568581186795,0.9620039671125118,0.6743445251935118,0.11809821520534428
1729841066.097353,-2.2333701527836287,-2.1460766165381986,9.297618655718605,-0.11240227378041794,0.11396833751468954,0.012978764519662752,0.9870200092017755,1.0859020037146347,0.6370334886743763,0.1564226314770749
1729841066.105358,-2.5828521734572867,-2.3813172882822937,9.998267458079601,-0.11572253182667151,0.1219528858890392,0.014317979140750474,0.9856626120150267,1.178119808257314,0.614221176701433,0.1496189769377711
1729841066.1133544,-2.893576695920075,-2.372824087568986,10.195277724603619,-0.11300508691928286,0.13356108762968077,0.015331372779561817,0.984457330314644,1.2164228885244404,0.6047906901322873,0.03230322786528838
1729841066.12136,-2.0682217878157165,-2.1800227569847506,9.389561463863734,-0.11315807281467137,0.10479656314542438,0.012003070426533717,0.9879619715404598,1.172997087096639,0.5267650877422545,-0.08661488858487283
1729841066.129358,-1.7985426393398207,-1.9879669256752253,8.702863986472538,-0.1114749580745668,0.09861671675151723,0.011117819390142497,0.9887995100076824,1.0945817286801285,0.44163762077665203,-0.12816745415262737
1729841066.1373374,-2.281733077500377,-2.450454287485213,10.004854468543678,-0.11906983732722647,0.10799862784586353,0.013029957415780509,0.9869087548664373,0.9768679634275248,0.39098683065875256,-0.12755758980555817
1729841066.1453874,-2.4564862405431946,-1.444654614727456,11.91467542038402,-0.059974389255625093,0.10058832641583411,0.006074636754477069,0.9931002769159706,0.9258214471032161,0.3363320230846771,-0.14507065377872197
1729841066.1533356,-2.3252698546774795,-1.1069311953501455,12.107915150912053,-0.04535699908328766,0.09424455448590699,0.0042982647352989055,0.9945060238652036,0.9432965142538405,0.19413679274448967,-0.16536936357624699
1729841066.1613376,-2.1926704858045345,-0.8343864552471967,10.913751840791372,-0.037949066937770136,0.0986209992691066,0.0037636737277106937,0.9943940876643359,0.9137666887667841,0.1164820756466938,-0.21458362480195875
1729841066.1693685,-2.2024145864045956,-0.9332641131385524,9.992549612775605,-0.046263678888536205,0.10768642738632321,0.005016608819351607,0.9930952315908189,0.8700816997253663,0.06988924538801627,-0.2815729069460446
1729841066.1773732,-1.8280618231318198,-0.562113249377272,9.280135025233722,-0.030096049198335743,0.0968779910271198,0.0029307769206344775,0.9948368173845609,0.7923622088636099,-0.036393424076204044,-0.3353885581992811
1729841066.185373,-1.660432164679873,-0.1821236820482382,9.269516781741794,-0.009782271440119521,0.08848728713735679,0.0008690577848757906,0.9960288911066332,0.7223175609661442,-0.14060358159362923,-0.3302172235425642
1729841066.1933572,-1.560333209940736,-0.18086083886761478,9.535845404738437,-0.009449515189966628,0.08098866245927837,0.0007678606241194473,0.996669932126877,0.6321877952824553,-0.23207660028350247,-0.2411250303332037
1729841066.2013674,-1.5115265848999884,-0.29933437563502197,9.57473539469853,-0.015575991418949648,0.07816001289418238,0.0012213054035580637,0.9968183933339158,0.5087224558539307,-0.294197142542281,-0.1229648250653586
1729841066.2093527,-1.4168809045532742,-0.3036202713771069,9.449868305910915,-0.016012379303354803,0.07429801098420684,0.0011931399167464589,0.997106807563751,0.39207424605061286,-0.32678687722146577,-0.010776765942834485
1729841066.2173622,-1.3509955300366518,-0.3200781784512642,9.152047878077799,-0.017429934124432615,0.0731584046312409,0.0012787686787592916,0.9971671925905383,0.239501448244988,-0.34123243729143227,0.13273459053238362
1729841066.225348,-1.3282237169477724,-0.2538173099027897,9.07893991459082,-0.013935954043969473,0.0725345239656371,0.0010136069460312314,0.9972680204533392,0.10794290378418214,-0.3665016857304314,0.25034246896570483
1729841066.2333503,-1.167556647160851,-0.34023521626393943,8.793979029320898,-0.01929020641160316,0.06588900394571552,0.0012740195976343343,0.9976396663974945,-0.028886071251137665,-0.43444880241512274,0.3728413835240654
1729841066.2413425,-0.9485732802886981,-0.26567211242437927,8.43002984435035,-0.015725933028173742,0.05596212328539896,0.0008815476093340997,0.9983086489966897,-0.12715967860788677,-0.5045896866668177,0.4752876564384999
1729841066.2493463,-0.5440048507415782,-0.7335328255600964,7.7457486903016175,-0.04716244464724074,0.03485716516069618,0.0016467857084068308,0.9982775014737567,-0.21932766781597468,-0.5952028842245063,0.5848583971323702
1729841066.2573469,-0.3249663894488532,-0.29120035207433903,8.086001638497375,-0.017993928873624172,0.020065977798186276,0.0003611970159446857,0.9996366562883783,-0.28825054330761246,-0.6499964928205815,0.6757165551749522
1729841066.2653685,-0.15236304411853066,-0.7428642651996815,7.9449095280203,-0.0465963376275873,0.00953540425868795,0.00044481836645643967,0.9988681892631981,-0.31938770712750636,-0.647114692815416,0.7298057599390394
1729841066.2733762,0.16859247382185036,-0.8601548664928558,10.295396770278977,-0.041663462307778724,-0.008151433417996155,-0.0003399234170460596,0.9990983907973382,-0.3793619413812598,-0.6023909166046515,0.6967030133323389
1729841066.2813773,0.5289993209630321,-0.4251132568097759,10.994850642733791,-0.019315755253390812,-0.02401343436878531,-0.0004640580914621731,0.999524907753126,-0.4536585874650946,-0.5491638670675468,0.6329952890377293
1729841066.2893777,0.8666294534176631,0.3573688305821032,11.58307476308168,0.015409664026127123,-0.037308937090612594,0.0005753872443433941,0.9991847949189828,-0.5263321191718896,-0.38526371829205425,0.5934935842765774
1729841066.297379,0.8391247533494259,0.8524760407809026,11.470815852722057,0.03705622203547987,-0.03637833445794377,0.0013498660875619376,0.9986499041466278,-0.602288682867081,-0.18603508446025718,0.688560088567793
1729841066.305398,0.6349165231522337,1.5266271283747914,10.899720477209407,0.06949180511516624,-0.02873819703368663,0.0020027439975420624,0.9971664826244256,-0.664038843419753,-0.01924630733889346,0.806899359993055
1729841066.3133643,0.5224472320065746,1.7781282948471406,10.60111656244869,0.08297064924371594,-0.024196405255004313,0.0020151357910316472,0.9962561641287624,-0.7057715304274387,0.1323354563708306,0.9409050519445928
1729841066.321358,0.44993783383285096,1.985053313578206,10.463373902312963,0.09358422968041719,-0.02101702326072714,0.0019759760251169887,0.9953875487502991,-0.7282570022632778,0.23605521644052596,1.015348806255047
1729841066.329349,-0.03769221303036751,1.8094542769652828,10.243779971270591,0.087306466404581,0.0018047870716363958,-0.00015817382918571337,0.9961798525610782,-0.7208894723531418,0.3340450376451538,0.9357135608944064
1729841066.3373418,-0.232347393247908,1.6167064944018257,10.330853644383449,0.07753409557646253,0.011074594721444994,-0.0008613047700843409,0.996927818615264,-0.6939073811495725,0.41582619368688023,0.6635937512875314
1729841066.3453538,-0.5184105587514792,1.320056179355939,10.927539305770694,0.06005568208944959,0.023487112897455198,-0.001413477915273232,0.997917668275643,-0.6585620736616394,0.4878821506308659,0.4096498824319937
1729841066.353348,-1.306076545211825,0.8099902200647353,10.878536420376479,0.03708311780622729,0.05950430206685896,-0.002212054308041503,0.9975365593425856,-0.6241584972635567,0.5745361110663845,0.17810520968673316
1729841066.3613436,-0.9682388751251418,0.5724248119704818,10.650894791679011,0.026814494547574792,0.0452320877078833,-0.0012145567282563488,0.9986158250176583,-0.6064961818549413,0.632062458126702,0.046415137084431415
1729841066.3693767,-1.1584247655047726,0.7696227826901015,9.793894534919517,0.03913011123152791,0.05860862999452635,-0.002299084191171953,0.9975111914645644,-0.5916418919951517,0.6772205178994433,0.004010438808785079
1729841066.3773808,-1.3766840719493478,1.1043773951999984,9.374504766606005,0.05843960013946401,0.07222463898420627,-0.004239152230542105,0.9956658296072568,-0.5929458795543667,0.6838822308129107,-0.08017760863836308
1729841066.3854215,-1.3690153796930462,1.1180035928817178,9.231328240822979,0.06005759414691324,0.07288999775465925,-0.004397296183814699,0.99552036513518,-0.6116072546713011,0.6691488958566616,-0.18305031466648186
1729841066.3933916,-1.3634564836752026,1.4321582836587181,9.224430980138319,0.0767271259617341,0.07223867064208128,-0.005573788849504124,0.9944161379841833,-0.6755896473627535,0.6722282166038491,-0.3401285120508482
1729841066.4013784,-1.7407992100293403,1.5847380732225744,9.255008547799788,0.08432117805333753,0.09119955519238244,-0.007750304495181113,0.9922260391889748,-0.7386691065424229,0.7170705052598267,-0.45353148324725945
1729841066.4093678,-2.287070187638698,1.518268637390576,10.076609745379093,0.07423067224172629,0.10985654337186411,-0.0082276420895163,0.9911375550762739,-0.8224913086881239,0.8044238671810218,-0.5254044765182644
1729841066.417351,-2.4173111372414215,1.5004136311648142,10.410356053526284,0.0710350332248757,0.1124239676899862,-0.00805787432323522,0.9910852365992406,-0.8902379224954877,0.7555216497057753,-0.536601517871215
1729841066.4253333,-2.3407902797569626,1.4169168969606072,10.49616099905913,0.06662857700498087,0.10829804751653462,-0.00727498895125099,0.9918564614732098,-0.9125812181370386,0.6495561081574617,-0.5041562570284785
1729841066.433351,-2.252260975715506,1.4817405361255829,10.572304243478445,0.06917571314694983,0.10352305399381559,-0.007217634050028278,0.9921923219623927,-0.8651135167328987,0.5157379230872383,-0.3872060764480314
1729841066.4413373,-2.355245341532819,1.158870848774959,10.897872364202302,0.05263727166566198,0.105498511720935,-0.005592245735990144,0.9930096215263432,-0.8106658021412309,0.44310943315142093,-0.27744679238379416
1729841066.449352,-2.5717013882693007,0.9723316413450536,10.71157749200771,0.04492339491801504,0.11695938284620178,-0.005296019245362043,0.9921060142612927,-0.7392593777931853,0.3850588771002214,-0.1664680754302765
1729841066.4573507,-2.3991873466334552,0.7799629411058602,10.047218825526892,0.038452433673216546,0.11650873870271336,-0.00451419553510919,0.9924347566410503,-0.6653401486976296,0.30553108701598836,-0.046669587575411946
1729841066.4653633,-2.283468493185151,0.6868077964017973,9.581565979154027,0.035517927095874445,0.11634972885917585,-0.00416345943637592,0.9925642966854742,-0.591190306937954,0.2318473192162646,0.06820420134517197
1729841066.473383,-1.9722228134403874,0.4597292908781878,8.70984878060765,0.02619431904208098,0.11092314457560083,-0.002924626495898253,0.9934794211292157,-0.4866781032160022,0.11228991765765077,0.20864440502314363
1729841066.4813821,-1.7476470193630607,0.6004913196441002,8.279234645561855,0.03599099203643934,0.10349838045734311,-0.003747603043930899,0.9939711712149226,-0.4026862779097295,-0.007121810161265063,0.2984424980289331
1729841066.4893856,-1.6753902062467425,0.4941306645891945,8.029724710676957,0.030556857039113275,0.10243136304150556,-0.0031480324342346355,0.9942656507418646,-0.32121580823923757,-0.16986652000548932,0.32933409051345697
1729841066.497385,-1.8906098976738266,0.2952812979234386,8.17809685643547,0.017923428906567503,0.11326069143220216,-0.0020435039598738695,0.9934015253481829,-0.23614987121266975,-0.3041226911977586,0.2929550280755693
1729841066.5053785,-1.699876370733202,0.46567007880289124,7.931213650970656,0.029149580853338474,0.10515024331496792,-0.003083511798393832,0.9940242553488657,-0.15488631463292482,-0.4268197099978613,0.21919340311446878
1729841066.5133612,-1.2914282907016401,0.24636206437157848,7.792660534332392,0.015746040709270645,0.08197289015736631,-0.0012952698347900643,0.9965093224638119,-0.040997601281387026,-0.6549634135886404,0.09490669658294654
1729841066.5213559,-0.9393386284737184,0.28165311142568145,7.701148958538888,0.01824231235168448,0.06059969670197223,-0.001107699729082682,0.9979948235341718,0.05713393103187786,-0.887204209510603,0.03310537450789415
1729841066.5293517,-1.0797930550139185,0.3854276969335339,7.6345104249280205,0.025153816852139403,0.07008389604353246,-0.0017677877876709001,0.9972223462896658,0.14921667521387527,-1.1746888284525676,0.03050547624128728
1729841066.5373447,-0.8049354619146012,0.46924026317965156,7.2715495008064215,0.03216454669892028,0.05495407875200232,-0.001771170075384595,0.9979691148130466,0.20574339190745977,-1.3923027463327216,-0.060449375625703475
1729841066.5453682,-0.056314541308916964,0.6528848353980253,6.896952737593227,0.04717285541784786,0.004059771453519092,-0.00019172603779329684,0.9988784726925485,0.24561908278407893,-1.525425237429586,-0.16525371399841765
1729841066.553345,0.6804016304392592,0.4379389932798308,7.374174606423124,0.029622395464756274,-0.04588704580512851,0.0013613174754077769,0.9985064043504873,0.2844436494612215,-1.444387888855057,-0.3022063877164397
1729841066.5613394,-0.30618879712706953,0.9336187011436797,8.428567620299187,0.055122020575848946,0.018017072256715012,-0.0009948121320275886,0.998316562170414,0.31369805032797554,-1.1914342502085642,-0.4235414776017598
1729841066.5693738,0.20893579398938325,0.5352715234205828,9.736128876622871,0.027456194230831756,-0.01070785919075642,0.0002941248260404543,0.9995656119737696,0.3214598194344012,-0.789356310880994,-0.5597703506907945
1729841066.5773628,0.19790578669636433,0.9522744716695372,9.537127588424894,0.0497363789215266,-0.010309779880598044,0.0005134339437728327,0.9987090354233176,0.31036634862416146,-0.5063919212611728,-0.6014928087667843
1729841066.5853674,0.2710146976037561,1.020516914447035,9.581490209060796,0.053024248124570295,-0.014039123583499694,0.0007455365606547442,0.9984942545127978,0.3079671667526379,-0.28936169066699463,-0.5941738389412639
1729841066.593355,0.7195001247145975,0.5323438132190021,9.479539152291947,0.028024573388386494,-0.0377942961979753,0.0010603439615684983,0.9988919311577112,0.3567590848822435,-0.1642518330480321,-0.6025531588898125
1729841066.6013517,1.1020765396725085,0.6488484363689013,10.347318762371263,0.0312616944565016,-0.05290028806258369,0.0016568858590239046,0.9981089723631654,0.4056159785872603,-0.12920078425408554,-0.6267368036247332
1729841066.6093526,1.2597963388425675,0.5954498247607939,11.145235080664945,0.026640834187640076,-0.056149335517931595,0.0014987640988688637,0.998065765258411,0.40470612044646614,-0.10050773387140104,-0.6433754407729957
1729841066.6173549,0.7929879290379623,1.368820096272492,12.054941170469277,0.0564707013862528,-0.03257623847992095,0.0018435279829227904,0.9978709585793246,0.4207621179590089,-0.003687862148390418,-0.6456962019556367
1729841066.625352,1.1176782225106678,1.1112298788084172,12.071885677623362,0.045829661825644,-0.04590320113692904,0.002108172582156663,0.9978918247138282,0.42613881585191427,0.09229047635553678,-0.6143105239326448
1729841066.6333597,0.763023117588432,1.3952934924705969,12.44022495027519,0.05579059419623845,-0.030386677512781478,0.0016987246917514363,0.9979785437389856,0.396161009793619,0.23671825199614754,-0.5073612743962093
1729841066.6413555,0.7906079013147779,1.1208889922108738,12.190767887645583,0.04580312708102655,-0.0322060594622227,0.0014774576982633006,0.9984300979048383,0.3522072324094579,0.35955857260478663,-0.40573099926568906
1729841066.649345,0.4396488167166011,1.0328607451800398,11.751395249188912,0.04381171983286574,-0.018606814306469228,0.0008161218673785386,0.9988661840365549,0.30880736352048,0.44560777675236907,-0.2698313833700594
1729841066.6573462,0.10744792162175754,1.159130081141227,10.838464175880535,0.053244645000653276,-0.0049215107724736185,0.0002624195282707467,0.9985693354226646,0.3351273197469231,0.5210759426827923,-0.18318333309513724
1729841066.6653614,-0.24988992500546112,1.0663398858429394,10.342420287754884,0.051343797724912876,0.011998669034154036,-0.0006169155102282626,0.998608765128689,0.36666982575688417,0.6021148074038569,-0.1469450352042791
1729841066.6733503,-0.6203945812239797,0.6163407552362323,9.660524588424414,0.03183443636662615,0.0319791648636063,-0.0010190772179574494,0.9989809123088736,0.4009201715754939,0.6881988516451545,-0.13116171733023263
1729841066.6813645,-0.8326417279824346,0.27738826905970815,8.908776911257773,0.015545047366046665,0.04655126307938459,-0.0007245148640628842,0.9987946768411979,0.4372209113407549,0.7330382372065405,-0.11743482599118446
1729841066.689362,-0.9470613270726639,-0.013132163075893839,8.13091977834646,-0.0008061324445958775,0.05794445172620507,4.67895331656684e-05,0.9983194821675929,0.5173208936202098,0.7450427163922009,-0.1326116445681673
1729841066.697356,-1.2850607732943797,-0.8235838034607708,8.036743276919985,-0.050873109700096564,0.07868740303315898,0.004020795296072987,0.9955923124042924,0.6590326965095297,0.7292581405846474,-0.19748313376588314
1729841066.7053583,-1.8374138834102214,-1.4906170130334937,8.699694974941053,-0.08428076127017414,0.10207143334547686,0.008679363102851816,0.9911623703665553,0.8117444980155847,0.7065910031947924,-0.26237312103369653
1729841066.7133565,-2.3634743444504296,-2.0177296267654086,9.991221473490022,-0.09879865858200436,0.11311400242152414,0.011304460908187769,0.988593069307162,1.0255446265588208,0.6614896562126891,-0.3179090257914039
1729841066.7213554,-2.877829358867523,-2.259537523373698,10.791755330383076,-0.10214089979812686,0.12663342340079184,0.013110263732560907,0.9865897494151697,1.2015019905685103,0.62038107599518,-0.37123800153474373
1729841066.7293544,-2.976710302088092,-2.090503003526172,11.146858897692736,-0.09176839803418009,0.12743851052467173,0.011842611826175365,0.9875210072209238,1.3355976430922798,0.6097636998929217,-0.5181717035754961
1729841066.7373598,-2.712582223733324,-1.9134255191567189,10.283727391838298,-0.09108118954409493,0.12599263992192203,0.011617610373408499,0.9877727991425707,1.3321940924985212,0.5603985780239015,-0.6586918023597774
1729841066.7453609,-2.467914116954838,-2.070062370820203,9.471840524458447,-0.10650789821416771,0.123585157962219,0.01334277069140744,0.9865114022755795,1.2833260553814427,0.4933187794938305,-0.7276790194177131
1729841066.753336,-2.2871155893135278,-1.674190822150325,8.859970497536397,-0.09249559992609527,0.12334772474790348,0.011547974821765963,0.9879759850681306,1.1612047997124728,0.4198670755817495,-0.7716254900212467
1729841066.7613356,-2.42499982355882,-1.399557767215976,9.260908373961291,-0.07429950312242137,0.12598161169858332,0.0094625570230417,0.9892010298034339,1.0317409581981025,0.3506803396082411,-0.8167237350876964
1729841066.7693827,-2.609962774994667,-1.2924781942651327,11.178848782921696,-0.05713332430991882,0.11351491511142876,0.006538639323038495,0.9918706536118236,0.8842494832097071,0.22360459567026764,-0.8688983957538259
1729841066.7773657,-2.7295596718327375,-1.17603685430322,11.971440459938563,-0.048624951016985364,0.11120291326047398,0.005447589285673236,0.9925924893892528,0.7995858087698282,0.07499183885893819,-0.9019059523993518
1729841066.7853713,-2.8331606920156585,-0.8550202961756821,11.850120992271732,-0.03574971106525115,0.11670281516540096,0.004203558275469809,0.9925143531400672,0.750064674290287,-0.01715564565809371,-0.8965947727604074
1729841066.7933612,-2.3355569559808793,-1.1829098022171278,10.366186853175536,-0.05642183212129596,0.10971145109621275,0.006237895854083617,0.9923412029205243,0.676505917271973,-0.06988999599954066,-0.8218921346514195
1729841066.8013532,-2.0923007727096214,-1.3111693383615268,9.493304041836963,-0.06815762331344258,0.10701689244491579,0.007353647432755652,0.9918910459244659,0.5898016569147815,-0.12068665897020023,-0.7379070661315199
1729841066.8093495,-1.7090816782253822,-0.9449583327532443,8.91091641435999,-0.05255668534877987,0.09396115413699449,0.004967219637172034,0.9941752476638459,0.46115488963730084,-0.18011158093201413,-0.6032293928500978
1729841066.8173554,-1.4494621209489011,-0.7774253255796809,8.2717854369949,-0.04665614501187622,0.08615928790600863,0.004039329325844808,0.9951801168927953,0.3047884778388745,-0.25493001976360935,-0.4138718232084265
1729841066.825349,-1.3545031087509813,-0.5478580517931211,8.040578076161783,-0.033886597633167884,0.0831120288479146,0.002827808551605719,0.9959598850658729,0.18287308670332472,-0.306632124045959,-0.24236343306458746
1729841066.8333616,-1.2915421972818386,-0.3703739399625914,8.175989749749805,-0.022560611896133072,0.07815770320054934,0.0017691518797395473,0.9966841336767197,0.07354019679772214,-0.3419102872299892,-0.015582591092832832
1729841066.841354,-1.1896010459081656,-0.4161546984502111,8.340554971676054,-0.024859531651803574,0.07066869565179543,0.001761743880335906,0.9971884653361304,-0.014195420341665044,-0.3792534074759644,0.1736971717729739
1729841066.8493462,-1.1205354896054462,-0.45487590134551725,8.516866238620866,-0.02661672461415442,0.06524596347714873,0.0017409642326219118,0.9975126481725901,-0.12217649861536148,-0.4510393267531452,0.3404762871752119
1729841066.8573477,-0.48413704327498647,-0.8283803259635603,8.13854542310416,-0.05067296833478124,0.029513801124523256,0.0014981317105305458,0.9982779880497727,-0.22357449086531406,-0.5345514341583466,0.48183569237837176
1729841066.865615,-0.4532879388556168,-0.04284814064649553,8.450248307329293,-0.00253434745231676,0.026791666142728623,6.792399127421968e-05,0.9996378239615681,-0.2788793154162792,-0.6242478743174364,0.6070918913391607
1729841066.8733504,-0.7706849691239169,0.01307718250663393,9.547545509055778,0.0006842671770591806,0.0402621194193916,-2.7572410298337687e-05,0.9991889174515755,-0.26736475369334495,-0.7938534351305631,0.6894823417604885
1729841066.8813524,-0.38843015017552196,0.2348166268867929,11.166956376478389,0.01051051030340097,0.017379259751718494,-0.00018270257889725625,0.9997937072833636,-0.3077076134818699,-0.937334397641718,0.6763401729783666
1729841066.8893576,0.7669999433419524,0.47631762871996636,10.59458224629719,0.022447064463215875,-0.03608142088824304,0.0008106544933947166,0.9990963933489911,-0.4315248037371003,-0.9450960038393972,0.6467446785745298
1729841066.897358,-0.5951641257917035,1.3552804588237768,11.872271712280266,0.056782663449216085,0.024840263960677084,-0.001413214671569244,0.9980764966886402,-0.4964499365380738,-0.6530469947189688,0.820973599651604
1729841066.9053514,-1.6470943299672096,1.7595961915540317,14.35744334353027,0.060834496560642264,0.05655449449265696,-0.003452414991510773,0.9965384257576924,-0.5558381391688354,-0.37394921424997596,1.0110746546517169
1729841066.9133554,-1.7010104322088415,2.758274515469528,14.447938351088863,0.09401852238712101,0.05727937443406815,-0.005418338516420228,0.9939065511004069,-0.6817173537772431,-0.135825995765883,1.0438284859125366
1729841066.9213624,-1.1331337373526487,2.781436590385232,13.024294670809567,0.10490620766585708,0.04219201874953377,-0.004454819283486916,0.9935767085294213,-0.8096047601021176,0.024075537783054046,0.9698289711473815
1729841066.9293668,-0.828081325175261,2.671553609504577,11.567966745112694,0.11316759273325608,0.03458675231200278,-0.003941826630940377,0.9929659181071019,-0.9476365727475748,0.23750691487593698,0.7755863606536533
1729841066.9373446,-0.3912645018922659,2.590061510185168,9.805681753610584,0.12873706747689245,0.01911811261227981,-0.002482331031649919,0.9914913530940366,-1.013428057876368,0.42899356028950947,0.5764569224337822
1729841066.9453475,-0.25079985225840645,2.4046967559646166,8.770816254314788,0.13338527660609714,0.01366142783204326,-0.00183884102327539,0.9909683910387838,-1.029915685634694,0.5536764189512797,0.43314061605998583
1729841066.9533372,-0.6245318400659813,1.5280516326803324,8.787712277002935,0.0859209076767029,0.03481551054446423,-0.0030043321435557872,0.9956889332707837,-1.0117127182331955,0.5786803969572841,0.28712853356956153
1729841066.9613335,-0.8691217468618544,1.0140355670105432,8.911095629141213,0.05655464648320453,0.048206491936807656,-0.002733870422847618,0.9972312831278496,-0.9743981539816505,0.5472825670615253,0.15822934811348988
1729841066.9693854,-1.238297025167894,0.7925354478723415,9.327257057660509,0.042275136269375055,0.06565401843912856,-0.002784044424040766,0.99694263215736,-0.8830476254738744,0.46246190959745515,-0.014039046866186164
1729841066.977385,-1.5179812924933145,0.8664943998269206,9.509676848121694,0.045270725093770954,0.07866080582116249,-0.0035758120355312353,0.9958665837577522,-0.8001417643127147,0.38560242136982914,-0.22467397934242378
1729841066.985389,-1.7355912474198167,0.8490993681676368,9.690954772203094,0.04350633147799147,0.08807767659541535,-0.0038505903418721717,0.9951556134398779,-0.7448642768170125,0.3480005296624941,-0.4102258573713887
1729841066.9933836,-1.9858673033835303,1.06228078423066,9.699404477091386,0.05422993602228939,0.10007342799823807,-0.0054625582865785545,0.9934860761503734,-0.7057381234591227,0.3590689094935936,-0.6130803474031045
1729841067.0013764,-1.8293357042957432,1.2933797254212087,9.720754871313426,0.06579775898787762,0.09188057470167633,-0.006084628695221862,0.9935751567940415,-0.6826881215058509,0.3950825516331335,-0.7433068426513745
1729841067.009377,-2.1110669853215867,1.3511150740222564,9.83364273724118,0.06782857915644737,0.10434362107698893,-0.007133117985437115,0.9921999854958501,-0.6961022842674578,0.5248160125282134,-0.7439671486142467
1729841067.0173514,-2.2046884016421706,1.1800943605754632,9.815902457530253,0.05941431416141041,0.10928835607640705,-0.006544264352919947,0.9922112512479008,-0.7199013141985171,0.6618270076084838,-0.6920034546321403
1729841067.0253308,-2.20675229391499,1.3813061231812154,10.297266730865806,0.06624462511572696,0.10422302633076638,-0.006957643633087243,0.9923209166498548,-0.7290724514196083,0.8066100436915646,-0.6369865948010026
1729841067.033352,-1.8835763043275096,1.4364320552563856,10.399098145208937,0.06829601043248797,0.08844288597565288,-0.00607847789878251,0.9937185532059554,-0.7311696132605667,0.8487824088878999,-0.6133416602544847
1729841067.0413377,-2.0416183546179902,1.5468403281245344,10.89115329264294,0.0701747090455548,0.09139656839520786,-0.00645687294918549,0.9933179180341357,-0.734556360672452,0.8549297752399095,-0.5633967343637633
1729841067.0493426,-2.293742633864544,1.38946685678683,11.192132465087719,0.06139507421964851,0.0999632000502889,-0.006180039085064467,0.993075933961838,-0.7514875612707542,0.7802912237421016,-0.3861410175634675
1729841067.0573485,-2.4629737138636485,1.2272868670017854,10.839770679003802,0.055979270661069135,0.11062162067967161,-0.006240788887187642,0.9922652018732306,-0.7705857729204382,0.6529242209197826,-0.2006092360513522
1729841067.065366,-2.342809288132642,1.0715603526229462,10.038182898124937,0.052788465231941174,0.11360976508788474,-0.006045018703714676,0.992103652328729,-0.7701253781893118,0.4671016734306492,-0.006706295220448855
1729841067.073384,-2.083244642703804,0.908932016017127,9.487319541121055,0.047451120906749036,0.10726840448893432,-0.005125454242245085,0.9930838888240521,-0.7345168662492874,0.33900623254014983,0.1913679610788032
1729841067.081378,-1.7951065036398606,0.770893005996995,8.805811563539821,0.04341886088481605,0.09991399759890672,-0.004364168049653563,0.9940387063090175,-0.6948470864424052,0.22596531278157755,0.3685320532786528
1729841067.089388,-1.608576670738604,0.6387490457856969,8.011679729871938,0.039567232289772256,0.09852846683402912,-0.003920691488631855,0.9943395815970084,-0.6310303527808451,0.03341357291805895,0.5637997314441271
1729841067.097392,-1.7463740041521467,0.7864329870417306,7.644855065706365,0.05090012737924214,0.11134347187240054,-0.005710446917353698,0.992461182666698,-0.5710301194493452,-0.12213233677748318,0.6924539700028866
1729841067.105378,-1.5053563397471472,0.7313912521859759,7.511430367304677,0.04826868170592608,0.09816614860815175,-0.004767013045755984,0.9939873325251363,-0.4924609733042422,-0.2933611638423602,0.7253747467460909
1729841067.1133585,-1.3054396827545383,0.42853968417291355,8.059853484054681,0.026467925627090712,0.08006143285956058,-0.0021266389743798734,0.9964361962956512,-0.38614856707395806,-0.4820878524966169,0.6719085222205441
1729841067.1213434,-1.0681738072113165,0.5109091864803107,8.324024489114448,0.03058092871089571,0.06362183442706211,-0.0019504841353475838,0.9975035160814985,-0.301076620262686,-0.6285276904832093,0.6308892962145134
1729841067.129351,-1.2444825228521805,0.4015953177963895,8.073836868761637,0.024771759503374895,0.0762763196423353,-0.0018956079031542336,0.9967771514554318,-0.23470860996328963,-0.8066378863051155,0.6135144916557496
1729841067.1373403,-1.2295999885648239,0.46026606274814624,7.899064019450341,0.029007293907031037,0.0769747414800354,-0.0022404274217528576,0.9966084720486981,-0.18381986218563895,-0.9722492322800196,0.5673316437576805
1729841067.1453805,-1.0932989396720973,0.4928348878930283,7.909600829883096,0.031032966398499506,0.0684588960390122,-0.0021305143406187242,0.9971688901376105,-0.12561675952401652,-1.1878294266440967,0.36679177006525426
1729841067.1533382,-0.9542968906587272,0.448929838985817,7.564214692265795,0.02957500789355805,0.06257069094077472,-0.0018549796752537597,0.9976005145315907,-0.06387642405493506,-1.360172239470208,0.08257717218691635
1729841067.1613355,-0.5263700423542207,0.5762945562235214,7.070157650808696,0.0406253199408179,0.03699478097146917,-0.001505200361148708,0.9984882092105305,-0.009804620315004921,-1.478051389255584,-0.15733906655839752
1729841067.1693785,0.7069809238062176,0.566522126800519,7.666281804840686,0.03683323003631943,-0.04580814466793806,0.0016901867341622481,0.9982695379084632,0.06691022832100446,-1.5487788791268096,-0.4043058046793976
1729841067.177389,1.470933520104043,1.0983963620178114,7.672966333880974,0.07070801566631109,-0.09339562499250437,0.0066497501170532086,0.9930928529478867,0.12358138903916088,-1.488198378175733,-0.559722578596852
1729841067.185387,0.8624488181171134,1.02606893171264,8.969606527623505,0.05685152927291889,-0.0475250031151172,0.0027093273974933157,0.9972471796116005,0.1422592432574216,-1.1210888998490887,-0.629133999505451
1729841067.1933804,1.0367716309581587,0.4909034525334434,10.097862346749887,0.02425281273418049,-0.05105971735557592,0.0012403259071167468,0.9984003044519235,0.13260714277673846,-0.844206434678652,-0.6682267116818381
1729841067.2013843,1.64678128912177,0.6950920092642068,9.996460878508916,0.034584360910355716,-0.08130284661976958,0.002822857808115276,0.9960852376105871,0.1106396601527714,-0.7172404412308968,-0.7159466724910062
1729841067.2093885,2.0398415627797024,0.34738393724797717,11.52728526123621,0.015002753848035007,-0.08741168208634353,0.001316605451727401,0.9960584228657955,0.1532245686299173,-0.630418593625693,-0.7245712160877916
1729841067.2173471,2.6271465306853994,1.2417677988722238,12.32391502637063,0.04990479191631667,-0.10418014667497857,0.005234200574355296,0.9932918060302907,0.27072456699200365,-0.5102150752286456,-0.7003733280049826
1729841067.2253363,1.9095607895049898,0.6696433270284123,13.246256713576285,0.025185390266562236,-0.07141235648850335,0.001803729764060463,0.9971272326121767,0.3846449522783827,-0.17671926645272976,-0.7130987590888673
1729841067.2333446,1.7287245779510405,-0.18168094836303073,13.951932951485617,-0.006497685222681495,-0.061593220769202456,-0.0004009832063722207,0.9980801042273568,0.35551415937540487,0.2306892787448292,-0.719882637616274
1729841067.2413392,1.6321938593194523,-0.25529429045336527,13.069062268449963,-0.009746135108791092,-0.06206867698277747,-0.0006061273526736139,0.9980241103288443,0.34058982400239035,0.45640404315903516,-0.6745729176031224
1729841067.2493448,1.2510582040194056,-0.4419172944868629,11.656358286362948,-0.01891773761006286,-0.05338647426147439,-0.0010115756994065884,0.9983942008466646,0.41379340464075376,0.582042030393932,-0.47923951131772896
1729841067.2573442,0.985745525438987,0.08512132618874163,11.037621575821673,0.0038519005700174704,-0.04451937122850572,0.00017165566158738164,0.9990010805708626,0.4904936877563483,0.697865378573763,-0.2926519875281817
1729841067.265363,0.39105263630831405,-0.2740597897359738,10.355133333676596,-0.01322711707460382,-0.01886372795440896,-0.0002495789925562433,0.999734535190159,0.5535414600841861,0.785664060124529,-0.0998183615766674
1729841067.273377,0.2700657663553009,-0.3322694102185374,9.283883049522364,-0.017884406168859012,-0.01452863603199972,-0.0002599050419311912,0.9997344643456112,0.5981811644642814,0.7974770231546336,-0.0096595896934807
1729841067.2813778,0.10218441830927426,-0.5568159539924505,8.635626215211465,-0.032188753253824004,-0.005900816351489812,-0.0001900417134331679,0.9994643707579063,0.630073267829883,0.7960509997434557,0.022725480301867693
1729841067.2893772,-0.5312542599031073,-0.9970440120927361,8.542356019654223,-0.05803457218504233,0.030789518836254356,0.0017907280059896499,0.9978380566275971,0.676878383844276,0.8577718247316677,0.07025206635557082
1729841067.2973764,-1.2637439512055364,-1.431648005156032,8.873296890601127,-0.07969446104153191,0.06956368140483898,0.005575209161533124,0.994373473173692,0.7377395881854882,0.9590835190053617,0.12643787198282475
1729841067.3053823,-1.984077620723322,-1.7754891986014318,9.55453246785677,-0.09125254465334297,0.10010386912957112,0.009220104296931379,0.9907407219632859,0.8444951709314508,1.087555255342041,0.1665347062811076
1729841067.3133533,-2.094497119308993,-2.297589113643281,9.258899685792187,-0.1205812631858817,0.10705671987854934,0.01308135273612625,0.9868271864454972,0.9523945969096176,1.0688580333150914,0.18505883606107087
1729841067.321345,-2.500246613870552,-2.3127709559789373,9.638650742871796,-0.1165428606231541,0.12237536383352653,0.01447164976905909,0.9855113410394352,1.0426756561842394,1.0291184659809656,0.20043021454366916
1729841067.3293526,-3.0092132747188156,-2.1765520206088467,9.96945204850628,-0.10612043028922637,0.142069808839551,0.015321150296472925,0.9840324618858444,1.127919666235741,0.9950581641054013,0.12664347964813197
1729841067.3373408,-3.1005516428098043,-1.7953060317012455,9.867939363869395,-0.08881049749761989,0.1487415160453605,0.013413850538899812,0.9847886705037142,1.1590586393779263,0.9324786668953217,-0.004043643765982763
1729841067.3453646,-3.0471367486253356,-1.6987183699973099,8.77225779556773,-0.09415215740762149,0.16284336366739569,0.015612687669572398,0.9820252818276682,1.0589744961153307,0.7910625935725382,-0.22633915858861828
1729841067.353338,-2.9391916194877012,-1.8837772414808078,8.734228824069154,-0.10461947541704084,0.15734177222498083,0.016765409756918245,0.9818438028078845,0.8690885414118537,0.692165177550621,-0.39547443264501025
1729841067.3613348,-2.8796917856574646,-1.1657005294587972,9.70452628980282,-0.05909999035918894,0.14251222330698643,0.008524852150269005,0.9879902753789935,0.7415348866229825,0.609839464618521,-0.5041923281237
1729841067.3693728,-2.6639479205155725,0.11748128877003429,11.49721312861802,0.005074491032823536,0.11359005892041212,-0.0005801744128420411,0.9935145753600527,0.7595058873942309,0.4110268252860879,-0.571125825656762
1729841067.3773801,-2.609200693227313,0.3501315271682706,12.216089184543858,0.014243936526444836,0.10496624343449736,-0.001503593779926546,0.9943726349901356,0.8183914648021895,0.2206490014224688,-0.6031978130088205
1729841067.385387,-2.6522485494813095,0.321409293498228,10.934363530257563,0.01458437406369539,0.11864003544969193,-0.0017427887403746738,0.9928286864857766,0.8754330043815283,0.08386073384680967,-0.6437255084931572
1729841067.393385,-2.814786178028629,-0.39564919196746945,10.563005033437742,-0.018553387374112287,0.12973532680771077,0.0024279781502476437,0.9913720904469444,0.810046453747016,0.06606697258218097,-0.7357268455562223
1729841067.4013774,-2.645355270049599,-0.27904862406720043,10.336119792523583,-0.013384958133131895,0.12489525600147704,0.0016850665124969186,0.9920782118739169,0.694190312303143,0.021761200967903252,-0.7994414490233019
1729841067.409382,-2.4551112638364,0.05690752111632036,10.427437805689932,0.0027097408169440653,0.11535837357322509,-0.00031469338482377295,0.9933201920424848,0.4880301177075071,-0.17126707603231775,-0.7691341112081627
1729841067.4173462,-2.055815442383871,0.1536151755115891,10.198276296695209,0.007492056864026593,0.09928173087942839,-0.0007475389857238953,0.9950308780047963,0.3187851643736882,-0.34157237009959035,-0.6858191291153882
1729841067.4253356,-1.82629359648501,-0.01916127189031215,9.501015043153844,-0.0010036510055119977,0.09480943925606042,9.558621170639478e-05,0.9954949290558374,0.19425092905444713,-0.45014089746188446,-0.547286607075621
1729841067.4333563,-1.6165150189749904,-0.1352769889642654,9.252886029066135,-0.00728098275391609,0.08636008090203097,0.0006311612036035975,0.9962371832813042,0.054399808459211656,-0.49229475056031113,-0.43522016967234256
1729841067.441343,-1.4224131251545253,-0.29544724196254357,9.223958123787337,-0.015960379362407726,0.07637878074384548,0.0012227632836840988,0.9969503763942534,-0.07207987004413277,-0.5035392903911201,-0.3309452718831787
1729841067.4493434,-1.3334853079540432,-0.5062316532829949,9.348816959233341,-0.026974548542302437,0.07065347552876662,0.001911322888380369,0.99713429735992,-0.2067129056278998,-0.5179484353959221,-0.1670660985817169
1729841067.4573421,-1.2185976349677383,-0.7902407693135469,9.099796775881801,-0.04319956813421047,0.06620402700569929,0.0028689756353587805,0.9968663867841318,-0.3126084406044199,-0.5585206770084556,-0.02020992759416819
1729841067.4654202,-1.04216537663494,-0.8050231310217218,8.469389552345486,-0.047273874596706116,0.060839639068999016,0.0028847124829488773,0.9970232683004241,-0.4233973584126175,-0.6326697591670334,0.14750781649176095
1729841067.4733796,-0.5376714452192453,-1.3298430058102986,7.192122494835027,-0.09122764148725927,0.03652874777206666,0.0033486583118179395,0.9951542365394359,-0.49370191965069427,-0.7009978519040538,0.29581574982706593
1729841067.4813786,-0.1597971542409222,-0.8225660805857885,7.140910296217422,-0.05730748935899616,0.011095023859158717,0.0006369140790755403,0.9982947192334481,-0.5209855042423692,-0.7466772982223485,0.42438968554421785
1729841067.4893773,-0.009926452944943952,-1.123693525304598,7.903381987056625,-0.07055742857323087,0.0006201850873559242,4.386800490249474e-05,0.997507525144141,-0.480738876822924,-0.7434352815880589,0.580286708344985
1729841067.4973836,-0.21927923968688826,-0.768547660592915,10.320040220066007,-0.03715635829753218,0.010585515754219451,0.00039361311928373124,0.999253319715774,-0.44892847926494034,-0.7074348666905228,0.6606285301201222
1729841067.5053911,0.6551671217152107,-1.225357766277624,10.974202528035697,-0.05554470118098354,-0.029581120253004304,-0.001646339918799945,0.9980165494921235,-0.5043380014860057,-0.6194269681639242,0.6420002835356655
1729841067.5133488,0.7033888081853764,-0.7830986929696994,11.539561272680794,-0.03385637187943122,-0.030347844428060298,-0.0010285321155219314,0.9989653129830982,-0.5865380718867785,-0.4240160584581844,0.7002108156033027
1729841067.5213695,0.2118223791495071,-0.5105606440044759,12.298480070493243,-0.020742864228734524,-0.008601512191882384,-0.00017846500378027069,0.9997478260650751,-0.6409663948647866,-0.23014530157157487,0.7951594335100314
1729841067.5293472,0.4419309458002511,-0.06667680022104487,11.202388673399462,-0.0029753671829589835,-0.01971291724923727,-5.866482654722888e-05,0.9998012525707743,-0.6706435582213572,-0.0435839872983739,0.9185362538421455
1729841067.5373394,0.4679474480953851,0.29973113544354496,10.442980264586552,0.014342675071750084,-0.022376527088189047,0.0003210526930754082,0.9996466753970755,-0.6961122773416162,0.07856936274063543,0.9904338957341039
1729841067.5453653,-0.0999095951076127,0.08047931236964258,10.179350192443337,0.003952925126215134,0.0049070953276325055,-1.9397765520898947e-05,0.9999801470139889,-0.7054338479533031,0.19357899878732016,0.9858951939855314
1729841067.5533388,-0.20240075584386447,0.08491887282217617,9.996033031725768,0.004247287404779365,0.010122041420748325,-4.299380942802033e-05,0.9999397496743043,-0.6893165971857516,0.289828944348901,0.8256666501954362
1729841067.5613358,-0.2531215448149124,0.049035962365180694,10.284916731877257,0.0023836695131436037,0.01230250505032896,-2.9327409019786067e-05,0.9999214797318047,-0.6655984746969736,0.3641808240828687,0.6520539327352892
1729841067.5693576,-1.1567193636565256,-0.2818246384012041,10.674443361880261,-0.013177479858166563,0.05392159942784364,0.0007116481764824693,0.998457965412968,-0.6151839459794342,0.470942700896706,0.4793502023638141
1729841067.5773807,-1.3452544697564153,-0.4200071170250974,10.725242333046126,-0.019529510733081294,0.062289005871912884,0.001219074924988448,0.9978663196111704,-0.5713131467821255,0.5409594878454768,0.35572053125221353
1729841067.5853844,-1.2934150390315835,-0.09590232197287096,9.962283285569862,-0.004802673807176719,0.0645059697488048,0.00031045130455237464,0.9979057158925665,-0.5334970356042654,0.5693474780479542,0.24919028391413878
1729841067.5933905,-1.311871354961919,0.34803636804674615,8.923435114164182,0.0194362352060611,0.07285113731899974,-0.0014199954051064086,0.9971524096974306,-0.49122562607029596,0.5808463013704342,0.14270312936509078
1729841067.601384,-1.562604730701761,0.821498025662032,8.36117835365476,0.04873378736672736,0.09170611974619622,-0.004493529185084467,0.9945827334945313,-0.4556462188748255,0.5873199053024603,0.036667520550920825
1729841067.6093771,-1.7118476553155877,1.2046949689616724,8.962830188462387,0.06645121139088354,0.09319458540485744,-0.006233985365780295,0.9934083466441985,-0.46665101922865765,0.6154684011650117,-0.146572752008412
1729841067.617348,-2.0614037103768528,1.3340566652148937,9.70545703397587,0.06786437498549926,0.10326922781592181,-0.0070626099518380225,0.9923104417140832,-0.5090118646037676,0.6749265048287456,-0.2973831614443667
1729841067.625331,-2.372412073638221,1.5660996900469049,10.205860359301537,0.07555365576600492,0.11235720020923816,-0.008568216353548845,0.99075430371513,-0.5982818810481383,0.8200037128227282,-0.406174079748807
1729841067.6333473,-2.8417723076594945,1.8803416463035334,10.586786950444203,0.08701429729107397,0.12833512871106528,-0.011304436100935726,0.9878414936264293,-0.6867504759546473,0.9670723362852642,-0.4484613674125214
1729841067.6413407,-2.8636175679453064,1.7099959912000888,10.736094830178631,0.07821170694242131,0.1280230737309795,-0.010128053110027893,0.9886305902761786,-0.7270609310546918,1.0106160539092723,-0.44701526613864206
1729841067.6493459,-2.6770483056597616,1.8601374531184907,11.227426596593507,0.08143192667263373,0.1148710688318756,-0.00944873520399281,0.9899920203046336,-0.7018671569851227,0.8004843003722498,-0.35249579185266744
1729841067.6573486,-2.400864514401716,1.3993165282675786,11.425260489206103,0.060561864875712454,0.10244348122201376,-0.006248697214875539,0.992873882958459,-0.6675948397775899,0.5845846452815476,-0.2161800657876828
1729841067.6653404,-2.9395283680648574,1.4395768529957036,11.710836680486551,0.06064474368542257,0.12155116264540386,-0.007440615508491875,0.990702865224349,-0.5985027824463987,0.45291640191981614,0.004384329887930277
1729841067.673377,-3.037671724208055,1.147937848857969,10.646056078116152,0.05314709270574542,0.13757483307700133,-0.0073927502054400825,0.9890368542603264,-0.5123500915941706,0.32794092926487783,0.12991192630990558
1729841067.681436,-2.707739388284599,1.1357601592659532,9.4998563849068,0.05887213999954936,0.1372210439856884,-0.008170367120777301,0.9887556327629506,-0.43256293302633964,0.187399376206762,0.2069312444089389
1729841067.6893852,-2.2246305690059156,0.825587035500978,8.807108745494862,0.0463481824170875,0.12274591472808284,-0.005738755316405983,0.9913386672028974,-0.32637109946534276,0.032835584230657286,0.3557341400807085
1729841067.6973789,-2.006591327243393,0.64020142174004,8.340224246320354,0.038019871248820024,0.11736094333518908,-0.004496440838853264,0.9923510872617012,-0.2464797769931874,-0.08544409464272745,0.522917158731322
1729841067.7054138,-1.7871823207600983,0.6335966660323052,8.048361958680884,0.03902839754760339,0.1086294769303115,-0.004268202765922283,0.9933067015639541,-0.17598341025240652,-0.25134078567279133,0.7262439647955019
1729841067.7133787,-1.5245740860595747,0.6437596024025863,7.630711957923374,0.041858840650472996,0.09801402542061302,-0.004126290817149234,0.9942957618356513,-0.1294286895933177,-0.4441049237510145,0.8367464167745349
1729841067.7213452,-1.4120201364501979,0.5694121884435049,7.7251264166973845,0.03662426968076003,0.08997128115189748,-0.0033108083940982928,0.9952652259503568,-0.09596188639885797,-0.5912644711461388,0.8843175252576253
1729841067.7293468,-1.3198274895849624,0.5111567906051655,7.579465051678587,0.03353300101288926,0.08585546841154607,-0.00289131159030394,0.9957389299932947,-0.03118434802866882,-0.7519275100317587,0.8536892718042571
1729841067.7373374,-1.1086493733896494,0.6323055001443493,7.444423619630198,0.04223454011636282,0.07352449067259978,-0.003116511697147455,0.9963938379211985,0.03577771904993875,-0.9040907314146569,0.7961488340777294
1729841067.7453814,-0.8382904040630864,0.3334146282116095,7.889165444971478,0.021086324318899823,0.0528473177595006,-0.0011161646186677273,0.9983793277651979,0.10660464372236957,-1.1324608640351699,0.6981967522839699
1729841067.7533386,-0.8345711723694925,0.3118579944562626,8.03103321351609,0.0193778320741279,0.05170178491134482,-0.001003399648800731,0.998474044855565,0.15080355877167617,-1.4040010030294798,0.6670953572027464
1729841067.7613418,-0.7054469453650548,0.2172817375917263,7.593020811898716,0.014287653085487411,0.04628054877350469,-0.0006620175820170054,0.9988260787080266,0.17349169724810187,-1.6120482329410408,0.6709960934114999
1729841067.7693563,0.049826080827842165,0.8421651961194888,7.536832974199776,0.055610149932887584,-0.0032799238848343257,0.0001826807339943638,0.9984471543108834,0.21520012439045139,-1.7675262553132438,0.6337473594207831
1729841067.7773795,0.9765629849224865,0.9297910720173964,7.300810231297209,0.06315074745840102,-0.06577933727066894,0.004171429551704437,0.9958251157001273,0.26534089430212093,-1.780783337181704,0.5437133992538901
1729841067.7853873,0.11523774456677313,1.7521024312963753,8.070190317245123,0.10668888838403671,-0.006936841512896482,0.0007443505454091741,0.9942679755817689,0.3124529587076039,-1.387311858344084,0.32622803955233404
1729841067.7933874,0.9059161269646733,1.1300306933969657,8.831332996499418,0.06350475961198579,-0.05057632367529013,0.0032224910476198534,0.996693933232045,0.3300779458143429,-0.922633408036401,0.08846292824296845
1729841067.8013797,0.9505639584053663,1.2428105876690387,9.928706968309806,0.06215009510503381,-0.047247269268441146,0.0029454249054434796,0.9969435218191837,0.3389501778325382,-0.6365896068069368,-0.02226938393299853
1729841067.809383,1.2567559910100166,0.9307581409315014,9.62992952766557,0.04805356364486626,-0.06446849953705666,0.003108019688325919,0.996757246174858,0.3451248971663795,-0.5305195955344111,-0.021024051466115686
1729841067.8173478,1.8065446444106974,1.1677792070686663,9.599821826706764,0.06022039254803707,-0.09203979501325708,0.005576594789781862,0.9939170398206424,0.3696885417783238,-0.48220243098352883,-0.061143097886341015
1729841067.8253386,1.893645788111262,1.7268223557841686,11.151395814529918,0.07646479310351896,-0.08279108023640763,0.0063713240892963804,0.9936086647560366,0.4644564601003523,-0.3408299560270231,-0.1886572106737499
1729841067.833343,1.6973883420073823,1.3128631253845635,12.010035317087091,0.054276039310628264,-0.0696302309284773,0.0037940955699300705,0.9960880218818036,0.5455815445969052,-0.17469966931387165,-0.29666674289438555
1729841067.841338,0.949719417557945,1.4928102641467536,12.20367773566241,0.06077539305358813,-0.038465866885014736,0.0023438551947480625,0.9974072563535881,0.5661610512383428,0.062050702504793415,-0.37211471376331773
1729841067.8493502,0.9050198829566419,1.476280061075943,12.199434843301743,0.06013463876336645,-0.036682816578024996,0.002211406449329764,0.9975135617475174,0.5142295559424386,0.2709342652455314,-0.4224917770222214
1729841067.8573503,1.0115571946665634,1.4610946955811126,11.726189061498623,0.061882642734453895,-0.0426023990416293,0.0026438303165504753,0.9971702885091167,0.49371291030144693,0.3660404085261699,-0.45995474602241815
1729841067.8653643,1.1772331522491568,1.3277244101221048,10.03804231873511,0.06559112659968505,-0.05771517037557669,0.0038001621443109453,0.9961688220314764,0.5154581278338144,0.3860690591473563,-0.45901957404212446
1729841067.873387,1.0367397204510564,1.4990934131631066,9.203522296758644,0.08051606980254117,-0.055154531815295296,0.004462172398534185,0.9952161720657847,0.5263768080459248,0.41979644265463173,-0.4371739677808467
1729841067.8813787,0.7922715703077433,1.6897820159154422,9.39090384070167,0.08881967045919503,-0.041245375266448704,0.003681119402703111,0.9951865827665649,0.532502326111729,0.4766422180447317,-0.3823489780008009
1729841067.8893785,0.3647508254854272,1.5053988103793434,9.143963097878034,0.08147782594644683,-0.019603135740171685,0.0016028612472858833,0.9964810644382636,0.5127646835707997,0.5528929993635329,-0.32135844007627934
1729841067.8973942,0.05652362273266258,1.3210274759248715,8.86339930037721,0.07390909145736596,-0.003145088604505875,0.00023308930686739463,0.9972599963334494,0.4821917353419128,0.6416381643624788,-0.28604118750595253
1729841067.9053802,-0.8287166845146993,0.5429012524006259,8.203292000880623,0.0329929060632895,0.05018277069940111,-0.0016586717112842084,0.9981935716495997,0.49534903095277094,0.8030105389732023,-0.2878380992827061
1729841067.9133544,-1.1132580978670226,0.0161704767821724,7.579299623135795,0.0010638013328713217,0.07285448127149549,-7.770924460190908e-05,0.9973420109704889,0.5496436250186473,0.9189900165054279,-0.3046667786228534
1729841067.9213488,-1.1216560733198229,-0.2663491653467122,8.000736828324836,-0.01659645830011324,0.06953927144472222,0.0011570671568178136,0.9974404786724993,0.7099273998967826,0.8859863982124135,-0.35307609175852467
1729841067.929346,-1.4125625368141594,-1.1234756674209179,9.704724777658964,-0.05744011290533609,0.07161595004434625,0.004131109424525137,0.99576840834784,0.9069862093901653,0.798925197525604,-0.47662487328449854
1729841067.9373446,-1.967784478875605,-1.8022332227181759,11.250729450335612,-0.07903416468775373,0.0851338297541785,0.006774501012177945,0.9932068958578225,1.0699189515397083,0.77010143049393,-0.607370920374533
1729841067.94535,-2.790053043282394,-2.4278389473027806,12.221427883824413,-0.09727579718945736,0.10939116409163054,0.010757628812901737,0.9891689774361898,1.2153558837131815,0.7783485739626474,-0.7139140926850478
1729841067.9533424,-3.1390438218190453,-2.390681436008621,12.290051267648163,-0.09516079640669689,0.1219522454993601,0.011747288340019122,0.9878937563632859,1.2834619902514741,0.772228918445865,-0.7710289550879641
1729841067.961338,-3.086991467651974,-2.2726188628258757,11.325660600676787,-0.09797706831316066,0.12956042410582536,0.01286590044010927,0.9866352209383882,1.2438702325581257,0.7132174171457315,-0.7869931998868465
1729841067.9693801,-2.7184170412357154,-1.6412987102736503,9.804189586724432,-0.08207219019194271,0.13261652864522425,0.011019646688183938,0.9877021713624282,1.1132669725151465,0.590969743827397,-0.8255186709455941
1729841067.9773812,-2.6459523084816636,-1.3118271729415338,9.645241081136222,-0.06691902844771203,0.13201479603233945,0.008933048043667957,0.9889459732021783,0.9804166886222192,0.47547782375165515,-0.8716212168997923
1729841067.985388,-2.720747030840951,-0.5627596082082796,11.040023091064544,-0.025269658052635525,0.12033226899213743,0.003064019545256456,0.9924072758728308,0.8687797636768103,0.34573468297860155,-0.8873634227513744
1729841067.9933786,-2.899699157225274,-0.5639078218097334,12.018389615136773,-0.023270413643273972,0.11794054649188733,0.0027645848192960902,0.9927441122529224,0.8111627900617296,0.22659686255295236,-0.8797811438038424
1729841068.0013785,-2.78967692231368,-0.40107277658193374,11.300330204628938,-0.017602767066984274,0.12062703370704772,0.002139330020421949,0.992539512864696,0.7536053425737317,0.1287213864869169,-0.8147837877077146
1729841068.0093591,-2.445457348456568,-0.7573123842108791,9.909180272435567,-0.037840689740874185,0.12025810083717779,0.004587299256940314,0.9920105987682276,0.6424466630177671,0.07723283189215013,-0.626793852538327
1729841068.0173464,-2.1278346471110496,-0.9145529896085587,8.793889878549232,-0.05141428672910002,0.11765662711338426,0.006099837481902912,0.9917037265227626,0.5382907298755296,0.012284494218327544,-0.4399298207423009
1729841068.0253391,-1.6164380038428015,-0.6308529107084945,8.301647144902976,-0.03773240211749123,0.09566799827381246,0.003629049008622695,0.994691273682452,0.40385554960310377,-0.12331615233784719,-0.19584748261145546
1729841068.0333433,-1.3390486983017746,-0.4812229976457998,7.989063252762097,-0.029969275259972665,0.08275349414281587,0.0024897318413708703,0.9961162095774293,0.2899906166456098,-0.2425629557416728,0.019989400285362946
1729841068.0413413,-1.155137442858018,-0.2628764206577924,8.047636848141634,-0.016282900127137383,0.07117463023855124,0.0011620316941693236,0.9973302807276018,0.17654851035613808,-0.3464634824550826,0.30231426208832335
1729841068.0493438,-0.8568458592694981,-0.35907821201381607,8.193871962400605,-0.02186478427254708,0.052010871291419764,0.0011390215320381402,0.9984064819031234,0.06463717025186577,-0.4432846934615531,0.6143153497598801
1729841068.0573483,-0.7537671017433395,-0.2762596493762584,8.690063834178643,-0.015873677004122812,0.043220538927950566,0.0006867974246422767,0.9989392072105509,-0.026773967314033413,-0.5277702038760813,0.8538758799226441
1729841068.0653641,-0.6641471079698318,-0.2981551414323957,8.508938625214219,-0.017498256416399096,0.03890788552477119,0.0006814407136252685,0.9990893469079385,-0.12802086655293435,-0.6440177795899511,1.061891397301069
1729841068.0733783,-0.5641670196647116,-0.2344385633750624,8.48022983528478,-0.013810772807359054,0.03319280225005759,0.00045871483922357744,0.9993534359844611,-0.21047919923083852,-0.7452673895664632,1.2011741698178335
1729841068.0813768,0.5308344110039074,-0.6166304280640998,7.474438695848603,-0.04111775298303726,-0.035293576699305614,-0.0014533293843327028,0.9985297099571433,-0.2757047311116762,-0.8843441268613843,1.3145421376302342
1729841068.0893807,-0.27167006262617116,-0.2148339892603349,9.159341958964239,-0.011723830585913468,0.014820235005360293,0.00017378095735101192,0.999821425170994,-0.2743994944012858,-0.9724727599144194,1.3331828711880789
1729841068.097382,1.163146261984844,-0.3731089628921384,11.190692664392218,-0.01664034894509676,-0.051724580715157446,-0.000861988772556477,0.998522370060973,-0.2953265455096152,-0.953834009420619,1.2315594450353473
1729841068.1053834,-0.40272674598292174,0.22648395454010764,13.733017765383376,0.008244202622350993,0.014655502599324351,-0.00012084001884733191,0.9998586073862508,-0.3921694083440951,-0.6966019035992846,1.0726766752074413
1729841068.113353,-0.7954148915838937,1.9784679703803145,16.08489123906401,0.06113613970660472,0.024472558285762544,-0.0014994140937132948,0.9978282507877295,-0.4460182254301627,-0.3796490366279879,1.0067196275515777
1729841068.1213467,-1.4093116412491644,2.956874649415689,15.777936211944265,0.0924037685252408,0.043582766990437685,-0.004048429266255034,0.9947591146625735,-0.4808816560505754,0.08381570301341443,0.9492664163766543
1729841068.1293452,-1.6153228184897328,3.1797605843271475,13.179450241570855,0.11787885285169501,0.058843692348175415,-0.006997597809171585,0.991258306167521,-0.5975799782517801,0.49556122609733366,0.7645258979756031
1729841068.137344,-1.1286475216602458,3.440863673594335,10.554460080245248,0.1567118544461942,0.05001154507500403,-0.007945900653158438,0.9863453262919918,-0.7118707379645542,0.7690013237583313,0.541725100770458
1729841068.145348,-1.077259610408257,3.3078271262757415,9.549525398733087,0.16571112032996343,0.05233572372012421,-0.008806959253247537,0.9847452635531642,-0.796195726066314,0.964140756841658,0.15688748618477227
1729841068.153345,-0.9281533016453448,3.3067744325037265,8.561337542706648,0.18301252234518647,0.049519747089883576,-0.009230552333000209,0.9818192339818131,-0.8280603562230404,1.0854813173062745,-0.1544705041829631
1729841068.1613464,-1.4118613938290039,2.705198199541298,8.596902764881802,0.15136415129317662,0.07671871230719814,-0.011784206617805569,0.9854259309352532,-0.8195092803220443,1.074850401538486,-0.4081186380531433
1729841068.169371,-1.6807778543638086,1.9810520679181383,8.77218906493494,0.11033348159862202,0.09168294605417524,-0.010221965185088168,0.9896040984499349,-0.7645728975903888,0.9113922193983235,-0.567969939481568
1729841068.1773796,-1.9453178222374259,1.9435230241981485,9.028913810054714,0.10521861535219725,0.10302995332129834,-0.010960835188861057,0.9890367696875279,-0.7141577754314523,0.7243480872686613,-0.6911248842721929
1729841068.185407,-2.240511297590502,1.4826272739915451,9.384061596579704,0.07772338230959072,0.1151871560377248,-0.009040818543220367,0.9902571678742682,-0.7056188952706539,0.47675216844593793,-0.8493044833160499
1729841068.193381,-2.487298651112895,1.3162231002347708,9.757801199891182,0.06645647062442503,0.12312711563340704,-0.008264171189574038,0.9901287564668001,-0.7260369708618968,0.302653213464582,-0.9591113948935354
1729841068.201379,-2.452932896722424,1.178791629916253,9.792663610559709,0.05940100582238841,0.1213540002121153,-0.007275457614165514,0.9908036106395207,-0.757018178920972,0.21820127336448394,-0.9986027580293807
1729841068.209377,-2.451227637203376,1.5636809117876425,9.111601130203013,0.08413559913843097,0.12876291621013372,-0.010964693679301005,0.98803901130431,-0.7985941670753668,0.24245156012174263,-0.9260916220204687
1729841068.217351,-2.092510753464604,1.5535183737327416,8.192519848043682,0.09282803832145461,0.12208709671600163,-0.01146956722117428,0.9881022948787272,-0.8286480407055481,0.3004221184452251,-0.8378874839616082
1729841068.2253344,-2.1746404694127466,1.8639343103724575,8.542009163464881,0.10638493803465822,0.12088908365587504,-0.013031981046381556,0.986862828300981,-0.8424234642690365,0.40884883407224604,-0.7526125564551774
1729841068.2333462,-2.2792243573312416,1.7470779421805056,8.971251044953929,0.09527325883840694,0.12132800084329255,-0.011700180252063774,0.9879603373333107,-0.8672906308041488,0.4939122963371741,-0.6742034360177489
1729841068.2413423,-2.340538169086245,1.5570146180915063,10.334917340839544,0.0742245330840161,0.10962392901980396,-0.008209323167768783,0.9911639218049898,-0.9426589194528245,0.5679376370150806,-0.5173299278980877
1729841068.2493474,-2.072544584801356,1.336195229595138,10.864136977990055,0.060871805628280096,0.0932524873804984,-0.005712070397099422,0.9937635378341678,-1.0568416825988791,0.6276776836344576,-0.26697757046972537
1729841068.257346,-2.010628962794876,1.3392154104621607,10.615918907985439,0.0624219308988828,0.09255527855966635,-0.00581392105442133,0.9937319665159065,-1.1508927441742338,0.6835291444947994,-0.026945553044219306
1729841068.2653613,-2.3919860397863006,1.1724757221073745,10.5134355781897,0.055145963408129814,0.11078796804931292,-0.00615695579349267,0.992293827830573,-1.1962554395214338,0.7532236762352771,0.25712568763209276
1729841068.2733731,-2.823828586762405,1.0681223461062215,10.731827754384524,0.04915778148490176,0.12753553501683196,-0.0063288881420628966,0.990594844021681,-1.2051683840868863,0.745234658088506,0.4594951866475323
1729841068.2813756,-2.7518160253484587,0.8503660529274049,10.606204642132667,0.03965887069947976,0.12610082660882277,-0.005045357342430478,0.9912115313457066,-1.1709269751101892,0.5318531170840479,0.6405134946614806
1729841068.2893872,-2.1031148886465756,1.1097277274595678,9.563094463746397,0.05738367825732442,0.10715152511085976,-0.0061948007146620365,0.9925660122028067,-1.08738000062779,0.29655029699294105,0.8019100470911413
1729841068.2973852,-1.8154083570160704,1.0948775739757406,8.886950121851354,0.060934391948508464,0.09966276683930554,-0.006114869250563335,0.9931349058198732,-1.0074535116360084,0.1617539558602074,0.9208838617449634
1729841068.3053966,-2.020350039844408,1.1963401784186474,8.484615399038546,0.06949365872260778,0.11523721088872932,-0.00808203483884012,0.9908711810002327,-0.9062863605581855,0.045118186017756585,1.0467564784043968
1729841068.3133538,-2.151934175517973,0.7910666778519697,7.9633323912785965,0.04904265538507284,0.1308086359591405,-0.006478872788951301,0.9901726833833958,-0.824727256899852,-0.09212230559871493,1.1239828086459047
1729841068.3213463,-2.1650441112678145,0.7004132232639163,7.677377645216376,0.045030579193268104,0.13632403841626942,-0.006203133352655438,0.9896208994478681,-0.7455678003410479,-0.26769272402878275,1.107742167755891
1729841068.3293462,-1.6682123627567824,0.5162554205306153,7.88911648337006,0.03248340500355964,0.10373519072361166,-0.0033897784021262515,0.9940685831507275,-0.6648683016117268,-0.407515870065248,0.9570943728779502
1729841068.3373382,-1.056233476003679,0.4227595706777443,7.951995181770082,0.026493827176907722,0.06586359557153319,-0.0017493953910797042,0.9974753147400067,-0.6002723800385771,-0.5271677228499377,0.7943383855026405
1729841068.345353,-0.9540842677311135,0.4178979762933653,7.937768224784705,0.026247297057288448,0.05967276024562634,-0.0015695893410823723,0.9978716237428313,-0.5210742712557941,-0.6691976946619869,0.5698291547617692
1729841068.3533456,-1.1013297073671837,0.33740888587367546,8.283334476130587,0.0203079147239938,0.06597523904753219,-0.0013430244157114322,0.9976136790950707,-0.4565278035276431,-0.7727203503920836,0.34785715371752995
1729841068.3613367,-1.0594324008363258,0.15719492014725214,8.459549605356088,0.009271032732096524,0.06223964188500489,-0.0005781716898695129,0.9980180061740388,-0.39098144901864457,-0.8752744996690347,-0.009239019238042212
1729841068.3693528,-0.4118015852771861,0.2868107655649138,7.613583522979277,0.018818314604315357,0.026990371643442396,-0.0005081885297931977,0.9994584196545747,-0.33036913324014383,-1.0317358729412383,-0.37419100476894473
1729841068.377382,0.010774567632516488,0.20560528258113578,7.262345241961393,0.014151314079628555,-0.000741438508348099,1.0493382840908366e-05,0.9998995901932588,-0.2803796618062584,-1.1801010247717008,-0.6246632606356766
1729841068.3853912,0.6275206512240412,0.2919149664236815,7.473460605870195,0.01950116403346242,-0.04183306558391995,0.0008166640804252329,0.9989339479089552,-0.2227161249508951,-1.3261625841058904,-0.7872916259381146
1729841068.3933854,1.148163585802784,0.18161332433663074,7.6695616723600075,0.011803424449016067,-0.07420619103652466,0.0008783706064857848,0.9971726775479786,-0.18513817240744287,-1.414225209767866,-0.8674153525996342
1729841068.4013822,1.1959900631027642,0.4017788576390878,8.233980342039052,0.02431007971147947,-0.07195270338550713,0.0017542453728791414,0.9971102000897948,-0.1510977692218967,-1.4449269019690258,-0.8554672899303994
1729841068.4093754,1.4432765610550178,0.8748124940268119,8.407910469627728,0.05162080814828821,-0.08433825115477207,0.004375092359964647,0.9950895487970487,-0.1391873285398096,-1.4488744552000128,-0.8351020604235355
1729841068.4173503,1.5662699222287135,-0.7792341478710222,11.795916123085231,-0.03290154018528456,-0.06577896818254877,-0.0021701119323347096,0.9972892793028894,-0.09160050829166437,-1.4227217530206486,-0.8228829227194171
1729841068.425333,2.2898522694993373,-1.2842026750019102,13.952739161155828,-0.045717824799359305,-0.08082238509332594,-0.003711083124244233,0.9956725618522819,0.06465860229583226,-1.2793231132744207,-0.7495694805703312
1729841068.4333487,2.286820454717181,-2.838393578878099,15.477155183705216,-0.0903189274772766,-0.07180139667252007,-0.006528769419011757,0.9932997664074543,0.21077394620816012,-1.0336501563784222,-0.6319370346479483
1729841068.4413817,1.7295465806916364,-3.506109417590531,15.775297869744614,-0.10897006241190395,-0.0529660756486551,-0.005814652588644296,0.9926158925503863,0.38315547478650114,-0.44352871832031016,-0.3851218816492374
1729841068.4493508,1.447615272633732,-2.771408493571897,13.831963129805752,-0.09857685455218411,-0.05085803648260747,-0.005044620248006549,0.9938161880741754,0.5104230353753795,0.14552505844159846,-0.1246506136240345
1729841068.4573495,1.3158060336974264,-2.475915979932201,11.51052056465103,-0.10556761962013317,-0.05530720524547861,-0.00588066451797355,0.9928554821929022,0.6038111741871877,0.5202418275718452,0.07675529370606254
1729841068.4653592,1.314771464456737,-1.8063726104202578,9.617027458419523,-0.09248533983655632,-0.06644472991677505,-0.006185521703577536,0.9934753641147113,0.7381710287832866,0.7557141405865441,0.2827368503965271
1729841068.4733763,1.0852650442013858,-1.331384017912311,8.458904939407184,-0.07781643552526255,-0.06279958343844447,-0.00491151654954038,0.9949757241698333,0.8434769651057437,0.8987002886412114,0.43229287815998974
1729841068.4813766,0.713408269684894,-0.9494256951712148,8.049659686056419,-0.05860933384021695,-0.0438051145376472,-0.0025742977038332527,0.9973161138367722,0.8913356846865848,0.9487340123112011,0.5288375358014599
1729841068.489385,0.06484456996523326,-0.9486575399054632,7.819435424670961,-0.06032803469027793,-0.004108588115452054,-0.00024831743776714313,0.9981701188036818,0.8698194891825697,0.9259686788919032,0.5531348155308414
1729841068.4973733,-0.7032957726692974,-1.0049392260917154,8.235797972331873,-0.06061661508168322,0.042191589134216,0.0025645234398939346,0.9972657213611099,0.8317940582539008,0.9110324086559383,0.548131440541217
