Time,Denoised_Gyro_x,Denoised_Gyro_y,Denoised_Gyro_z
1729090161.469684,-1.3206460353161716e-259,0.016806784332960525,0.0036093970449929242
1729090161.477716,-7.9238762118970299e-260,0.016682266552437805,0.0030170183499198177
1729090161.485724,-4.7543257271382173e-260,0.016607555884124173,0.0018102110099518904
1729090161.49373,-2.8525954362829305e-260,0.016562729483135991,0.0010861266059711344
1729090161.501838,-1.7115572617697582e-260,0.016961523704005117,0.00065167596358268055
1729090161.511576,-1.026934357061855e-260,0.016987955205795574,0.0012423857010736715
1729090161.517864,-6.1616061423711284e-261,0.016152433983945787,0.001596811543568266
1729090161.526106,-3.6969636854226771e-261,0.015438276220104897,0.0018094670490650228
1729090161.534079,-2.2181782112536061e-261,0.01564831665399341,0.0019370603523630766
1729090161.542116,-1.3309069267521636e-261,0.016412876006519569,0.001162236211417846
1729090161.550065,-7.9854415605129806e-262,0.016871611618035263,0.00069734172685070764
1729090161.558497,-4.7912649363077887e-262,0.016508317892751631,0.0012697851590344877
1729090161.566001,-2.8747589617846731e-262,0.015864651596119418,0.0024646313412688189
1729090161.57406,-1.7248553770708039e-262,0.015904141879602124,0.0033943840813404338
1729090161.581827,-1.0349132262424823e-262,0.016566371141884799,0.0039522357253834019
1729090161.589795,-6.2094793574548945e-263,0.016750863668523384,0.0032227215581541041
1729090161.597959,-3.7256876144729365e-263,0.016648714153775519,0.0019336329348924623
1729090161.60563,-2.2354125686837615e-263,0.016800269475657815,0.0011601797609354773
1729090161.613655,-1.3412475412102569e-263,0.016678357638056175,0.0015474879794853496
1729090161.621687,-8.0474852472615415e-264,0.016392365504764181,0.0017798729106152729
1729090161.629641,-4.8284911483569246e-264,0.016433615255519996,0.0010679237463691637
1729090161.637653,-2.8970946890141542e-264,0.016458365105973486,0.0014921343707455614
1729090161.646265,-1.7382568134084928e-264,0.016260369985514563,0.0017466607453713997
1729090161.653652,-1.0429540880450955e-264,0.016141572913239213,0.0010479964472228397
1729090161.661763,-6.2577245282705739e-265,0.015857449639142984,0.00062879786833370383
1729090161.669651,-3.754634716962344e-265,0.015474130643954233,0.0003772787210002223
1729090161.677668,-2.2527808301774062e-265,0.015456984277571998,0.0010777473555241967
1729090161.685636,-1.3516684981064436e-265,0.015872386519204688,0.0023494086591626445
1729090161.693732,-8.1100109886386615e-266,0.015908782833453289,0.00226102531842165
1729090161.701676,-4.8660065931831972e-266,0.015079240499078383,0.0013566151910529901
1729090161.70963,-2.9196039559099179e-266,0.014581515098453441,0.00081396911463179396
1729090161.717708,-1.751762373545951e-266,0.014921414950271522,0.0004883814687790764
1729090161.725672,-1.0510574241275703e-266,0.015125354861362371,0.00029302888126744582
1729090161.733675,-6.3063445447654213e-267,0.015034873777285865,0.0010271974516845306
1729090161.741723,-3.7838067268592526e-267,0.01498058512683996,0.0014676985939347815
1729090161.749775,-2.2702840361155516e-267,0.015160856967303432,0.00088061915636086893
1729090161.757748,-1.362170421669331e-267,0.015269020071581516,0.00052837149381652134
1729090161.765696,-8.1730225300159868e-268,0.015546762964879383,0.00031702289628991276
1729090161.773631,-4.9038135180095925e-268,0.016139098762320135,0.00019021373777394765
1729090161.781617,-2.9422881108057549e-268,0.016281655210053571,0.00011412824266436858
1729090161.790047,-1.765372866483453e-268,0.015941499017231603,6.8476945598621147e-05
1729090161.797682,-1.0592237198900717e-268,0.015950250332269433,4.1086167359172683e-05
1729090161.805689,-6.3553423193404302e-269,0.016381191182754169,2.465170041550361e-05
1729090161.813622,-3.8132053916042581e-269,0.016426910662313991,0.00086617114317336531
1729090161.821628,-2.287923234962555e-269,0.016454342350049885,0.0022224629317521456
1729090161.829688,-1.3727539409775329e-269,0.016896491424153455,0.0021848578819753505
1729090161.837651,-8.2365236458651979e-270,0.017161780868615591,0.0013109147291852103
1729090161.845722,-4.9419141875191179e-270,0.016895264473830843,0.00078654883751112618
1729090161.853733,-2.9651485125114704e-270,0.016522509606228978,0.001323309425430739
1729090161.862293,-1.7790891075068824e-270,0.016511701716398874,0.0016453657781825065
1729090161.869684,-1.0674534645041294e-270,0.016505216982500813,0.0009872194669095038
1729090161.877686,-6.4047207870247753e-271,0.016501326142161977,0.0014437118030697655
1729090161.885619,-3.8428324722148648e-271,0.016711836668689691,0.0017176072047659224
1729090161.893699,-2.3056994833289189e-271,0.016625297953875302,0.0010305643228595534
1729090161.901699,-1.3834196899973513e-271,0.016360529694255655,0.0014697187166397951
1729090161.909748,-8.3005181399841076e-272,0.016414513769214885,0.00173321135290794
1729090161.917629,-4.9803108839904648e-272,0.017085439306383468,0.0010399268117447639
1729090161.926574,-2.9881865303942789e-272,0.017700839659415636,0.00062395608704685838
1729090161.933751,-1.7929119182365675e-272,0.017644389809772905,0.00037437365222811494
1729090161.941802,-1.0757471509419404e-272,0.017184829838525234,0.00022462419133686897
1729090161.949684,-6.4544829056516415e-273,0.016483403794314597,0.00013477451480212139
1729090161.958342,-3.8726897433909849e-273,0.016062548167788217,0.00093224483180533602
1729090161.965684,-2.323613846034591e-273,0.016022879822603406,0.0014107270220072646
1729090161.975842,-1.3941683076207546e-273,0.015999078815492514,0.00084643621320435879
1729090161.981732,-8.3650098457245272e-274,0.015984798211225983,0.00050786172792261527
1729090161.989666,-5.0190059074347155e-274,0.016189074879397081,0.00030471703675356913
1729090161.997659,-3.0114035444608293e-274,0.016524485911030753,0.00018283022205214147
1729090162.005679,-1.8068421266764977e-274,0.016725732530010959,0.00010969813323128487
1729090162.013633,-1.0841052760058984e-274,0.016633635470668061,6.5818879938770922e-05
1729090162.021612,-6.504631656035391e-275,0.016152687173600293,3.949132796326255e-05
1729090162.029678,-3.9027789936212341e-275,0.015864118195359635,2.369479677795753e-05
1729090162.037674,-2.3416673961727404e-275,0.015903821839146254,1.4216878066774517e-05
1729090162.04706,-1.4050004377036441e-275,0.015927644025418228,8.5301268400647097e-06
1729090162.053729,-8.4300026262218638e-276,0.016154782367912426,5.1180761040388262e-06
1729090162.063428,-5.0580015757331186e-276,0.016503910404139961,3.0708456624232955e-06
1729090162.069668,-3.0348009454398708e-276,0.01671338722587648,1.8425073974539775e-06
1729090162.077696,-1.8208805672639225e-276,0.016626228288187377,1.1055044384723865e-06
1729090162.08563,-1.0925283403583533e-276,0.016361087894842898,6.6330266308343178e-07
1729090162.093702,-6.5551700421501191e-277,0.016414848689567225,3.9798159785005907e-07
1729090162.101678,-3.9331020252900717e-277,0.016659950197132841,2.3878895871003544e-07
1729090162.109765,-2.359861215174043e-277,0.016594166070941194,1.4327337522602126e-07
1729090162.117683,-1.4159167291044257e-277,0.016554695595226206,0.00085146608694919876
1729090162.12663,-8.4955003746265529e-278,0.016531013309797213,0.0013622597750935824
1729090162.133667,-5.0973002247759318e-278,0.016303958907808801,0.0016687359879802126
1729090162.141653,-3.0583801348655588e-278,0.016167726266615754,0.0018526217157121905
1729090162.149668,-1.8350280809193352e-278,0.015873141651168911,0.0019629531523513775
1729090162.158191,-1.1010168485516012e-278,0.015483545851169789,0.0030933771679899687
1729090162.165676,-6.6061010913096066e-279,0.015675478432632346,0.0029202514544490604
1729090162.175704,-3.963660654785764e-279,0.016429173073702931,0.0017521508726694363
1729090162.181692,-2.3781963928714581e-279,0.017094234889076295,0.0010512905236016617
1729090162.189763,-1.4269178357228747e-279,0.017280426947569295,0.00063077431416099709
1729090162.197894,-8.5615070143372477e-280,0.017392142182665098,0.0003784645884965982
1729090162.209801,-5.136904208602349e-280,0.017672016354453597,0.00022707875309795891
1729090162.214573,-3.082142525161409e-280,0.017627095826795676,0.00013624725185877536
1729090162.221663,-1.8492855150968455e-280,0.017387298479469911,8.1748351115265203e-05
1729090162.229699,-1.1095713090581072e-280,0.017243420071074451,0.00090042913359322232
1729090162.237658,-6.6574278543486433e-281,0.016944247995306159,0.0022430177260040597
1729090162.247004,-3.9944567126091858e-281,0.016339054688383155,0.0021971907585264989
1729090162.25364,-2.3966740275655111e-281,0.015763093673498336,0.0013183144551158991
1729090162.261995,-1.4380044165393068e-281,0.015417517064567444,0.0007909886730695394
1729090162.269677,-8.6280264992358402e-282,0.015210171099208908,0.00047459320384172371
1729090162.277947,-5.1768158995415029e-282,0.015511453581455817,0.00028475592230503419
1729090162.285647,-3.1060895397249016e-282,0.016330758162997012,0.0001708535533830205
1729090162.293798,-1.863653723834941e-282,0.017035185942652742,0.00010251213202981229
1729090162.301717,-1.1181922343009646e-282,0.017244997579715166,6.150727921788737e-05
1729090162.309842,-6.7091534058057881e-283,0.016519504439028557,3.6904367530732422e-05
1729090162.317632,-4.0254920434834727e-283,0.015658518493154562,2.2142620518439453e-05
1729090162.326251,-2.4152952260900833e-283,0.01578046201782321,1.3285572311063672e-05
1729090162.333666,-1.4491771356540502e-283,0.016279318194086435,0.00085935146631070138
1729090162.341801,-8.6950628139242999e-284,0.016578631899844366,0.0013669910027104839
1729090162.349726,-5.2170376883545799e-284,0.016545375092568107,0.00082019460162629045
1729090162.358332,-3.1302226130127478e-284,0.016312575977471336,0.0013434968838998375
1729090162.365731,-1.8781335678076486e-284,0.016385741539144291,0.0016574782532639658
1729090162.374387,-1.126880140684589e-284,0.016216795845417048,0.0018458670748824426
1729090162.381734,-6.7612808441075348e-285,0.01568973836771867,0.0019589003678535289
1729090162.389661,-4.0567685064645203e-285,0.015586348911830659,0.0011753402207121172
1729090162.398186,-2.4340611038787122e-285,0.015950005299759887,0.00070520413242727018
1729090162.40568,-1.4604366623272274e-285,0.016381044163248433,0.0004231224794563621
1729090162.413832,-8.7626199739633638e-286,0.016213977419879531,0.00025387348767381724
1729090162.42164,-5.2575719843780183e-286,0.015688047312396161,0.00015232409260429035
1729090162.430128,-3.1545431906268105e-286,0.015798179309368172,9.1394455562574209e-05
1729090162.440562,-1.8927259143760863e-286,0.016077103538282393,5.4836673337544523e-05
1729090162.447316,-1.1356355486256516e-286,0.016244458075630925,0.00088428212692658991
1729090162.453648,-6.8138132917539101e-287,0.01613202576730903,0.0013819493990800172
1729090162.461942,-4.0882879750523453e-287,0.015426031290122844,0.00082916963944801021
1729090162.46967,-2.4529727850314074e-287,0.014789589573080117,0.0013488819065928693
1729090162.477983,-1.4717836710188444e-287,0.014620569573585497,0.0016607092668797846
1729090162.48568,-8.8307020261130667e-288,0.015157692666081772,0.00099642556012787074
1729090162.494236,-5.2984212156678391e-288,0.015692811552310552,0.00059785533607672244
1729090162.502412,-3.1790527294007033e-288,0.01558819282258579,0.00035871320164603345
1729090162.51037,-1.9074316376404222e-288,0.015738266615481951,0.00021522792098762006
1729090162.517624,-1.1444589825842531e-288,0.016254000952681674,0.00098051687551663517
1729090162.525984,-6.8667538955055191e-289,0.016350596524270497,0.0014396902482340444
1729090162.533629,-4.1200523373033114e-289,0.016408553867223785,0.00086381414894042647
1729090162.542195,-2.4720314023819866e-289,0.016656173303726776,0.00051828848936425593
1729090162.549611,-1.4832188414291918e-289,0.016804744965628574,0.00031097309361855353
1729090162.558161,-8.8993130485751502e-290,0.016893887962769645,0.00018658385617113208
1729090162.565703,-5.3395878291450897e-290,0.016947373761054291,0.00011195031370267924
1729090162.575272,-3.2037526974870538e-290,0.016766620209294064,6.7170188221607553e-05
1729090162.581645,-1.9222516184922324e-290,0.016658168078237924,4.0302112932964529e-05
1729090162.589741,-1.1533509710953393e-290,0.017018786861066275,0.0008755613906838419
1729090162.597702,-6.9201058265720358e-291,0.017235158130763286,0.0022280970802584315
1729090162.605655,-4.1520634959432215e-291,0.016939290831119461,0.0030396184940031847
1729090162.61367,-2.4912380975659325e-291,0.016761770451333164,0.0035265313422500372
1729090162.621659,-1.4947428585395595e-291,0.016868103254192402,0.0040315240819291647
1729090162.629633,-8.9684571512373572e-292,0.016931902935907947,0.0043345197257366411
1729090162.637673,-5.3810742907424143e-292,0.016970182744937272,0.003452091958366048
1729090162.645746,-3.2286445744454486e-292,0.016780305599623853,0.0020712551750196287
1729090162.653655,-1.9371867446672693e-292,0.016240689250973772,0.0012427531050117771
1729090162.661851,-1.1623120468003616e-292,0.015704074411052704,0.00074565186300706626
1729090162.669696,-6.9738722808021689e-293,0.016233485630024129,0.0015116162714593189
1729090162.677731,-4.1843233684813008e-293,0.017189667453600031,0.0028225750394547337
1729090162.685655,-2.5105940210887805e-293,0.017124841455552521,0.0025449251465969034
1729090162.693683,-1.5063564126532682e-293,0.016660255795261987,0.0015269550879581421
1729090162.701698,-9.0381384759196084e-294,0.016381504399087664,0.0009161730527748851
1729090162.71017,-5.4228830855517659e-294,0.016427098592114088,0.00054970383166493106
1729090162.717666,-3.2537298513310591e-294,0.016454455107929943,0.00032982229899895864
1729090162.725717,-1.9522379107986356e-294,0.016470869017419454,0.00019789337939937518
1729090162.733633,-1.1713427464791813e-294,0.016693562393844182,0.00011873602763962511
1729090162.741785,-7.0280564788750883e-295,0.016614333388967999,7.1241616583775063e-05
1729090162.749787,-4.216833887325053e-295,0.016353950955311274,4.274496995026504e-05
1729090162.757794,-2.5301003323950315e-295,0.016410566525848255,2.5646981970159024e-05
1729090162.765662,-1.5180601994370188e-295,0.01665738089890146,0.00086676831210615859
1729090162.773657,-9.1083611966221128e-296,0.017018314553464399,0.0022228212331118218
1729090162.781668,-5.4650167179732674e-296,0.017447719776933178,0.0021850728627911564
1729090162.789707,-3.27901003078396e-296,0.017705362911014443,0.002162423840598757
1729090162.797671,-1.967406018470376e-296,0.017859948791463201,0.0021488344272833173
1729090162.805637,-1.1804436110822255e-296,0.01773985528900144,0.0012893006563699902
1729090162.813672,-7.082661666493353e-297,0.017242109126062354,0.00077358039382199417
1729090162.821662,-4.2495969998960112e-297,0.016730616397567885,0.00046414823629319644
1729090162.829645,-2.5497581999376069e-297,0.016423720760471203,0.00027848894177591791
1729090162.837664,-1.5298549199625644e-297,0.016239583378213192,0.0001670933650655507
1729090162.845649,-9.1791295197753857e-298,0.016341945979589406,0.00010025601903933043
1729090162.853743,-5.5074777118652304e-298,0.016616208571146148,0.00091153373434766153
1729090162.862049,-3.3044866271191384e-298,0.016780766126080194,0.00139830036353266
1729090162.869632,-1.9826919762714831e-298,0.016879500659040619,0.00083898021811959608
1729090162.877567,-1.18961518576289e-298,0.016725896348085863,0.00050338813087175767
1729090162.885667,-7.1376911145773398e-299,0.016420888730781992,0.0011534130014471177
1729090162.893659,-4.2826146687464041e-299,0.016237884160399667,0.0015434279237923339
1729090162.901693,-2.5695688012478425e-299,0.01634092644890129,0.0017774368771994633
1729090162.909656,-1.5417412807487052e-299,0.01661559685273328,0.001917842249243741
1729090162.917633,-9.2504476844922307e-300,0.016780399095032473,0.0011507053495462447
1729090162.925664,-5.5502686106953379e-300,0.016879280440411988,0.00069042320972774679
1729090162.9337,-3.3301611664172025e-300,0.016938609247639697,0.00041425392583664808
1729090162.94164,-1.9980966998503214e-300,0.016761361501245305,0.00024855235550198882
1729090162.949625,-1.1988580199101928e-300,0.016655012853408674,0.00014913141330119328
1729090162.957644,-7.1931481194611565e-301,0.017016893726168724,8.9478847980715959e-05
1729090162.965781,-4.3158888716766943e-301,0.017234022249824756,0.0011179124624435088
1729090162.973658,-2.5895333230060165e-301,0.01715145433328736,0.0030120428155072793
1729090162.98162,-1.5537199938036097e-301,0.017314758614095937,0.0039356759966145257
1729090162.989637,-9.3223199628216589e-302,0.017199896151850066,0.0032127857208927788
1729090162.99768,-5.5933919776929951e-302,0.016492443582309495,0.0019276714325356672
1729090163.005682,-3.3560351866157973e-302,0.016067972040585153,0.0011566028595214003
1729090163.013667,-2.013621111969478e-302,0.016238979177012582,0.0015453418386369034
1729090163.0217,-1.2081726671816869e-302,0.01634158345886904,0.001778585226106205
1729090163.029671,-7.2490360030901197e-303,0.015977455966520882,0.001067151135663723
1729090163.037612,-4.3494216018540713e-303,0.015758979471111989,0.0006402906813982338
1729090163.045682,-2.6096529611124428e-303,0.015840738604597664,0.00038417440883894028
1729090163.053652,-1.5657917766674657e-303,0.016102639115420089,0.00023050464530336416
1729090163.061659,-9.3947506600047944e-304,0.016259779421913541,0.00013830278718201849
1729090163.069659,-5.6368503960028761e-304,0.016141218575078598,8.2981672309211094e-05
1729090163.077636,-3.3821102376017254e-304,0.016282927097708649,4.9789003385526648e-05
1729090163.085663,-2.0292661425610353e-304,0.016580797242017692,2.987340203131599e-05
1729090163.093657,-1.2175596855366211e-304,0.016759519328603124,1.7924041218789591e-05
1729090163.101654,-7.3053581132197265e-305,0.016866752580554381,1.0754424731273754e-05
1729090163.109682,-4.3832148679318359e-305,0.016931092531725131,6.4526548387642532e-06
1729090163.117636,-2.6299289207591015e-305,0.016756851471696567,0.0010680967465583377
1729090163.125693,-1.5779573524554609e-305,0.016652306835679427,0.0025564633245141449
1729090163.133713,-9.4677441147327637e-306,0.016802425084800163,0.0023852581176325499
1729090163.141589,-5.6806464688396582e-306,0.016679651003541587,0.0014311548705795299
1729090163.149663,-3.4083878813037948e-306,0.016180296493324409,0.00085869292234771793
1729090163.15762,-2.0450327287822769e-306,0.015880683787194101,0.0005152157534086307
1729090163.165701,-1.2270196372693661e-306,0.016339451255708966,0.0011605095749692416
1729090163.173649,-7.3621178236161961e-307,0.0168275567675489,0.0015476858679056081
1729090163.181682,-4.4172706941697178e-307,0.016694730013190828,0.00092861152074336486
1729090163.189729,-2.6503624165018304e-307,0.01640218892984497,0.00055716691244601891
1729090163.197735,-1.5902174499010983e-307,0.016013819249106442,0.0003343001474676113
1729090163.205656,-9.5413046994065889e-308,0.015993642471394339,0.00020058008848056679
1729090163.213652,-5.7247828196439535e-308,0.016620071496960126,0.00012034805308834006
1729090163.221608,-3.4348696917863719e-308,0.016995928912299597,7.2208831853004039e-05
1729090163.229675,-2.0609218150718231e-308,0.016795753300041245,4.332529911180242e-05
1729090163.237722,-1.2365530890430938e-308,0.016249957871224206,2.5995179467081452e-05
1729090163.24575,-7.419318534258562e-309,0.015496790552471952,1.5597107680248873e-05
1729090163.253673,-4.4515911205551392e-309,0.015257735191951614,0.00086073838753221259
1729090163.261693,-2.6709546723330855e-309,0.015965682098563472,0.0013678231554433906
1729090163.269646,-1.6025728033998483e-309,0.016390450242530587,0.00082069389326603433
1729090163.277685,-9.6154368203990998e-310,0.01600677603671781,0.00049241633595962055
1729090163.285672,-5.7692620922394303e-310,0.015776571513230142,0.00029544980157577237
1729090163.29369,-3.4615572553436285e-310,0.016276983891330588,0.00017726988094546341
1729090163.301666,-2.0769343532062166e-310,0.016790076348921875,0.00010636192856727803
1729090163.309608,-1.24616061192373e-310,0.01688508679274563,0.00091519728006442995
1729090163.317659,-7.4769636715419846e-311,0.017154938089770901,0.0024647236446178004
1729090163.325701,-4.4861782029251908e-311,0.017529693898717079,0.0025430593404257595
1729090163.333795,-2.6917069217555097e-311,0.017754547384084784,0.0015258356042554557
1729090163.341582,-1.615024153053207e-311,0.017463769413843373,0.00091550136255327331
1729090163.349614,-9.690144918318254e-312,0.016863612570236497,0.00054930081753196396
1729090163.35762,-5.8140869509949049e-312,0.016716363494803384,0.00032958049051917833
1729090163.36567,-3.4884521705939785e-312,0.017053704111005551,0.0010491284172355702
1729090163.373632,-2.0930713023573753e-312,0.017256108480726853,0.0023322372961894684
1729090163.381695,-1.2558427814144252e-312,0.016739016010366585,0.0022507225006377441
1729090163.389671,-7.5350566884470257e-313,0.016428760528150427,0.0022018136233067096
1729090163.397695,-4.5210340130978593e-313,0.016668297300282759,0.0021724682969080887
1729090163.40565,-2.7126204078685969e-313,0.016812019363562161,0.0013034809781448532
1729090163.413681,-1.6275722447112768e-313,0.016685407570798786,0.0016334687098109751
1729090163.421664,-9.765433468267661e-314,0.016396595464409747,0.0018314613488106483
1729090163.429801,-5.8592600809605966e-314,0.016223308200576318,0.0010988768092863889
1729090163.437644,-3.5155560482799186e-314,0.016119335842276265,0.00065932608557183337
1729090163.445744,-2.1093336290667643e-314,0.016056952427296232,0.0003955956513431
1729090163.453651,-1.2656001774400586e-314,0.016019522378308212,0.00023735739080586
1729090163.461686,-7.5936010636522201e-315,0.015784219318184384,0.000142414434483516
1729090163.469638,-4.5561606401675947e-315,0.015643037482110086,8.5448660690109595e-05
1729090163.477901,-2.7336963841005568e-315,0.015984018441927539,5.1269196414065757e-05
1729090163.485667,-1.6402178314484654e-315,0.016188607017818012,3.0761517848439456e-05
1729090163.4937,-9.8413069886907922e-316,0.016098515132621283,1.8456910709063671e-05
1729090163.501645,-5.9047841635705366e-316,0.016044460001503242,0.0012881443308115331
1729090163.509635,-3.5428705376675736e-316,0.01601202692283242,0.002901336905797078
1729090163.517643,-2.1257222830752925e-316,0.015992567075629925,0.0025921822664023097
1729090163.525652,-1.2754333797264884e-316,0.016193736198039446,0.0015553093598413858
1729090163.53369,-7.6526000807326722e-317,0.016314437671485153,0.00093318561590483137
1729090163.541678,-4.5915600484396033e-317,0.015961168494090551,0.00055991136954289884
1729090163.549684,-2.7549362266900203e-317,0.015536361956922774,0.00033594682172573926
1729090163.557654,-1.6529618348271414e-317,0.015281478034622107,0.00020156809303544356
1729090163.565708,-9.9177700208315565e-318,0.015341392711972721,0.00012094085582126614
1729090163.573622,-5.9506600362363505e-318,0.015803031579845118,0.00092394463641682289
1729090163.581617,-3.5703950336105186e-318,0.015867169869837543,0.0014057469047741569
1729090163.589696,-2.1422389964288945e-318,0.015479962782370968,0.00084344814286449411
1729090163.597739,-1.2853414215947534e-318,0.015673328591353054,0.00050606888571869645
1729090163.605701,-7.7120682921943538e-319,0.016215038138204338,0.00030364133143121787
1729090163.613667,-4.6272212126907786e-319,0.016327218835584092,0.00018218479885873072
1729090163.621687,-2.7763524902403008e-319,0.015968837192549913,0.00010931087931523843
1729090163.629898,-1.6657917315183468e-319,0.015753808206729406,6.5586527589143047e-05
1729090163.637617,-9.9949480153684176e-320,0.015837635845968118,3.9351916553485828e-05
1729090163.645804,-5.9969688092210506e-320,0.015887932429511344,2.3611149932091497e-05
1729090163.653657,-3.5977860330159573e-320,0.015918110379637279,1.4166689959254897e-05
1729090163.661655,-2.1590668723262474e-320,0.016149062180443853,8.5000139755529384e-06
1729090163.669692,-1.2954401233957484e-320,0.016500478291658818,5.100008385331763e-06
1729090163.677625,-7.7716526090828081e-321,0.01649848292765678,3.0600050311990575e-06
1729090163.685655,-4.6639796967413674e-321,0.016497285709255557,1.8360030187194344e-06
1729090163.693638,-2.7964115554614554e-321,0.016709412408945835,1.1016018112316606e-06
1729090163.701703,-1.6798231958602383e-321,0.016623843398028991,6.6096108673899642e-07
1729090163.709672,-1.007893917516143e-321,0.016572501991478885,3.9657665204339779e-07
1729090163.717659,-6.0276008792632078e-322,0.016541697147548821,0.00085161806891528912
1729090163.725649,-3.6560857792252244e-322,0.016310369210459766,0.0013623509642732366
1729090163.733673,-2.1738888417014848e-322,0.016384417478937346,0.00081741057856394195
1729090163.741624,-1.284570679187241e-322,0.016641691470754914,0.0004904463471383651
1729090163.749667,-7.9050503334599447e-323,0.016583210835114437,0.0011456479312070822
1729090163.757625,-4.9406564584124654e-323,0.016335277422999134,0.0015387688816483126
1729090163.765673,-2.9643938750474793e-323,0.01639936240646097,0.0017746414519130508
1729090163.773633,-1.4821969375237396e-323,0.016650658427269087,0.0027675451169959569
1729090163.781666,-9.8813129168249309e-324,0.016588591009022942,0.0025119071931216375
1729090163.789724,-4.9406564584124654e-324,0.016338505527344241,0.0015071443158729825
1729090163.797623,-4.9406564584124654e-324,0.016188454238337015,0.0009042865895237894
1729090163.805666,-4.9406564584124654e-324,0.016311268495663701,0.00054257195371427362
1729090163.814034,-4.9406564584124654e-324,0.016384957050059712,0.00032554317222856417
1729090163.82165,-4.9406564584124654e-324,0.016429170182697315,0.0010467060262612017
1729090163.829646,-4.9406564584124654e-324,0.01688138812374191,0.0023307838616048477
1729090163.837644,-4.9406564584124654e-324,0.017152718888368668,0.0022498504398869718
1729090163.84583,-4.9406564584124654e-324,0.016889827285682689,0.0013499102639321831
1729090163.853694,-4.9406564584124654e-324,0.016519247293340089,0.0008099461583593098
1729090163.8617,-4.9406564584124654e-324,0.016296899297934528,0.0004859676950155859
1729090163.869712,-4.9406564584124654e-324,0.016163490500691189,0.00029158061700935154
1729090163.877683,-4.9406564584124654e-324,0.016083445222345186,0.0010263284931296742
1729090163.88566,-4.9406564584124654e-324,0.016035418055337584,0.0023185573417259307
1729090163.893714,-4.9406564584124654e-324,0.016006601755133024,0.0022425145279596215
1729090163.90166,-4.9406564584124654e-324,0.015776466944279272,0.0013455087167757729
1729090163.909609,-4.9406564584124654e-324,0.015425541027036006,0.00080730523006546377
1729090163.91767,-4.9406564584124654e-324,0.015427830507421062,0.00048438313803927821
1729090163.925665,-4.9406564584124654e-324,0.015642049226383112,0.00029062988282356689
1729090163.933663,-4.9406564584124654e-324,0.015770580457760339,0.00017437792969414011
1729090163.94164,-4.9406564584124654e-324,0.015634854165855659,0.00010462675781648407
1729090163.949711,-4.9406564584124654e-324,0.015553418390712854,6.2776054689890444e-05
1729090163.957635,-4.9406564584124654e-324,0.016143092017820215,3.7665632813934262e-05
1729090163.965697,-4.9406564584124654e-324,0.016709741224815652,2.2599379688360557e-05
1729090163.973637,-4.9406564584124654e-324,0.016836885718281895,1.3559627813016333e-05
1729090163.981652,-4.9406564584124654e-324,0.01648748235289961,8.1357766878097998e-06
1729090163.989614,-4.9406564584124654e-324,0.015639305241477192,0.00085626158893674907
1729090163.997686,-4.9406564584124654e-324,0.015130398974623741,0.0013651370762861126
1729090164.005657,-4.9406564584124654e-324,0.015037900245242687,0.00081908224577166761
1729090164.013622,-4.9406564584124654e-324,0.015195246038345071,0.00049144934746300057
1729090164.021641,-4.9406564584124654e-324,0.015289653514206501,0.00029486960847780028
1729090164.029672,-4.9406564584124654e-324,0.015133452968992343,0.00017692176508668018
1729090164.037655,-4.9406564584124654e-324,0.015252577672594865,0.0001061530590520081
1729090164.045851,-4.9406564584124654e-324,0.015536897525487392,6.3691835431204858e-05
1729090164.053654,-4.9406564584124654e-324,0.015707489437222909,3.8215101258722909e-05
1729090164.061661,-4.9406564584124654e-324,0.016022689614995235,2.2929060755233747e-05
1729090164.069647,-4.9406564584124654e-324,0.016424654752389647,1.3757436453140246e-05
1729090164.07761,-4.9406564584124654e-324,0.016452988804095278,8.2544618718841472e-06
1729090164.085715,-4.9406564584124654e-324,0.01625714420438764,4.952677123130489e-06
1729090164.093701,-4.9406564584124654e-324,0.016352482475294073,2.971606273878293e-06
1729090164.1017,-4.9406564584124654e-324,0.016409685437837933,1.7829637643269756e-06
1729090164.109649,-4.9406564584124654e-324,0.016018317153902218,1.0697782585961854e-06
1729090164.11764,-4.9406564584124654e-324,0.015783496183540788,6.4186695515771122e-07
1729090164.12565,-4.9406564584124654e-324,0.015855448632054944,3.8512017309462665e-07
1729090164.133698,-4.9406564584124654e-324,0.015685775070432423,2.3107210385677597e-07
1729090164.141647,-4.9406564584124654e-324,0.015158280871996879,1.3864326231406558e-07
1729090164.149686,-4.9406564584124654e-324,0.015054629383666569,8.3185957388439348e-08
1729090164.157618,-4.9406564584124654e-324,0.015843818613592447,4.9911574433063607e-08
1729090164.165703,-4.9406564584124654e-324,0.016317332151547972,2.9946944659838162e-08
1729090164.173633,-4.9406564584124654e-324,0.015962905182128242,1.7968166795902898e-08
1729090164.181641,-4.9406564584124654e-324,0.015537403969745386,1.0780900077541737e-08
1729090164.189653,-4.9406564584124654e-324,0.015494948273046689,6.4685400465250429e-09
1729090164.197691,-4.9406564584124654e-324,0.016108009947220517,3.8811240279150254e-09
1729090164.205669,-4.9406564584124654e-324,0.016475846951724816,0.0010642274823294958
1729090164.213644,-4.9406564584124654e-324,0.016058014062234345,0.0025541417659768395
1729090164.221681,-4.9406564584124654e-324,0.01559446929780905,0.0023838651825101669
1729090164.22969,-4.9406564584124654e-324,0.015529187469884888,0.0022816992324301631
1729090164.237685,-4.9406564584124654e-324,0.015702863403861407,0.0022203996623821609
1729090164.245798,-4.9406564584124654e-324,0.015807068964247318,0.0013322397974292965
1729090164.253612,-4.9406564584124654e-324,0.016082437331209877,0.00079934387845757794
1729090164.261657,-4.9406564584124654e-324,0.016460503382118432,0.00047960632707454674
1729090164.269703,-4.9406564584124654e-324,0.016474497981932547,0.00028776379624472805
1729090164.277656,-4.9406564584124654e-324,0.016270049711090001,0.0010240384006709
1729090164.285623,-4.9406564584124654e-324,0.016147380748584475,0.0025300283169816824
1729090164.293666,-4.9406564584124654e-324,0.016499469432543191,0.0034336222667681517
1729090164.301663,-4.9406564584124654e-324,0.016923567673649435,0.0039757786366400334
1729090164.309627,-4.9406564584124654e-324,0.016752336556851148,0.0034496923356390988
1729090164.317617,-4.9406564584124654e-324,0.01643675285604116,0.0020698154013834595
1729090164.325614,-4.9406564584124654e-324,0.016673092697017201,0.0012418892408300754
1729090164.333684,-4.9406564584124654e-324,0.017240586663064855,0.00074513354449804521
1729090164.341649,-4.9406564584124654e-324,0.017155392981231421,0.00044708012669882719
1729090164.349616,-4.9406564584124654e-324,0.016891431741400342,0.0011196281989433595
1729090164.357641,-4.9406564584124654e-324,0.016945900028232708,0.0015231570422900788
1729090164.36567,-4.9406564584124654e-324,0.016765735969601115,0.00091389422537404728
1729090164.373627,-4.9406564584124654e-324,0.016231947472960126,0.0013997166581484915
1729090164.381629,-4.9406564584124654e-324,0.016124519405706549,0.0016912101178131579
1729090164.389647,-4.9406564584124654e-324,0.016485752626816431,0.0010147260706878949
1729090164.397685,-4.9406564584124654e-324,0.016489647528751348,0.00060883564241273678
1729090164.405635,-4.9406564584124654e-324,0.016491984469912298,0.00036530138544764207
1729090164.413658,-4.9406564584124654e-324,0.016493386634608868,0.00021918083126858524
1729090164.421641,-4.9406564584124654e-324,0.016281382902695794,0.00013150849876115116
1729090164.429667,-4.9406564584124654e-324,0.016367025694278965,7.890509925669068e-05
1729090164.437649,-4.9406564584124654e-324,0.0168441014306909,0.00089872318247807761
1729090164.445711,-4.9406564584124654e-324,0.01713034687253806,0.0024548391860659889
1729090164.453683,-4.9406564584124654e-324,0.016876404076184327,0.0025371286652946723
1729090164.461675,-4.9406564584124654e-324,0.016298348336910053,0.0015222771991768034
1729090164.469658,-4.9406564584124654e-324,0.015951514893345488,0.00091336631950608206
1729090164.477573,-4.9406564584124654e-324,0.015956259857937766,0.00054801979170364921
1729090164.485661,-4.9406564584124654e-324,0.015959106836693132,0.0013930370286772686
1729090164.4937,-4.9406564584124654e-324,0.015747969993215337,0.0019000473708614403
1729090164.501641,-4.9406564584124654e-324,0.01562128788712866,0.0011400284225168643
1729090164.509654,-4.9406564584124654e-324,0.015970968684938684,0.00068401705351011852
1729090164.517614,-4.9406564584124654e-324,0.016393622194355716,0.00041041023210607107
1729090164.525643,-4.9406564584124654e-324,0.016647214300005937,0.00024624613926364265
1729090164.533648,-4.9406564584124654e-324,0.016586524532665049,0.00099912780648224887
1729090164.541662,-4.9406564584124654e-324,0.016337265641529503,0.0023022369297374754
1729090164.549637,-4.9406564584124654e-324,0.016400555337579191,0.0030841024036906113
1729090164.557667,-4.9406564584124654e-324,0.016651374185940017,0.0035532216880624933
1729090164.56569,-4.9406564584124654e-324,0.016589020464225501,0.0038346932586856225
1729090164.573651,-4.9406564584124654e-324,0.016125918169734757,0.0042164212317905153
1729090164.581636,-4.9406564584124654e-324,0.015848056793040313,0.0035940778927293889
1729090164.589656,-4.9406564584124654e-324,0.016107030028485677,0.0021564467356376331
1729090164.597735,-4.9406564584124654e-324,0.016262413969752896,0.00129386804138258
1729090164.605656,-4.9406564584124654e-324,0.016142799303782211,0.00077632082482954792
1729090164.613675,-4.9406564584124654e-324,0.0160710305041998,0.0013171726178217919
1729090164.621672,-4.9406564584124654e-324,0.016027969224450354,0.0016416836936171382
1729090164.62964,-4.9406564584124654e-324,0.016002132456600683,0.00098501021617028298
1729090164.63766,-4.9406564584124654e-324,0.015986630395890884,0.00059100612970216973
1729090164.645619,-4.9406564584124654e-324,0.015977329159465002,0.00035460367782130179
1729090164.653656,-4.9406564584124654e-324,0.01618459344834049,0.00021276220669278108
1729090164.66167,-4.9406564584124654e-324,0.016308952021665782,0.00012765732401566864
1729090164.669686,-4.9406564584124654e-324,0.015957877104198926,7.6594394409401195e-05
1729090164.677642,-4.9406564584124654e-324,0.015747232153718815,4.5956636645640711e-05
1729090164.685636,-4.9406564584124654e-324,0.015620845183430746,2.7573981987384428e-05
1729090164.693652,-4.9406564584124654e-324,0.015119322939795874,0.0008679245121164938
1729090164.701676,-4.9406564584124654e-324,0.015031254624345966,0.0013721348301939593
1729090164.709602,-4.9406564584124654e-324,0.015616948727269068,0.00082328089811637556
1729090164.717665,-4.9406564584124654e-324,0.016181210219753946,0.0013453486617938885
1729090164.725688,-4.9406564584124654e-324,0.016519767115244874,0.0016585893200003962
1729090164.733645,-4.9406564584124654e-324,0.016510056221808414,0.00099515359200023782
1729090164.741592,-4.9406564584124654e-324,0.01629138465501552,0.00059709215520014258
1729090164.749685,-4.9406564584124654e-324,0.016373026745670802,0.00035825529312008553
1729090164.757638,-4.9406564584124654e-324,0.016422012000063969,0.00021495317587205131
1729090164.765674,-4.9406564584124654e-324,0.016025713091237841,0.00012897190552323078
1729090164.773647,-4.9406564584124654e-324,0.016000778776673177,0.00092876326623800168
1729090164.78164,-4.9406564584124654e-324,0.01662435328012743,0.002260018205590927
1729090164.789633,-4.9406564584124654e-324,0.016785652951468964,0.0022073910462786193
1729090164.797671,-4.9406564584124654e-324,0.016243897662080835,0.0021758147506912347
1729090164.805667,-4.9406564584124654e-324,0.015705999457716946,0.0032210941269938832
1729090164.813642,-4.9406564584124654e-324,0.01580895059656064,0.0029968816298514087
1729090164.821678,-4.9406564584124654e-324,0.016509256372059904,0.0017981289779108451
1729090164.829695,-4.9406564584124654e-324,0.016929439837359464,0.0010788773867465072
1729090164.837668,-4.9406564584124654e-324,0.016968704885808185,0.00064732643204790433
1729090164.845832,-4.9406564584124654e-324,0.016779418884146399,0.00038839585922874256
1729090164.853633,-4.9406564584124654e-324,0.01602731219095628,0.0010844176384613088
1729090164.861658,-4.9406564584124654e-324,0.015150358113580179,0.0023534108289249116
1729090164.869639,-4.9406564584124654e-324,0.014837030697885535,0.0022634266202790103
1729090164.877634,-4.9406564584124654e-324,0.015287569340661795,0.001358055972167406
1729090164.885747,-4.9406564584124654e-324,0.015770737557058566,0.00081483358330044359
1729090164.893691,-4.9406564584124654e-324,0.0156349484254346,0.00048890014998026617
1729090164.901697,-4.9406564584124654e-324,0.015340629915729202,0.00029334008998815967
1729090164.909648,-4.9406564584124654e-324,0.015164038809905965,0.00017600405399289577
1729090164.917656,-4.9406564584124654e-324,0.015483774207874054,0.00010560243239573746
1729090164.925664,-4.9406564584124654e-324,0.016314150538847952,6.3361459437442482e-05
1729090164.933689,-4.9406564584124654e-324,0.017238066398894324,3.8016875662465488e-05
1729090164.941621,-4.9406564584124654e-324,0.017579570884191133,2.2810125397479293e-05
1729090164.94968,-4.9406564584124654e-324,0.017145938483176169,1.3686075238487574e-05
1729090164.957663,-4.9406564584124654e-324,0.01688575904256719,8.2116451430925445e-06
1729090164.96568,-4.9406564584124654e-324,0.017155341439663834,4.9269870858555271e-06
1729090164.973668,-4.9406564584124654e-324,0.017317090877921822,2.9561922515133161e-06
1729090164.981667,-4.9406564584124654e-324,0.017414140540876616,1.7737153509079897e-06
1729090164.989666,-4.9406564584124654e-324,0.017685215369380509,1.064229210544794e-06
1729090164.997686,-4.9406564584124654e-324,0.017209325174289795,6.3853752632687623e-07
1729090165.005691,-4.9406564584124654e-324,0.016285255965042322,3.8312251579612576e-07
1729090165.013674,-4.9406564584124654e-324,0.016156504500955866,2.2987350947767545e-07
1729090165.021732,-4.9406564584124654e-324,0.016504943683966024,1.3792410568660525e-07
1729090165.029644,-4.9406564584124654e-324,0.016714007193772119,8.2754463411963143e-08
1729090165.037648,-4.9406564584124654e-324,0.016413755238193745,4.9652678047177893e-08
1729090165.045678,-4.9406564584124654e-324,0.016020759034115706,2.9791606828306733e-08
1729090165.053644,-4.9406564584124654e-324,0.015997806342399896,0.00085139799788816006
1729090165.06165,-4.9406564584124654e-324,0.015771189696639397,0.0013622189216569592
1729090165.069647,-4.9406564584124654e-324,0.015848064739914111,0.00081733135299417547
1729090165.077655,-4.9406564584124654e-324,0.016107034796609958,0.00049039881179650531
1729090165.085678,-4.9406564584124654e-324,0.016262416830627464,0.00029423928707790318
1729090165.093669,-4.9406564584124654e-324,0.0167813361125,0.0010279236951708051
1729090165.101629,-4.9406564584124654e-324,0.01709268768162352,0.0023195144629506092
1729090165.109584,-4.9406564584124654e-324,0.017066653592366615,0.002243088800694429
1729090165.117657,-4.9406564584124654e-324,0.017051033138812476,0.00219723340334072
1729090165.125648,-4.9406564584124654e-324,0.017254505897411006,0.0021697201649284953
1729090165.133671,-4.9406564584124654e-324,0.017376589552570126,0.001301832098957097
1729090165.141641,-4.9406564584124654e-324,0.017024149684203564,0.00078109925937425813
1729090165.149666,-4.9406564584124654e-324,0.01659984073245261,0.0004686595556245549
1729090165.157621,-4.9406564584124654e-324,0.016558100392133054,0.00028119573337473294
1729090165.165676,-4.9406564584124654e-324,0.016533056187941323,0.00016871744002483973
1729090165.173613,-4.9406564584124654e-324,0.016305184634695269,0.00095261058693896705
1729090165.181642,-4.9406564584124654e-324,0.016168461702747633,0.0014229464750874434
1729090165.189686,-4.9406564584124654e-324,0.016299272974310067,0.00085376788505246606
1729090165.197665,-4.9406564584124654e-324,0.016590604767978547,0.00051226073103147966
1729090165.205643,-4.9406564584124654e-324,0.016339713782717605,0.0003073564386188878
1729090165.213654,-4.9406564584124654e-324,0.015763489130099007,0.00018441386317133267
1729090165.22164,-4.9406564584124654e-324,0.015843444399989876,0.0001106483179027996
1729090165.229699,-4.9406564584124654e-324,0.01631710762338643,6.6388990741679765e-05
1729090165.237667,-4.9406564584124654e-324,0.016388460526693349,3.9833394445007855e-05
1729090165.245664,-4.9406564584124654e-324,0.016218427237946482,2.390003666700471e-05
1729090165.253619,-4.9406564584124654e-324,0.016329252295429378,1.4340022000202827e-05
1729090165.261684,-4.9406564584124654e-324,0.016608592360650133,0.00085998413612418478
1729090165.269665,-4.9406564584124654e-324,0.016776196399782586,0.001367370604598574
1729090165.277671,-4.9406564584124654e-324,0.016451068761800025,0.00082042236275914446
1729090165.285627,-4.9406564584124654e-324,0.015617457086817442,0.00049225341765548659
1729090165.293728,-4.9406564584124654e-324,0.015542980143289925,0.00029535205059329195
1729090165.302366,-4.9406564584124654e-324,0.016349674100097477,0.00017721123035597516
1729090165.309635,-4.9406564584124654e-324,0.016620845443450993,0.00010632673821358511
1729090165.31767,-4.9406564584124654e-324,0.016145013157270051,0.00091517616585221431
1729090165.325677,-4.9406564584124654e-324,0.01585951378556149,0.0022518659453594548
1729090165.333711,-4.9406564584124654e-324,0.016326749254729399,0.0022024996901397363
1729090165.341642,-4.9406564584124654e-324,0.017032780597692178,0.0013214998140838414
1729090165.349673,-4.9406564584124654e-324,0.017030709342007809,0.00079289988845030477
1729090165.357659,-4.9406564584124654e-324,0.016390931496404144,0.00047573993307018284
1729090165.365669,-4.9406564584124654e-324,0.01579421975831093,0.00028544395984210974
1729090165.373644,-4.9406564584124654e-324,0.015436192715455,0.00017126637590526584
1729090165.381676,-4.9406564584124654e-324,0.015221376489741444,0.00010275982554315949
1729090165.389678,-4.9406564584124654e-324,0.015305331785044325,6.1655895325895689e-05
1729090165.397699,-4.9406564584124654e-324,0.016207085085150116,3.6993537195537419e-05
1729090165.405608,-4.9406564584124654e-324,0.017386672157406639,2.2196122317322448e-05
1729090165.413641,-4.9406564584124654e-324,0.017668734339298522,1.3317673390393468e-05
1729090165.421678,-4.9406564584124654e-324,0.017199436556240601,7.990604034236081e-06
1729090165.429667,-4.9406564584124654e-324,0.016705012855674835,4.7943624205416478e-06
1729090165.437658,-4.9406564584124654e-324,0.016408358635335372,2.8766174523249887e-06
1729090165.445661,-4.9406564584124654e-324,0.016230366103131697,1.7259704713949929e-06
1729090165.453671,-4.9406564584124654e-324,0.016336415614540509,0.00085241570520690018
1729090165.46167,-4.9406564584124654e-324,0.016825735382847824,0.0013628295460482033
1729090165.469618,-4.9406564584124654e-324,0.017119327243832215,0.00081769772762892189
1729090165.477653,-4.9406564584124654e-324,0.016869792298960816,0.00049061863657735307
1729090165.485636,-4.9406564584124654e-324,0.016294381270575947,0.00029437118194641185
1729090165.493661,-4.9406564584124654e-324,0.015736289622814009,0.00017662270916784709
1729090165.501647,-4.9406564584124654e-324,0.015401434634156847,0.00010597362550070826
1729090165.509654,-4.9406564584124654e-324,0.01520052164096255,6.3584175300424967e-05
1729090165.517653,-4.9406564584124654e-324,0.014867128814314956,0.00088953062810431815
1729090165.525676,-4.9406564584124654e-324,0.0146670931183264,0.0013850984997866541
1729090165.533791,-4.9406564584124654e-324,0.015185606792926314,0.00083105909987199239
1729090165.541678,-4.9406564584124654e-324,0.015922405059148294,0.0013500155828472585
1729090165.54964,-4.9406564584124654e-324,0.016151638988150467,0.0025127695955564815
1729090165.557661,-4.9406564584124654e-324,0.015863489284089739,0.0023590418802579517
1729090165.56567,-4.9406564584124654e-324,0.015690599461653302,0.001415425128154771
1729090165.573623,-4.9406564584124654e-324,0.015586865568191438,0.00084925507689286245
1729090165.581621,-4.9406564584124654e-324,0.015311780201383305,0.00050955304613571747
1729090165.589619,-4.9406564584124654e-324,0.015359574012029441,0.0003057318276814305
1729090165.59767,-4.9406564584124654e-324,0.015813940359879153,0.0010348192195329215
1729090165.60563,-4.9406564584124654e-324,0.016086560168588983,0.001472271654643816
1729090165.613678,-4.9406564584124654e-324,0.016037287023083865,0.00088336299278628965
1729090165.621641,-4.9406564584124654e-324,0.016220568166511809,0.00053001779567177373
1729090165.629656,-4.9406564584124654e-324,0.01611769182183756,0.00031801067740306422
1729090165.637632,-4.9406564584124654e-324,0.015843120984301993,0.00019080640644183853
1729090165.645648,-4.9406564584124654e-324,0.016104068543242686,0.00096586396678916627
1729090165.653672,-4.9406564584124654e-324,0.016473482109338113,0.0022822786259216262
1729090165.66167,-4.9406564584124654e-324,0.016482285218264357,0.002220747298477039
1729090165.669664,-4.9406564584124654e-324,0.016274722052889087,0.0013324483790862233
1729090165.677691,-4.9406564584124654e-324,0.016150184153663927,0.0016508491503757971
1729090165.685626,-4.9406564584124654e-324,0.015862616383397813,0.0026932697360736047
1729090165.693681,-4.9406564584124654e-324,0.015264385659776114,0.0024673419645682261
1729090165.701653,-4.9406564584124654e-324,0.014905447225603094,0.0014804051787409354
1729090165.709655,-4.9406564584124654e-324,0.01532861925729233,0.00088824310724456125
1729090165.717694,-4.9406564584124654e-324,0.016008212537767904,0.00053294586434673671
1729090165.72566,-4.9406564584124654e-324,0.016415968506053247,0.00031976751860804203
1729090165.733661,-4.9406564584124654e-324,0.017086312148486486,0.00019186051116482523
1729090165.741621,-4.9406564584124654e-324,0.017488518333946428,0.00011511630669889512
1729090165.749619,-4.9406564584124654e-324,0.016878461922298332,6.9069784019337068e-05
1729090165.757665,-4.9406564584124654e-324,0.016299583044578458,4.1441870411602242e-05
1729090165.765715,-4.9406564584124654e-324,0.016165100748677545,2.4865122246961343e-05
1729090165.773658,-4.9406564584124654e-324,0.016297256401868018,1.4919073348176805e-05
1729090165.781658,-4.9406564584124654e-324,0.016589394824513316,8.9514440089060829e-06
1729090165.789666,-4.9406564584124654e-324,0.016764677878100494,5.3708664053436494e-06
1729090165.797672,-4.9406564584124654e-324,0.016869847710252801,3.2225198432061896e-06
1729090165.805614,-4.9406564584124654e-324,0.0171457946402752,0.00085331363482998683
1729090165.813623,-4.9406564584124654e-324,0.01731136279828864,0.0013633683038220552
1729090165.821654,-4.9406564584124654e-324,0.01719785866236569,0.00081802098229323311
1729090165.82968,-4.9406564584124654e-324,0.017129756180811917,0.00049081258937593985
1729090165.837685,-4.9406564584124654e-324,0.017088894691879658,0.00029448755362556386
1729090165.845701,-4.9406564584124654e-324,0.016851532767789282,0.0001766925321753383
1729090165.853657,-4.9406564584124654e-324,0.016070580521142012,0.00010601551930520297
1729090165.861672,-4.9406564584124654e-324,0.015389164142422633,6.3609311583121792e-05
1729090165.869668,-4.9406564584124654e-324,0.015193159345922023,3.8165586949873075e-05
1729090165.877639,-4.9406564584124654e-324,0.015075556468021657,0.00087427947509398699
1729090165.885646,-4.9406564584124654e-324,0.015004994741281436,0.0024401729616355342
1729090165.893607,-4.9406564584124654e-324,0.014962657705237303,0.0033797090535604628
1729090165.901678,-4.9406564584124654e-324,0.01515010051434184,0.0028792055550603407
1729090165.909629,-4.9406564584124654e-324,0.015688256261266593,0.0017275233330362044
1729090165.917639,-4.9406564584124654e-324,0.016011149709421444,0.0010365139998217226
1729090165.925696,-4.9406564584124654e-324,0.015992040747583341,0.00062190839989303352
1729090165.933796,-4.9406564584124654e-324,0.016193420401211495,0.00037314503993582008
1729090165.941668,-4.9406564584124654e-324,0.016739938254850414,0.00022388702396149203
1729090165.949623,-4.9406564584124654e-324,0.016855003936302754,0.00013433221437689522
1729090165.957616,-4.9406564584124654e-324,0.016285508252981112,0.00093197945155020032
1729090165.965667,-4.9406564584124654e-324,0.015943810842988126,0.0014105677938541833
1729090165.973602,-4.9406564584124654e-324,0.015738792396992333,0.001697720799236573
1729090165.981649,-4.9406564584124654e-324,0.015402936298663843,0.002934237756121086
1729090165.989645,-4.9406564584124654e-324,0.015201422639666749,0.0036761479302517938
1729090165.997674,-4.9406564584124654e-324,0.014867669413537477,0.0030570688810751395
1729090166.005576,-4.9406564584124654e-324,0.014454572447128897,0.0018342413286450837
1729090166.013664,-4.9406564584124654e-324,0.01463240432874578,0.0011005447971870503
1729090166.021651,-4.9406564584124654e-324,0.015164793519177941,0.00066032687831223016
1729090166.029699,-4.9406564584124654e-324,0.015697072064168253,0.00039619612698733804
1729090166.038094,-4.9406564584124654e-324,0.016229284221893459,0.0010890977991164659
1729090166.046201,-4.9406564584124654e-324,0.016548611516528578,0.0015048388023939426
1729090166.053679,-4.9406564584124654e-324,0.016527362862578637,0.00090290328143636557
1729090166.061704,-4.9406564584124654e-324,0.016301768639477653,0.00054174196886181932
1729090166.069672,-4.9406564584124654e-324,0.016166412105617065,0.00032504518131709159
1729090166.077693,-4.9406564584124654e-324,0.016298043216031729,0.00019502710879025495
1729090166.085657,-4.9406564584124654e-324,0.015951331820818496,0.00011701626527415296
1729090166.093682,-4.9406564584124654e-324,0.015104769891497508,7.0209759164491773e-05
1729090166.101707,-4.9406564584124654e-324,0.014809677764635931,4.2125855498695059e-05
1729090166.109616,-4.9406564584124654e-324,0.015058312549981016,2.5275513299217032e-05
1729090166.117685,-4.9406564584124654e-324,0.015420338451919084,1.5165307979530219e-05
1729090166.125679,-4.9406564584124654e-324,0.015637553993081924,9.0991847877181324e-06
1729090166.133674,-4.9406564584124654e-324,0.015767883317779625,5.4595108726308791e-06
1729090166.141608,-4.9406564584124654e-324,0.015846080912598249,3.2757065235785268e-06
1729090166.149614,-4.9406564584124654e-324,0.016105844500220436,1.9654239141471161e-06
1729090166.157648,-4.9406564584124654e-324,0.016474547683524767,1.1792543484882697e-06
1729090166.165672,-4.9406564584124654e-324,0.016482924562776349,7.0755260909296181e-07
1729090166.173624,-4.9406564584124654e-324,0.016275105659596282,0.00085180465448951896
1729090166.18162,-4.9406564584124654e-324,0.016150414317688242,0.0013624629156177744
1729090166.189621,-4.9406564584124654e-324,0.016288444543274435,0.00081747774937066453
1729090166.197665,-4.9406564584124654e-324,0.016796952740088182,0.00049048664962239867
1729090166.205631,-4.9406564584124654e-324,0.017314902688907445,0.00029429198977343923
1729090166.213651,-4.9406564584124654e-324,0.017199982596736971,0.00017657519386406352
1729090166.221644,-4.9406564584124654e-324,0.016705340479972658,0.00010594511631843809
1729090166.229674,-4.9406564584124654e-324,0.016408555209914067,6.3567069791062858e-05
1729090166.237669,-4.9406564584124654e-324,0.016443329078609931,3.8140241874637714e-05
1729090166.245849,-4.9406564584124654e-324,0.016677038430558462,0.00087426426804884574
1729090166.253654,-4.9406564584124654e-324,0.016817264041727582,0.0013759386837533705
1729090166.262076,-4.9406564584124654e-324,0.016688554377698037,0.00082556321025202236
1729090166.269662,-4.9406564584124654e-324,0.01618563851781828,0.00049533792615121344
1729090166.27763,-4.9406564584124654e-324,0.015671043971159412,0.0011485828786147912
1729090166.285622,-4.9406564584124654e-324,0.015362287243164088,0.0026047550037480169
1729090166.293679,-4.9406564584124654e-324,0.014964188175635879,0.0026270781559038893
1729090166.30163,-4.9406564584124654e-324,0.014938173765849969,0.0015762468935423333
1729090166.309648,-4.9406564584124654e-324,0.015986790273633502,0.00094574813612540007
1729090166.317676,-4.9406564584124654e-324,0.017254495270496668,0.00056744888167524
1729090166.325633,-4.9406564584124654e-324,0.017589428207152535,0.00034046932900514402
1729090166.333691,-4.9406564584124654e-324,0.017577542938415042,0.00020428159740308642
1729090166.341622,-4.9406564584124654e-324,0.017570411777172546,0.00012256895844185185
1729090166.349622,-4.9406564584124654e-324,0.016927597988234001,7.3541375065111096e-05
1729090166.357633,-4.9406564584124654e-324,0.016116219653408842,4.412482503906666e-05
1729090166.365673,-4.9406564584124654e-324,0.01605508271397578,2.6474895023439993e-05
1729090166.373625,-4.9406564584124654e-324,0.01644409061177797,1.5884937014063995e-05
1729090166.381624,-4.9406564584124654e-324,0.016464650319728272,9.5309622084383963e-06
1729090166.38963,-4.9406564584124654e-324,0.016051296083036421,5.7185773250630375e-06
1729090166.397678,-4.9406564584124654e-324,0.015590438510290294,3.4311463950378225e-06
1729090166.405632,-4.9406564584124654e-324,0.015526768997373633,2.0586878370226934e-06
1729090166.413621,-4.9406564584124654e-324,0.015914257351085669,0.00085261533562627681
1729090166.421645,-4.9406564584124654e-324,0.016572440424774924,0.0013629493242998292
1729090166.429666,-4.9406564584124654e-324,0.016754505238257458,0.00081776959457989756
1729090166.437642,-4.9406564584124654e-324,0.016438054064884945,0.0013420418796720017
1729090166.446278,-4.9406564584124654e-324,0.016461028391592455,0.0016566052507272643
1729090166.453694,-4.9406564584124654e-324,0.016474812987616966,0.00099396315043635852
1729090166.461704,-4.9406564584124654e-324,0.016270238714500652,0.00059637789026181505
1729090166.469663,-4.9406564584124654e-324,0.016573184212092897,0.00035782673415708896
1729090166.477647,-4.9406564584124654e-324,0.016967796541379261,0.00021469604049425336
1729090166.485682,-4.9406564584124654e-324,0.016566028846758028,0.00012881762429655202
1729090166.493706,-4.9406564584124654e-324,0.015899278168523261,7.72905745779312e-05
1729090166.501631,-4.9406564584124654e-324,0.015924917823044428,4.6374344746758715e-05
1729090166.509583,-4.9406564584124654e-324,0.016153146646488148,2.7824606848055229e-05
1729090166.517646,-4.9406564584124654e-324,0.016077238909823363,1.6694764108833139e-05
1729090166.525651,-4.9406564584124654e-324,0.016031694267824491,1.0016858465299881e-05
1729090166.533621,-4.9406564584124654e-324,0.016004367482625168,6.010115079179928e-06
1729090166.541583,-4.9406564584124654e-324,0.016200816442236587,3.6060690475079565e-06
1729090166.549639,-4.9406564584124654e-324,0.01653153084873446,2.1636414285047739e-06
1729090166.557644,-4.9406564584124654e-324,0.016517114461902162,1.2981848571028642e-06
1729090166.565677,-4.9406564584124654e-324,0.015869929537609739,7.7891091426171863e-07
1729090166.573646,-4.9406564584124654e-324,0.01526877355230327,4.6734654855703114e-07
1729090166.581661,-4.9406564584124654e-324,0.015546615053312436,0.00085166053085319741
1729090166.58965,-4.9406564584124654e-324,0.015926164984648952,0.0024266015950910606
1729090166.597665,-4.9406564584124654e-324,0.015941049912719843,0.0035844112643647948
1729090166.605608,-4.9406564584124654e-324,0.015949980869562376,0.0032148719122739563
1729090166.613645,-4.9406564584124654e-324,0.016168184474398918,0.0027803032702884371
1729090166.621687,-4.9406564584124654e-324,0.016511951668031856,0.0025195620850971255
1729090166.62968,-4.9406564584124654e-324,0.016718211984211619,0.0015117372510582753
1729090166.638369,-4.9406564584124654e-324,0.016841968173919475,0.00090704235063496512
1729090166.645843,-4.9406564584124654e-324,0.016703376857013175,0.00054422541038097905
1729090166.653648,-4.9406564584124654e-324,0.01619453200540736,0.00032653524622858741
1729090166.661662,-4.9406564584124654e-324,0.015676380063712858,0.00019592114773715242
1729090166.66965,-4.9406564584124654e-324,0.015365488898696156,0.00011755268864229145
1729090166.677586,-4.9406564584124654e-324,0.015604644261148166,7.0531613185374878e-05
1729090166.685673,-4.9406564584124654e-324,0.016173827540081405,0.00089369909083528815
1729090166.693666,-4.9406564584124654e-324,0.016302492476710333,0.0013875995774252359
1729090166.701664,-4.9406564584124654e-324,0.016166846407956674,0.0016839398693792047
1729090166.709616,-4.9406564584124654e-324,0.016085458766704478,0.0027131241674756492
1729090166.717652,-4.9406564584124654e-324,0.016036626181953159,0.0024792546234094527
1729090166.725659,-4.9406564584124654e-324,0.016220171661833385,0.0014875527740456716
1729090166.733658,-4.9406564584124654e-324,0.016543143980492538,0.00089253166442740286
1729090166.741585,-4.9406564584124654e-324,0.016311237310225997,0.00053551899865644174
1729090166.74965,-4.9406564584124654e-324,0.015746403246604042,0.00032131139919386504
1729090166.757647,-4.9406564584124654e-324,0.015407502808430867,0.000192786839516319
1729090166.76565,-4.9406564584124654e-324,0.015417007576257977,0.00011567210370979139
1729090166.773593,-4.9406564584124654e-324,0.015635555467685261,0.00092078338514993798
1729090166.781642,-4.9406564584124654e-324,0.015979529233272644,0.0022552302769380892
1729090166.789822,-4.9406564584124654e-324,0.016185913492625076,0.0022045182890869167
1729090166.797695,-4.9406564584124654e-324,0.016096899017505516,0.00132271097345215
1729090166.805648,-4.9406564584124654e-324,0.016469180393895815,0.00079362658407129
1729090166.813659,-4.9406564584124654e-324,0.017118239281192028,0.00047617595044277398
1729090166.821718,-4.9406564584124654e-324,0.01729482958283874,0.0011370856931897275
1729090166.829694,-4.9406564584124654e-324,0.016762248671633718,0.0023850116617619628
1729090166.837681,-4.9406564584124654e-324,0.016017010063448675,0.0031337672429053044
1729090166.845788,-4.9406564584124654e-324,0.01578271192926866,0.0035830205915913091
1729090166.853671,-4.9406564584124654e-324,0.016067823110222687,0.003852572600802912
1729090166.86171,-4.9406564584124654e-324,0.016238889818795101,0.0031629236834058105
1729090166.869672,-4.9406564584124654e-324,0.016341529843938551,0.0018977542100434863
1729090166.877606,-4.9406564584124654e-324,0.016403113859024619,0.0011386525260260916
1729090166.88566,-4.9406564584124654e-324,0.016014374206614231,0.00068319151561565487
1729090166.893653,-4.9406564584124654e-324,0.015781130415167995,0.00040991490936939288
1729090166.901662,-4.9406564584124654e-324,0.016066874201762289,0.00024594894562163575
1729090166.909622,-4.9406564584124654e-324,0.016451165504449878,0.00014756936737298144
1729090166.917666,-4.9406564584124654e-324,0.016681740286062431,8.8541620423788846e-05
1729090166.925693,-4.9406564584124654e-324,0.016820085155029963,5.3124972254273308e-05
1729090166.933697,-4.9406564584124654e-324,0.016903092076410484,0.00088325510627662715
1729090166.941595,-4.9406564584124654e-324,0.01652720616777676,0.0013813331866900395
1729090166.949669,-4.9406564584124654e-324,0.016301674622596532,0.001680180034938087
1729090166.957629,-4.9406564584124654e-324,0.016592045756950426,0.0027108682668109787
1729090166.965714,-4.9406564584124654e-324,0.016340578376100728,0.0024779010830106502
1729090166.973672,-4.9406564584124654e-324,0.015764007886128879,0.00148674064980639
1729090166.981625,-4.9406564584124654e-324,0.015630910622876783,0.00089204438988383403
1729090166.989636,-4.9406564584124654e-324,0.015763897295656543,0.00053522663393030048
1729090166.997782,-4.9406564584124654e-324,0.015630844268593382,0.0013853611340132594
1729090167.00567,-4.9406564584124654e-324,0.015763857483086504,0.0029596669877181136
1729090167.013795,-4.9406564584124654e-324,0.016269355473244408,0.0039042504999410267
1729090167.021675,-4.9406564584124654e-324,0.016146964205877121,0.0042581555765437585
1729090167.029667,-4.9406564584124654e-324,0.015860684414725729,0.0034062734688503184
1729090167.037682,-4.9406564584124654e-324,0.015688916540034896,0.0020437640813101908
1729090167.04571,-4.9406564584124654e-324,0.015585855815220396,0.0012262584487861146
1729090167.05366,-4.9406564584124654e-324,0.015949709441793726,0.00073575506927166874
1729090167.061676,-4.9406564584124654e-324,0.016380866648468741,0.00044145304156300116
1729090167.069708,-4.9406564584124654e-324,0.016639560972473752,0.0011162519478618638
1729090167.077693,-4.9406564584124654e-324,0.01658193253614574,0.0023725114145652449
1729090167.08566,-4.9406564584124654e-324,0.016334510443617917,0.0031262670945872732
1729090167.093652,-4.9406564584124654e-324,0.016186057188101222,0.0035785205026004903
1729090167.101666,-4.9406564584124654e-324,0.01630983026552222,0.0029984924244843571
1729090167.109601,-4.9406564584124654e-324,0.01638409411197482,0.0017990954546906143
1729090167.117642,-4.9406564584124654e-324,0.016002962358384349,0.0010794572728143686
1729090167.125686,-4.9406564584124654e-324,0.015561438275499051,0.0006476743636886211
1729090167.133734,-4.9406564584124654e-324,0.015296523825767872,0.00038860461821317257
1729090167.141758,-4.9406564584124654e-324,0.015563265217391197,0.00023316277092790352
1729090167.149648,-4.9406564584124654e-324,0.015936155083096207,0.00099127778548080523
1729090167.157652,-4.9406564584124654e-324,0.015734198941057181,0.0014461467942125461
1729090167.165673,-4.9406564584124654e-324,0.015613025255833766,0.00086768807652752773
1729090167.173607,-4.9406564584124654e-324,0.015753166075430734,0.0013719929688405796
1729090167.181635,-4.9406564584124654e-324,0.015837250567188911,0.0016745759042284109
1729090167.189644,-4.9406564584124654e-324,0.015887701262243821,0.0010047455425370466
1729090167.197673,-4.9406564584124654e-324,0.015917971679276766,0.0016670724791773071
1729090167.205648,-4.9406564584124654e-324,0.015936133929496533,0.0020644686411614632
1729090167.213634,-4.9406564584124654e-324,0.015947031279628394,0.001238681184696878
1729090167.221649,-4.9406564584124654e-324,0.016166414720438525,0.00074320871081812677
1729090167.229686,-4.9406564584124654e-324,0.016298044784924602,0.00044592522649087598
1729090167.237653,-4.9406564584124654e-324,0.016164177792885235,0.00026755513589452561
1729090167.245749,-4.9406564584124654e-324,0.016083857597661615,0.00016053308153671534
1729090167.253645,-4.9406564584124654e-324,0.015822820449796427,9.6319848922029201e-05
1729090167.261691,-4.9406564584124654e-324,0.015879043191808329,5.7791909353217526e-05
1729090167.269687,-4.9406564584124654e-324,0.016551311929208522,3.4675145611930515e-05
1729090167.277738,-4.9406564584124654e-324,0.016741828140917618,2.0805087367158309e-05
1729090167.285645,-4.9406564584124654e-324,0.016217602775750031,1.2483052420294985e-05
1729090167.293697,-4.9406564584124654e-324,0.015690222525918458,7.4898314521769909e-06
1729090167.30168,-4.9406564584124654e-324,0.015586639406750534,4.4938988713061949e-06
1729090167.310057,-4.9406564584124654e-324,0.015737334565980796,2.6963393227837164e-06
1729090167.317654,-4.9406564584124654e-324,0.015827751661518952,1.6178035936702299e-06
1729090167.325627,-4.9406564584124654e-324,0.015669156888110828,9.70682156202138e-07
1729090167.334959,-4.9406564584124654e-324,0.015361154993334939,5.8240929372128272e-07
1729090167.341654,-4.9406564584124654e-324,0.015176353856469406,3.4944557623276962e-07
1729090167.349645,-4.9406564584124654e-324,0.015065473174350086,2.0966734573966176e-07
1729090167.357674,-4.9406564584124654e-324,0.014998944765078494,1.2580040744379706e-07
1729090167.365705,-4.9406564584124654e-324,0.015171872750246555,7.5480244466278227e-08
1729090167.373658,-4.9406564584124654e-324,0.015488474572078408,4.5288146679766931e-08
1729090167.381619,-4.9406564584124654e-324,0.015252745603715487,2.717288800786016e-08
1729090167.38966,-4.9406564584124654e-324,0.014685618161235703,1.6303732804716097e-08
1729090167.397704,-4.9406564584124654e-324,0.014771031757209863,0.00085138990516374607
1729090167.405632,-4.9406564584124654e-324,0.015673660037718425,0.0022135941889463739
1729090167.413661,-4.9406564584124654e-324,0.016640927067485593,0.0021795366362918874
1729090167.421666,-4.9406564584124654e-324,0.017221287285345895,0.0013077219817751325
1729090167.429675,-4.9406564584124654e-324,0.017569503416062074,0.00078463318906507942
1729090167.437636,-4.9406564584124654e-324,0.017565588063760768,0.00047077991343904765
1729090167.445661,-4.9406564584124654e-324,0.017563238852379981,0.0002824679480634286
1729090167.453664,-4.9406564584124654e-324,0.01756182932555151,0.0010208608917621203
1729090167.461682,-4.9406564584124654e-324,0.016922448517261379,0.0023152767809053983
1729090167.469646,-4.9406564584124654e-324,0.016113129970825271,0.0022405461914673025
1729090167.477621,-4.9406564584124654e-324,0.016266073935156652,0.0013443277148803812
1729090167.485643,-4.9406564584124654e-324,0.016783530375217515,0.00080659662892822886
1729090167.49369,-4.9406564584124654e-324,0.016668314177791996,0.00048395797735693727
1729090167.501642,-4.9406564584124654e-324,0.016386339428605672,0.00029037478641416234
1729090167.509615,-4.9406564584124654e-324,0.016217154579093875,0.0001742248718484974
1729090167.517608,-4.9406564584124654e-324,0.016115643669386798,0.00095591504603316155
1729090167.525616,-4.9406564584124654e-324,0.016267582154293567,0.0024891543041990392
1729090167.533666,-4.9406564584124654e-324,0.016784435306699663,0.0025577177361745026
1729090167.541577,-4.9406564584124654e-324,0.017094547198143319,0.0015346306417047015
1729090167.549625,-4.9406564584124654e-324,0.017067769302278497,0.00092077838502282094
1729090167.557615,-4.9406564584124654e-324,0.016838857534028587,0.00055246703101369254
1729090167.565651,-4.9406564584124654e-324,0.016488665442347623,0.0003314802186082155
1729090167.57358,-4.9406564584124654e-324,0.016491395218070061,0.00019888813116492932
1729090167.581622,-4.9406564584124654e-324,0.016705878114234542,0.00011933287869895759
1729090167.589621,-4.9406564584124654e-324,0.016621722821202216,7.1599727219374553e-05
1729090167.597674,-4.9406564584124654e-324,0.016145539583920787,4.2959836331624729e-05
1729090167.605616,-4.9406564584124654e-324,0.016072674672282947,2.577590179897484e-05
1729090167.61364,-4.9406564584124654e-324,0.01645464578676227,0.00086684566400344802
1729090167.62162,-4.9406564584124654e-324,0.016258138393987837,0.0013714875213261318
1729090167.629691,-4.9406564584124654e-324,0.01592738892759216,0.00082289251279567906
1729090167.637638,-4.9406564584124654e-324,0.016154629309216784,0.00049373550767740741
1729090167.645913,-4.9406564584124654e-324,0.01671666359965359,0.00029624130460644444
1729090167.65364,-4.9406564584124654e-324,0.017053884173915675,0.00017774478276386666
1729090167.661667,-4.9406564584124654e-324,0.016830526457010893,0.00010664686965831998
1729090167.669655,-4.9406564584124654e-324,0.016696511826868023,6.3988121794991991e-05
1729090167.677692,-4.9406564584124654e-324,0.016616103048782305,3.8392873076995189e-05
1729090167.685617,-4.9406564584124654e-324,0.016355012751199854,2.3035723846197112e-05
1729090167.693709,-4.9406564584124654e-324,0.016198358572650385,1.3821434307718268e-05
1729090167.701666,-4.9406564584124654e-324,0.015678676004058673,8.2928605846309599e-06
1729090167.709597,-4.9406564584124654e-324,0.014941176401441615,4.9757163507785756e-06
1729090167.717629,-4.9406564584124654e-324,0.014711521670602397,2.9854298104671452e-06
1729090167.725664,-4.9406564584124654e-324,0.014786573862829881,1.7912578862802872e-06
1729090167.733668,-4.9406564584124654e-324,0.014831605178166372,1.0747547317681723e-06
1729090167.741602,-4.9406564584124654e-324,0.015284314028830298,6.4485283906090335e-07
1729090167.749652,-4.9406564584124654e-324,0.015981629400690686,3.8691170343654199e-07
1729090167.757615,-4.9406564584124654e-324,0.0161871735930759,2.3214702206192517e-07
1729090167.765671,-4.9406564584124654e-324,0.016310500108507028,1.3928821323715509e-07
1729090167.773646,-4.9406564584124654e-324,0.016597341048496722,8.3572927942293055e-08
1729090167.781652,-4.9406564584124654e-324,0.016556600581759524,0.0008514302666808286
1729090167.789698,-4.9406564584124654e-324,0.01610646624025517,0.0013622382829325602
1729090167.797657,-4.9406564584124654e-324,0.016049230666083575,0.00081734296975953611
1729090167.805666,-4.9406564584124654e-324,0.016014889321580621,0.00049040578185572162
1729090167.813719,-4.9406564584124654e-324,0.015781439484147831,0.00029424346911343296
1729090167.821631,-4.9406564584124654e-324,0.015641369581688158,0.00017654608146805976
1729090167.829647,-4.9406564584124654e-324,0.01513163757875032,0.00010592764888083585
1729090167.837632,-4.9406564584124654e-324,0.014825798376987618,0.0011277817429835807
1729090167.846216,-4.9406564584124654e-324,0.015067984917392028,0.0025922743223692904
1729090167.853671,-4.9406564584124654e-324,0.015638986903096709,0.0032581248392697009
1729090167.861687,-4.9406564584124654e-324,0.01619443312525053,0.0028062550264858835
1729090167.86965,-4.9406564584124654e-324,0.016527700858542823,0.0016837530158915299
1729090167.877616,-4.9406564584124654e-324,0.016514816467787186,0.001010251809534918
1729090167.885627,-4.9406564584124654e-324,0.016719930864064814,0.00060615108572095071
1729090167.893645,-4.9406564584124654e-324,0.017055844532562411,0.0012150707743566335
1729090167.90165,-4.9406564584124654e-324,0.016406012610736903,0.0026446477411931225
1729090167.909614,-4.9406564584124654e-324,0.015590423396179567,0.0037152389520260318
1729090167.917597,-4.9406564584124654e-324,0.015526759928907197,0.0032933685248706982
1729090167.925649,-4.9406564584124654e-324,0.015701406879274793,0.0019760211149224189
1729090167.933688,-4.9406564584124654e-324,0.016019040080226365,0.0011856126689534512
1729090167.941662,-4.9406564584124654e-324,0.016209620000797308,0.00071136760137207071
1729090167.949608,-4.9406564584124654e-324,0.016323967953139874,0.0004268205608232424
1729090167.957617,-4.9406564584124654e-324,0.01660542175527643,0.00025609233649394547
1729090167.965667,-4.9406564584124654e-324,0.016561449005827348,0.0012178805555514464
1729090167.973624,-4.9406564584124654e-324,0.016109375294695867,0.0028591786406410259
1729090167.981602,-4.9406564584124654e-324,0.015625286037285961,0.0027797323380396948
1729090167.989627,-4.9406564584124654e-324,0.015547677513571036,0.0016678394028238168
1729090167.997654,-4.9406564584124654e-324,0.015926802460804114,0.0010007036416942901
1729090168.005639,-4.9406564584124654e-324,0.016579967490605987,0.00060042218501657409
1729090168.013644,-4.9406564584124654e-324,0.016971866508487116,0.0014244784646650235
1729090168.021672,-4.9406564584124654e-324,0.016994160888484773,0.0019189122324540931
1729090168.029662,-4.9406564584124654e-324,0.016794692485752355,0.0011513473394724558
1729090168.037639,-4.9406564584124654e-324,0.01624932138265087,0.00069080840368347348
1729090168.045795,-4.9406564584124654e-324,0.015709253690058964,0.00041448504221008409
1729090168.053695,-4.9406564584124654e-324,0.015598058105234836,0.00024869102532605044
1729090168.061688,-4.9406564584124654e-324,0.015957030815802388,0.00014921461519563025
1729090168.069641,-4.9406564584124654e-324,0.016172414442142923,8.9528769117378144e-05
1729090168.077634,-4.9406564584124654e-324,0.016088799587216228,5.3717261470426881e-05
1729090168.08569,-4.9406564584124654e-324,0.016038630674260208,3.223035688225613e-05
1729090168.093672,-4.9406564584124654e-324,0.016434219387948631,1.9338214129353677e-05
1729090168.101652,-4.9406564584124654e-324,0.016671572616161687,1.1602928477612206e-05
1729090168.109649,-4.9406564584124654e-324,0.016388294491627486,6.9617570865673236e-06
1729090168.117673,-4.9406564584124654e-324,0.016431172647637979,4.1770542519403941e-06
1729090168.12562,-4.9406564584124654e-324,0.016456899541244276,2.5062325511642366e-06
1729090168.133671,-4.9406564584124654e-324,0.016046645615946022,1.5037395306985419e-06
1729090168.141638,-4.9406564584124654e-324,0.015800493260767073,9.0224371841912503e-07
1729090168.149614,-4.9406564584124654e-324,0.015865646878390718,5.4134623105147504e-07
1729090168.157698,-4.9406564584124654e-324,0.016117584079695921,3.2480773863088502e-07
1729090168.165696,-4.9406564584124654e-324,0.016694436461941072,1.94884643178531e-07
1729090168.173671,-4.9406564584124654e-324,0.016614857829826135,1.169307859071186e-07
1729090168.181641,-4.9406564584124654e-324,0.016141420589095137,0.00085145028139560746
1729090168.189676,-4.9406564584124654e-324,0.016070203275387555,0.0013622502917614277
1729090168.197669,-4.9406564584124654e-324,0.016027472887163004,0.00081735017505685649
1729090168.20566,-4.9406564584124654e-324,0.016214679684959293,0.00049041010503411394
1729090168.213666,-4.9406564584124654e-324,0.016752693825099096,0.00029424606302046836
1729090168.221665,-4.9406564584124654e-324,0.017075502309182977,0.00017654763781228101
1729090168.229721,-4.9406564584124654e-324,0.017056342368902293,0.0001059285826873686
1729090168.237712,-4.9406564584124654e-324,0.017044846404733881,6.3557149612421168e-05
1729090168.245842,-4.9406564584124654e-324,0.017037948826232836,3.8134289767452692e-05
1729090168.253645,-4.9406564584124654e-324,0.017246655309863225,2.2880573860471615e-05
1729090168.261691,-4.9406564584124654e-324,0.017159034169310437,0.00086510846724034609
1729090168.269694,-4.9406564584124654e-324,0.016467926392785721,0.0022218253261923342
1729090168.277701,-4.9406564584124654e-324,0.015840416696139878,0.0030358554415635267
1729090168.285651,-4.9406564584124654e-324,0.015676755908883386,0.0037371185415172583
1729090168.293677,-4.9406564584124654e-324,0.015791404467260503,0.0033064962785654337
1729090168.30169,-4.9406564584124654e-324,0.015647348571555759,0.0019838977671392602
1729090168.309637,-4.9406564584124654e-324,0.015560915034132913,0.0011903386602835561
1729090168.317622,-4.9406564584124654e-324,0.01572189994241022,0.00071420319617013358
1729090168.331088,-4.9406564584124654e-324,0.016031335918107622,0.00042852191770208014
1729090168.333665,-4.9406564584124654e-324,0.01642984253425708,0.00025711315062124806
1729090168.341684,-4.9406564584124654e-324,0.01624325644248472,0.00015426789037274884
1729090168.349651,-4.9406564584124654e-324,0.015705614725959275,9.2560734223649295e-05
1729090168.357645,-4.9406564584124654e-324,0.015808719757506036,5.5536440534189577e-05
1729090168.365874,-4.9406564584124654e-324,0.01608342780716511,3.3321864320513749e-05
1729090168.373645,-4.9406564584124654e-324,0.01603540760622954,1.9993118592308245e-05
1729090168.38165,-4.9406564584124654e-324,0.01579375045493718,1.1995871155384947e-05
1729090168.389669,-4.9406564584124654e-324,0.015223066102699735,7.1975226932309683e-06
1729090168.397667,-4.9406564584124654e-324,0.014880655491357267,0.0008556986365400017
1729090168.405672,-4.9406564584124654e-324,0.015313744216744833,0.0022161794277721272
1729090168.413653,-4.9406564584124654e-324,0.016212132544170421,0.0021810877795873395
1729090168.421657,-4.9406564584124654e-324,0.016325475479163742,0.0023728778214074826
1729090168.429675,-4.9406564584124654e-324,0.015754946147966686,0.0033393319694236317
1729090168.437695,-4.9406564584124654e-324,0.015838318610710486,0.0028549793045782425
1729090168.445802,-4.9406564584124654e-324,0.016314032149818795,0.0025643677056710083
1729090168.453672,-4.9406564584124654e-324,0.016386615242552766,0.0032413808692507316
1729090168.46169,-4.9406564584124654e-324,0.016217320067462133,0.0036475887673985651
1729090168.469662,-4.9406564584124654e-324,0.016115742962407753,0.0030399333833632022
1729090168.477653,-4.9406564584124654e-324,0.016054796699375123,0.0018239600300179212
1729090168.485657,-4.9406564584124654e-324,0.016018228941555544,0.0010943760180107528
1729090168.493661,-4.9406564584124654e-324,0.015996288286863801,0.00065662561080645173
1729090168.501688,-4.9406564584124654e-324,0.016195968924779772,0.000393975366483871
1729090168.50956,-4.9406564584124654e-324,0.016741467368991382,0.00023638521989032259
1729090168.517653,-4.9406564584124654e-324,0.01706876643551835,0.00014183113193419356
1729090168.525654,-4.9406564584124654e-324,0.017052300844703515,8.5098679160516133e-05
1729090168.533691,-4.9406564584124654e-324,0.016829576459483596,5.1059207496309672e-05
1729090168.54173,-4.9406564584124654e-324,0.016483096797620632,3.0635524497785807e-05
1729090168.549618,-4.9406564584124654e-324,0.016275209000502854,1.8381314698671482e-05
1729090168.55765,-4.9406564584124654e-324,0.015937631291501171,0.00086240891174326612
1729090168.565699,-4.9406564584124654e-324,0.015735084666100161,0.0022202055928940857
1729090168.573642,-4.9406564584124654e-324,0.015826401721590569,0.0021835034786605147
1729090168.581652,-4.9406564584124654e-324,0.015881191954884813,0.0013101020871963086
1729090168.589683,-4.9406564584124654e-324,0.015701221064130345,0.00078606125231778516
1729090168.597646,-4.9406564584124654e-324,0.015593238529677665,0.00047163675139067103
1729090168.605662,-4.9406564584124654e-324,0.015741294039737071,0.00028298205083440264
1729090168.613648,-4.9406564584124654e-324,0.016042972376503734,0.00016978923050064157
1729090168.621643,-4.9406564584124654e-324,0.016223979378563728,0.00010187353830038494
1729090168.629681,-4.9406564584124654e-324,0.016119738549068709,0.00091250424590429418
1729090168.637634,-4.9406564584124654e-324,0.016270039082102714,0.0013988826704666398
1729090168.645677,-4.9406564584124654e-324,0.016360219401923119,0.00083932960227998379
1729090168.653659,-4.9406564584124654e-324,0.015988637532353328,0.0005035977613679903
1729090168.661672,-4.9406564584124654e-324,0.015552843379880438,0.00030215865682079411
1729090168.669665,-4.9406564584124654e-324,0.015291366888396704,0.00018129519409247646
1729090168.677624,-4.9406564584124654e-324,0.015560171054968494,0.00010877711645548589
1729090168.685648,-4.9406564584124654e-324,0.016359988647104619,6.5266269873291528e-05
1729090168.69367,-4.9406564584124654e-324,0.01683987920238629,3.9159761923974917e-05
1729090168.701668,-4.9406564584124654e-324,0.016702123474093264,2.349585715438495e-05
1729090168.709615,-4.9406564584124654e-324,0.016406625006386431,1.4097514292630971e-05
1729090168.717613,-4.9406564584124654e-324,0.016229325925762331,0.00085983863149964178
1729090168.726102,-4.9406564584124654e-324,0.016335791508118886,0.0013672833018238482
1729090168.733703,-4.9406564584124654e-324,0.01682536091899485,0.00082036998109430892
1729090168.741661,-4.9406564584124654e-324,0.017119102565520433,0.00049222198865658535
1729090168.749634,-4.9406564584124654e-324,0.017082502522704764,0.0013595583468490303
1729090168.757636,-4.9406564584124654e-324,0.017060542497015364,0.0029441853154195761
1729090168.765697,-4.9406564584124654e-324,0.017047366481601725,0.0038949614965619037
1729090168.773629,-4.9406564584124654e-324,0.017252305903084554,0.0034012020515922208
1729090168.781634,-4.9406564584124654e-324,0.017375269555974251,0.0020407212309553327
1729090168.789607,-4.9406564584124654e-324,0.017023357686246042,0.0012244327385731995
1729090168.797703,-4.9406564584124654e-324,0.017025055595140129,0.00073465964314391955
1729090168.805638,-4.9406564584124654e-324,0.017238919371207598,0.00044079578588635172
1729090168.813635,-4.9406564584124654e-324,0.016515857513924016,0.00026447747153181104
1729090168.821704,-4.9406564584124654e-324,0.015656330338091835,0.00015868648291908661
1729090168.829676,-4.9406564584124654e-324,0.015779149124785577,0.00094659201267551516
1729090168.837641,-4.9406564584124654e-324,0.01627853045826385,0.0022707154534534358
1729090168.845689,-4.9406564584124654e-324,0.016578159258350815,0.0022138093949961245
1729090168.853676,-4.9406564584124654e-324,0.016545091507671979,0.0013282856369976749
1729090168.861685,-4.9406564584124654e-324,0.016525250857264674,0.00079697138219860485
1729090168.86971,-4.9406564584124654e-324,0.01672619149775131,0.00047818282931916289
1729090168.877589,-4.9406564584124654e-324,0.016633910851312276,0.00028690969759149776
1729090168.885694,-4.9406564584124654e-324,0.016365697432717839,0.00017214581855489863
1729090168.893688,-4.9406564584124654e-324,0.016204769381561179,0.00010328749113293917
1729090168.901666,-4.9406564584124654e-324,0.015895367520136164,0.00091335261760382667
1729090168.909618,-4.9406564584124654e-324,0.01592257143401217,0.0022507718164104223
1729090168.917607,-4.9406564584124654e-324,0.01636458384379981,0.0030532233356943797
1729090168.925673,-4.9406564584124654e-324,0.016629791289672388,0.0037475392779957699
1729090168.933664,-4.9406564584124654e-324,0.017001760787926957,0.0041641288433766042
1729090168.941573,-4.9406564584124654e-324,0.017224942486879696,0.0033498574289500252
1729090168.949664,-4.9406564584124654e-324,0.01672031641405829,0.0020099144573700154
1729090168.957644,-4.9406564584124654e-324,0.016417540770365446,0.0012059486744220092
1729090168.965668,-4.9406564584124654e-324,0.016448720414880758,0.00072356920465320549
1729090168.973636,-4.9406564584124654e-324,0.016041738140127913,0.00043414152279192323
1729090168.981658,-4.9406564584124654e-324,0.015797548775276206,0.00026048491367515394
1729090168.989674,-4.9406564584124654e-324,0.016076725217827215,0.00015629094820509236
1729090168.997676,-4.9406564584124654e-324,0.016457076114088833,9.3774568923055422e-05
1729090169.005619,-4.9406564584124654e-324,0.016685286651845807,5.6264741353833251e-05
1729090169.013643,-4.9406564584124654e-324,0.017035058005231002,0.00088513896773636321
1729090169.021692,-4.9406564584124654e-324,0.017244920817262123,0.0013824635035658811
1729090169.029662,-4.9406564584124654e-324,0.017370838504480797,0.00082947810213952864
1729090169.037663,-4.9406564584124654e-324,0.017233544086080983,0.00049768686128371709
1729090169.045686,-4.9406564584124654e-324,0.016725477373579063,0.00029861211677023028
1729090169.053613,-4.9406564584124654e-324,0.016420637346077911,0.00017916727006213814
1729090169.061659,-4.9406564584124654e-324,0.01623773332957722,0.00010750036203728287
1729090169.069646,-4.9406564584124654e-324,0.016127990919676805,0.00091588034014643293
1729090169.077613,-4.9406564584124654e-324,0.015849300443005539,0.0014009083270119229
1729090169.085709,-4.9406564584124654e-324,0.015682086157002784,0.00084054499620715381
1729090169.093681,-4.9406564584124654e-324,0.016007447646863161,0.00050432699772429222
1729090169.101783,-4.9406564584124654e-324,0.016415509571510403,0.00030259619863457534
1729090169.10973,-4.9406564584124654e-324,0.016447501695567732,0.0010329378421048082
1729090169.117648,-4.9406564584124654e-324,0.016253851939271112,0.0014711428281869482
1729090169.125714,-4.9406564584124654e-324,0.016563352146955174,0.00088268569691216884
1729090169.133648,-4.9406564584124654e-324,0.01717474233302764,0.00052961141814730133
1729090169.141594,-4.9406564584124654e-324,0.017328731413940104,0.00031776685088838078
1729090169.149637,-4.9406564584124654e-324,0.016782589770294537,0.00019066011053302847
1729090169.157645,-4.9406564584124654e-324,0.016029214722645166,0.00096577618924388023
1729090169.165673,-4.9406564584124654e-324,0.015790034724786559,0.0022822259593944542
1729090169.173624,-4.9406564584124654e-324,0.01585937175680241,0.002220715698560736
1729090169.181648,-4.9406564584124654e-324,0.015900973976011916,0.0013324294191364413
1729090169.189647,-4.9406564584124654e-324,0.015713090276806608,0.00079945765148186471
1729090169.197671,-4.9406564584124654e-324,0.01581320508801444,0.00047967459088911886
1729090169.20563,-4.9406564584124654e-324,0.016298964036201166,0.0002878047545334713
1729090169.213653,-4.9406564584124654e-324,0.016590419405113205,0.00017268285272008276
1729090169.221689,-4.9406564584124654e-324,0.016765292626460426,0.00010360971163204965
1729090169.229669,-4.9406564584124654e-324,0.016870216559268764,6.2165826979229791e-05
1729090169.23764,-4.9406564584124654e-324,0.016933170918953761,3.7299496187537872e-05
1729090169.245675,-4.9406564584124654e-324,0.016970943534764762,2.2379697712522723e-05
1729090169.253671,-4.9406564584124654e-324,0.016993607104251358,1.3427818627513633e-05
1729090169.261669,-4.9406564584124654e-324,0.016794360215212304,8.0566911765081804e-06
1729090169.269622,-4.9406564584124654e-324,0.01688765711251989,4.8340147059049074e-06
1729090169.277661,-4.9406564584124654e-324,0.017369325312366471,0.00085428053174760614
1729090169.28568,-4.9406564584124654e-324,0.017232636170812388,0.0022153285648966901
1729090169.293688,-4.9406564584124654e-324,0.01651208759368689,0.0021805772618620775
1729090169.301631,-4.9406564584124654e-324,0.015866913416680575,0.0013083463571172463
1729090169.309629,-4.9406564584124654e-324,0.015266963879745771,0.00078500781427034766
1729090169.31766,-4.9406564584124654e-324,0.015119839188315904,0.00047100468856220857
1729090169.325652,-4.9406564584124654e-324,0.015457254434920015,0.0011339829360613883
1729090169.333617,-4.9406564584124654e-324,0.015659703582882482,0.0015317698845608962
1729090169.341592,-4.9406564584124654e-324,0.015781173071659965,0.00091906193073653763
1729090169.349646,-4.9406564584124654e-324,0.016279744826388484,0.00055143715844192267
1729090169.357642,-4.9406564584124654e-324,0.016791732909956614,0.00033086229506515354
1729090169.365678,-4.9406564584124654e-324,0.016673235698635457,0.00019851737703909214
1729090169.373613,-4.9406564584124654e-324,0.01638929234111175,0.00011911042622345528
1729090169.381643,-4.9406564584124654e-324,0.01643177135732854,7.1466255734073169e-05
1729090169.389649,-4.9406564584124654e-324,0.016882948828520643,4.2879753440443899e-05
1729090169.397674,-4.9406564584124654e-324,0.016940810280504891,2.5727852064266338e-05
1729090169.405629,-4.9406564584124654e-324,0.016336992059502391,1.54367112385598e-05
1729090169.413667,-4.9406564584124654e-324,0.016187546157631912,0.00086064214966719899
1729090169.421668,-4.9406564584124654e-324,0.016523568677971653,0.0022191455356484458
1729090169.42966,-4.9406564584124654e-324,0.016299492128713462,0.0021828674443131304
1729090169.437702,-4.9406564584124654e-324,0.015952201168427535,0.001309720466587878
1729090169.445893,-4.9406564584124654e-324,0.015956671622986994,0.00078583227995272678
1729090169.453623,-4.9406564584124654e-324,0.015959353895722672,0.00047149936797163613
1729090169.462415,-4.9406564584124654e-324,0.01638665332082611,0.00028289962078298164
1729090169.469636,-4.9406564584124654e-324,0.016855878006619186,0.0010211198953938522
1729090169.477702,-4.9406564584124654e-324,0.016711722756632998,0.0014640520601603745
1729090169.485656,-4.9406564584124654e-324,0.016199539545179255,0.00087843123609622465
1729090169.49366,-4.9406564584124654e-324,0.015679384587575996,0.00052705874165773485
1729090169.501635,-4.9406564584124654e-324,0.015367291613014041,0.00031623524499464089
1729090169.509637,-4.9406564584124654e-324,0.015392880859007883,0.0012539663006518637
1729090169.517646,-4.9406564584124654e-324,0.015621079437335204,0.0026679850569702604
1729090169.525636,-4.9406564584124654e-324,0.015545153553600581,0.0024521711571062195
1729090169.533666,-4.9406564584124654e-324,0.015499598023359807,0.0025355278479188108
1729090169.541714,-4.9406564584124654e-324,0.015685109735946355,0.0036497670160614447
1729090169.549614,-4.9406564584124654e-324,0.016222106824960319,0.0045311555476780412
1729090169.557616,-4.9406564584124654e-324,0.016969995139830728,0.0050599886666479986
1729090169.565668,-4.9406564584124654e-324,0.017418728128752975,0.0041002183536438782
1729090169.573644,-4.9406564584124654e-324,0.017687967922106321,0.0024601310121863266
1729090169.581687,-4.9406564584124654e-324,0.01784951179811833,0.0014760786073117959
1729090169.58967,-4.9406564584124654e-324,0.017946438123725535,0.00088564716438707756
1729090169.59768,-4.9406564584124654e-324,0.017791748888358841,0.00053138829863224658
1729090169.605609,-4.9406564584124654e-324,0.017486090316407812,0.00031883297917934791
1729090169.613645,-4.9406564584124654e-324,0.017089850142506177,0.00019129978750760874
1729090169.621647,-4.9406564584124654e-324,0.016639261007434181,0.00096615999542862838
1729090169.629664,-4.9406564584124654e-324,0.016368907526390981,0.0014310761201812403
1729090169.637664,-4.9406564584124654e-324,0.01620669543776506,0.00085864567210874399
1729090169.646125,-4.9406564584124654e-324,0.015896523153858495,0.00051518740326524635
1729090169.653702,-4.9406564584124654e-324,0.015710419783514555,0.00030911244195914783
1729090169.661694,-4.9406564584124654e-324,0.016024447822770224,0.00018546746517548866
1729090169.669668,-4.9406564584124654e-324,0.016638554707785656,0.00096266060202935633
1729090169.677633,-4.9406564584124654e-324,0.017219863869525932,0.002493201637796756
1729090169.685704,-4.9406564584124654e-324,0.017142959305108063,0.0034115262592571962
1729090169.693672,-4.9406564584124654e-324,0.016671126504995311,0.0028982958784783807
1729090169.701636,-4.9406564584124654e-324,0.016388026824927661,0.0017389775270870284
1729090169.70964,-4.9406564584124654e-324,0.016005321986156056,0.0010433865162522171
1729090169.717671,-4.9406564584124654e-324,0.015562854052162076,0.00062603190975133013
1729090169.725674,-0.00085138012292406318,0.015510218322496702,0.00037561914585079802
1729090169.733618,-0.0013622081966785009,0.015478636884697479,0.0002253714875104788
1729090169.741553,-0.00081732491800710059,0.015459688022017946,0.0001352228925062873
1729090169.749641,-0.00049039495080426031,0.015874008765872256,8.1133735503772372e-05
1729090169.757668,-0.00029423697048255621,0.016548291273646876,4.8680241302263423e-05
1729090169.765693,-0.00017654218228953369,0.016952860778311648,2.9208144781358051e-05
1729090169.773646,-0.00010592530937372023,0.016769912419648481,1.752488686881483e-05
1729090169.781676,-6.3555185624232128e-05,0.016447298373719561,1.0514932121288898e-05
1729090169.789623,-3.813311137453928e-05,0.016253729946162213,0.00085768908219683649
1729090169.797684,-2.2879866824723564e-05,0.0161375888896278,0.0022173736951662283
1729090169.805621,-1.3727920094834137e-05,0.016067904255707151,0.0021818043400238002
1729090169.813655,-8.2367520569004826e-06,0.01581324844462375,0.00130908260401428
1729090169.821659,-4.9420512341402886e-06,0.015660454957973708,0.00078544956240856798
1729090169.829672,-2.9652307404841731e-06,0.015994468927445715,0.00047126973744514083
1729090169.837648,-1.7791384442905037e-06,0.016194877309128917,0.00028276184246708451
1729090169.846199,-1.0674830665743022e-06,0.015889432276676808,0.00016965710548025071
1729090169.853644,-6.4048983994458143e-07,0.015919010287936561,0.00010179426328815042
1729090169.861666,-3.842939039667488e-07,0.016575292186885457,0.00091245668089695348
1729090169.869655,-2.3057634238004927e-07,0.016969061326254795,0.0013988541314622354
1729090169.877748,-1.3834580542802957e-07,0.016992477779145383,0.00083931247887734104
1729090169.885673,-8.3007483256817718e-08,0.016793682620148718,0.0005035874873264046
1729090169.89367,-4.9804489954090633e-08,0.016674405524750718,0.00030215249239584277
1729090169.901662,-2.9882693972454375e-08,0.017028529328973953,0.00018129149543750565
1729090169.909686,-1.7929616383472626e-08,0.017241003611507891,0.00010877489726250338
1729090169.917658,-1.0757769830083575e-08,0.016942798119566227,6.5264938357502029e-05
1729090169.926139,-6.4546618980501437e-09,0.016551029793670208,0.0008905390859385644
1729090169.933667,-3.8727971388300864e-09,0.016741658859594631,0.0013857035744872018
1729090169.941602,-2.3236782832980516e-09,0.017281726360611316,0.00083142214469232101
1729090169.949673,-1.3942069699788308e-09,0.017392921830490311,0.00049885328681539257
1729090169.957664,-8.3652418198729846e-10,0.017246794081686691,0.00029931197208923557
1729090169.965683,-5.0191450919237911e-10,0.01715911743240452,0.00017958718325354134
1729090169.973627,-3.0114870551542742e-10,0.016680821381373185,0.00010775230995212479
1729090169.98168,-1.8068922330925643e-10,0.015542463627830322,6.4651385971274867e-05
1729090169.989674,-1.0841353398555386e-10,0.014646603944973588,3.8790831582764922e-05
1729090169.997716,-6.5048120391332309e-11,0.014747623227452595,2.3274498949658951e-05
1729090170.00568,-3.9028872234799387e-11,0.015233924858402029,1.396469936979537e-05
1729090170.013676,-2.3417323340879632e-11,0.015525705836971691,8.3788196218772213e-06
1729090170.021669,-1.4050394004527777e-11,0.015700774424113488,5.0272917731263331e-06
1729090170.029706,-8.4302364027166673e-12,0.015805815576398569,0.00085439649798793897
1729090170.037664,-5.0581418416300001e-12,0.016081685298500632,0.0013640180217168265
1729090170.045669,-3.0348851049780002e-12,0.016247207131761868,0.00081841081303009604
1729090170.053621,-1.8209310629868e-12,0.015920830170256577,0.00049104648781805762
1729090170.061675,-1.0925586377920799e-12,0.015725003993353404,0.00029462789269083455
1729090170.069806,-6.5553518267524794e-13,0.016246043379404548,0.0001767767356145007
1729090170.077611,-3.9332110960514874e-13,0.016984357072497264,0.00095744616429276356
1729090170.085661,-2.3599266576308924e-13,0.016788810196159847,0.002702918005885816
1729090170.093735,-1.4159559945785355e-13,0.016245792008895366,0.0028988209879175844
1729090170.101672,-8.4957359674712114e-14,0.016132826127267692,0.0017392925927505506
1729090170.109634,-5.0974415804827264e-14,0.016490736659753119,0.0010435755556503304
1729090170.117662,-3.0584649482896359e-14,0.01713117304070641,0.0006261453333901982
1729090170.125665,-1.8350789689737818e-14,0.017515434869278382,0.00037568720003411892
1729090170.133703,-1.101047381384269e-14,0.017533146935690552,0.00022541232002047131
1729090170.141571,-6.6062842883056133e-15,0.017118084114075817,0.00013524739201228278
1729090170.149658,-3.9637705729833678e-15,0.016443356359644948,0.00093252855813143285
1729090170.157638,-2.3782623437900208e-15,0.015825674676255411,0.0022622773807269864
1729090170.165687,-1.4269574062740122e-15,0.015667910696952704,0.0022087465513602549
1729090170.17364,-8.5617444376440732e-16,0.016211787401564128,0.0021766280537402162
1729090170.181674,-5.1370466625864433e-16,0.016750958455061998,0.0021573569551681928
1729090170.189667,-3.0822279975518658e-16,0.016861616056429704,0.0012944141731009158
1729090170.197819,-1.8493367985311196e-16,0.016928010617250328,0.00077664850386054943
1729090170.20567,-1.1096020791186717e-16,0.0169678473537427,0.0004659891023163296
1729090170.213651,-6.6576124747120304e-17,0.016778904364907109,0.00027959346138979775
1729090170.221645,-3.9945674848272173e-17,0.016665538571605756,0.0010191361997579419
1729090170.229666,-2.3967404908963304e-17,0.016810364126355955,0.0014628618427788283
1729090170.237653,-1.4380442945377983e-17,0.017110104489937092,0.00087771710566729704
1729090170.245751,-8.6282657672267885e-18,0.017502793738816795,0.00052663026340037827
1729090170.253654,-5.1769594603360729e-18,0.017525562257413599,0.0011673582809642901
1729090170.262128,-3.1061756762016436e-18,0.017113533307109647,0.0015517950915026374
1729090170.269649,-1.863705405720986e-18,0.01665347090619626,0.0009310770549015824
1729090170.277671,-1.1182232434325916e-18,0.016377433465648229,0.0005586462329409494
1729090170.285648,-6.7093394605955482e-19,0.016424656032050428,0.00033518773976456962
1729090170.293663,-4.0256036763573286e-19,0.016878679633353776,0.0002011126438587418
1729090170.301666,-2.4153622058143969e-19,0.016938248763404773,0.00097204770923930831
1729090170.309591,-1.4492173234886383e-19,0.016548300179973337,0.0022859888713917115
1729090170.317627,-8.6953039409318281e-20,0.016314331029914475,0.0030743535686831528
1729090170.326193,-5.2171823645590976e-20,0.016173949539879155,0.0026959922641339546
1729090170.333739,-3.1303094187354584e-20,0.016089720645857966,0.0024689754814044363
1729090170.341966,-1.8781856512412749e-20,0.016039183309445253,0.0031841455346907879
1729090170.349658,-1.1269113907447649e-20,0.016008860907597625,0.0027618674437385358
1729090170.357626,-6.7614683444685892e-21,0.015990667466489049,0.002508500589167185
1729090170.365672,-4.0568810066811538e-21,0.016192596432554919,0.0023564804764243741
1729090170.373629,-2.4341286040086921e-21,0.016526598842925455,0.0014138882858546241
1729090170.381622,-1.460477162405215e-21,0.016514155258416763,0.00084833297151277445
1729090170.389668,-8.7628629744312899e-22,0.016293844076980528,0.00050899978290766469
1729090170.397881,-5.2577177846587739e-22,0.016161657368118788,0.00030539986974459875
1729090170.405642,-3.1546306707952642e-22,0.016082345342801747,0.00018323992184675925
1729090170.413685,-1.8927784024771586e-22,0.016034758127611522,0.00010994395310805555
1729090170.421661,-1.1356670414862952e-22,0.016006205798497389,6.5966371864833317e-05
1729090170.429693,-6.814002248917771e-23,0.016201919431759922,0.00089095994604296313
1729090170.437622,-4.0884013493506623e-23,0.016319347611717442,0.0013859560905498409
1729090170.445819,-2.4530408096103971e-23,0.016176959488960939,0.00083157365432990444
1729090170.453658,-1.4718244857662381e-23,0.016517216676769069,0.00049894419259794267
1729090170.461659,-8.8309469145974282e-24,0.017359906081646996,0.00029936651555876562
1729090170.469652,-5.2985681487584565e-24,0.018078364755304763,0.00017961990933525933
1729090170.477685,-3.1791408892550735e-24,0.018296594928768409,0.00010777194560115559
1729090170.48561,-1.9074845335530441e-24,0.018001842971384567,6.4663167360693352e-05
1729090170.493662,-1.1444907201318264e-24,0.017824991796954261,3.879790041641601e-05
1729090170.501651,-6.8669443207909583e-25,0.017718881092296079,0.00087465886317391283
1729090170.509634,-4.1201665924745746e-25,0.017229524608039136,0.0022275555637524739
1729090170.517609,-2.472099955484745e-25,0.016723065686753955,0.0021879134611755475
1729090170.525745,-1.4832599732908469e-25,0.01620634530325183,0.0013127480767053284
1729090170.534393,-8.8995598397450822e-26,0.015896313073150557,0.0016390289689472604
1729090170.541633,-5.3397359038470493e-26,0.016135983796551824,0.0026861776272164824
1729090170.549626,-3.2038415423082297e-26,0.016279786230592584,0.0033144668221780161
1729090170.557635,-1.9223049253849378e-26,0.015940377629555011,0.0039042853698859517
1729090170.565696,-1.1533829552309626e-26,0.015736732468932466,0.0042581764985107134
1729090170.573636,-6.9202977313857747e-27,0.016040235434020968,0.0034062860220304913
1729090170.581623,-4.1521786388314648e-27,0.016435182243805087,0.0020437716132182945
1729090170.589691,-2.491307183298879e-27,0.016672150329675558,0.0012262629679309768
1729090170.597666,-1.4947843099793272e-27,0.016601486150466825,0.0015871379036826491
1729090170.605613,-8.9687058598759636e-28,0.016346242612210571,0.0018036628651336524
1729090170.613667,-5.3812235159255784e-28,0.016405941519987831,0.0010821977190801915
1729090170.621686,-3.2287341095553465e-28,0.017080295956847236,0.00064931863144811479
1729090170.629681,-1.9372404657332077e-28,0.017484908618962881,0.00038959117886886883
1729090170.637646,-1.1623442794399246e-28,0.017089141124039219,0.00023375470732132128
1729090170.64567,-6.974065676639547e-29,0.016638835596354005,0.00014025282439279277
1729090170.653663,-4.1844394059837278e-29,0.016368652279742879,0.00093553181755973885
1729090170.661675,-2.5106636435902366e-29,0.016419387320507219,0.0022640793363839697
1729090170.669616,-1.5063981861541419e-29,0.016662673375696838,0.002209827724754445
1729090170.677653,-9.0383891169248511e-30,0.016808645008810609,0.001325896634852667
1729090170.68567,-5.4230334701549112e-30,0.017109073019409886,0.00079553798091160023
1729090170.693702,-3.2538200820929466e-30,0.01750217485650047,0.00047732278854696012
1729090170.701669,-1.952292049255768e-30,0.017312345897292788,0.00028639367312817605
1729090170.709648,-1.1713752295534608e-30,0.016347068398844117,0.00017183620387690562
1729090170.71765,-7.028251377320764e-31,0.015342211838312881,0.00010310172232614337
1729090170.725677,-4.2169508263924587e-31,0.01516498796345617,6.186103339568602e-05
1729090170.733727,-2.5301704958354751e-31,0.015697188730735192,3.7116620037411613e-05
1729090170.741618,-1.5181022975012849e-31,0.016016509191102604,0.0010864951256775262
1729090170.749623,-9.1086137850077092e-32,0.015995256436592033,0.0017161222290615948
1729090170.757613,-5.4651682710046255e-32,0.016195349814616712,0.0010296733374369569
1729090170.765678,-3.2791009626027748e-32,0.016528250872162531,0.00061780400246217414
1729090170.773641,-1.9674605775616646e-32,0.016727991506690028,0.0012220625244013677
1729090170.781622,-1.1804763465369989e-32,0.01706068091813754,0.0015846176375648837
1729090170.789626,-7.0828580792219924e-33,0.016834604503544015,0.00095077058253893016
1729090170.797671,-4.2497148475331957e-33,0.01606042356259485,0.0014218424724474214
1729090170.805632,-2.5498289085199172e-33,0.016021605059487382,0.001704485606392516
1729090170.81363,-1.5298973451119503e-33,0.016424004019084934,0.0018740714867595729
1729090170.821647,-9.1793840706717012e-34,0.016665443394843465,0.0030400481686348856
1729090170.829706,-5.5076304424030207e-34,0.016597461989567568,0.0028882540548360106
1729090170.837632,-3.3045782654418123e-34,0.016130983084940001,0.0017329524329016063
1729090170.845922,-1.9827469592650874e-34,0.01563825071143244,0.0010397714597409637
1729090170.853624,-1.1896481755590526e-34,0.015555456318058922,0.00062386287584457827
1729090170.861699,-7.1378890533543146e-35,0.015931469743496841,0.0003743177255067469
1729090170.869638,-4.2827334320125891e-35,0.01636992282949061,0.00022459063530404815
1729090170.877655,-2.5696400592075531e-35,0.016632994681086873,0.00013475438118242889
1729090170.885611,-1.5417840355245319e-35,0.016577992761313613,0.0011450777823645364
1729090170.893737,-9.2507042131471899e-36,0.016332146578718641,0.0026026519459978639
1729090170.901651,-5.5504225278883137e-36,0.016184638869161661,0.0024129712905227815
1729090170.909672,-3.3302535167329882e-36,0.015883289212696453,0.002299162897237732
1729090170.917591,-1.998152110039793e-36,0.015702479418817326,0.0022308778612667021
1729090170.925666,-1.1988912660238756e-36,0.01580683857322087,0.0013385267167600212
1729090170.933691,-7.1933475961432532e-37,0.015869454065862994,0.00080311603005601279
1729090170.941585,-4.3160085576859524e-37,0.015694178330717255,0.00048186961803360769
1729090170.949622,-2.5896051346115713e-37,0.015376167858898795,0.00028912177082016457
1729090170.957655,-1.5537630807669427e-37,0.01561105163726975,0.00017347306249209873
1729090170.965686,-9.3225784846016562e-38,0.016177671965754356,0.00010408383749525925
1729090170.97358,-5.5935470907609941e-38,0.016517644162845117,6.2450302497155552e-05
1729090170.981611,-3.3561282544565956e-38,0.016295937419637543,3.7470181498293329e-05
1729090170.989624,-2.0136769526739574e-38,0.015524378281519952,2.2482108898975997e-05
1729090170.997669,-1.2082061716043745e-38,0.015274287829380413,1.3489265339385598e-05
1729090171.005637,-7.2492370296262464e-39,0.015762768650289735,0.00085947368212769453
1729090171.013646,-4.3495422177757476e-39,0.016055857142835334,0.00136706433220068
1729090171.021649,-2.6097253306654487e-39,0.015806020176900658,0.00082023859932040791
1729090171.029679,-1.5658351983992692e-39,0.015656117997339854,0.0004921431595922447
1729090171.037653,-9.3950111903956141e-40,0.015991866751065405,0.00029528589575534685
1729090171.045677,-5.6370067142373682e-40,0.015980470972569716,0.0010285516603772713
1729090171.053638,-3.3822040285424214e-40,0.015547943444010271,0.002532736272805505
1729090171.061681,-2.0293224171254528e-40,0.01550127195760562,0.0036480920709934615
1729090171.069665,-1.2175934502752715e-40,0.01589895912722486,0.0041044605191752192
1729090171.077687,-7.3055607016516277e-41,0.016350416459727422,0.0033140564344291946
1729090171.085997,-4.3833364209909762e-41,0.016195600797766926,0.0019884338606575166
1729090171.093711,-2.6300018525945859e-41,0.0156770213391286,0.0011930603163945101
1729090171.1017,-1.5780011115567514e-41,0.015365873663945602,0.00071583618983670589
1729090171.10962,-9.4680066693405077e-42,0.015604875120297835,0.0012808818368260867
1729090171.117659,-5.6808040016043051e-42,0.016386811086302223,0.0024712893479437786
1729090171.125678,-3.4084824009625833e-42,0.016643127635173838,0.0023341537316903306
1729090171.133675,-2.0450894405775495e-42,0.016371227503034776,0.0014004922390141983
1729090171.141642,-1.2270536643465297e-42,0.016208087423751339,0.00084029534340851887
1729090171.149618,-7.3623219860791776e-43,0.016323048406912295,0.0013555573289691745
1729090171.15767,-4.4173931916475063e-43,0.016604870027539881,0.0016647145203055678
1729090171.165698,-2.6504359149885034e-43,0.016773962999916438,0.00099882871218334073
1729090171.173682,-1.5902615489931021e-43,0.016662573752611352,0.00059929722731000431
1729090171.181681,-9.5415692939586128e-44,0.015957205112035251,0.00035957833638600254
1729090171.189669,-5.7249415763751667e-44,0.015321138896958578,0.00021574700183160151
1729090171.19772,-3.4349649458250998e-44,0.015365189229374604,0.00012944820109896091
1729090171.205664,-2.06097896749506e-44,0.015604464459555234,0.00092904904358343974
1729090171.213718,-1.2365873804970359e-44,0.015748029597663613,0.0024730347027292062
1729090171.221669,-7.4195242829822152e-45,0.015621323649797625,0.0033994260982166662
1729090171.229708,-4.4517145697893286e-45,0.015332455050347017,0.0037424159047781259
1729090171.237662,-2.6710287418735971e-45,0.015371978921407667,0.0030968296657909386
1729090171.245794,-1.6026172451241581e-45,0.015608538274775072,0.0018580977994745631
1729090171.253658,-9.6157034707449501e-46,0.015750473886795516,0.0011148586796847378
1729090171.261643,-5.7694220824469693e-46,0.015622790223276768,0.00066891520781084271
1729090171.26965,-3.4616532494681811e-46,0.015333334994434504,0.00040134912468650565
1729090171.277597,-2.0769919496809085e-46,0.015159661857129145,0.00024080947481190337
1729090171.285685,-1.2461951698085451e-46,0.015055457974745929,0.00014448568488714203
1729090171.293701,-7.4771710188512706e-47,0.015205780676047016,8.6691410932285203e-05
1729090171.301647,-4.4863026113107622e-47,0.015508819327558682,5.2014846559371127e-05
1729090171.309612,-2.6917815667864574e-47,0.015903487549196696,3.1208907935622678e-05
1729090171.317639,-1.6150689400718744e-47,0.015927443451448493,0.00087010546768543674
1729090171.32564,-9.6904136404312447e-48,0.015516126931337538,0.0013734434035353252
1729090171.333658,-5.8142481842587473e-48,0.015269337019270966,0.00082406604212119502
1729090171.341581,-3.488548910555248e-48,0.015121263072031023,0.00049443962527271701
1729090171.349641,-2.0931293463331486e-48,0.015458108765149088,0.00029666377516363019
1729090171.357632,-1.2558776077998893e-48,0.016298751273212973,0.00017799826509817812
1729090171.3657,-7.5352656467993359e-49,0.016590291747320289,0.00010679895905890685
1729090171.373639,-4.5211593880796011e-49,0.016552371001053664,6.4079375435344116e-05
1729090171.381615,-2.7126956328477602e-49,0.016742463584024703,0.0011026727789162857
1729090171.389664,-1.6276173797086561e-49,0.016643674103076312,0.0027900539746599298
1729090171.397662,-9.7657042782519357e-50,0.016584400414507275,0.0035896376613750998
1729090171.40565,-5.8594225669511618e-50,0.01676168123209687,0.0030051627197491227
1729090171.414223,-3.5156535401706973e-50,0.016655204691919612,0.0018030976318494738
1729090171.421646,-2.1093921241024183e-50,0.016591318767813258,0.0010818585791096842
1729090171.429691,-1.265635274461451e-50,0.016978677274811477,0.00064911514746581063
1729090171.437656,-7.5938116467687046e-51,0.017211092379010407,0.00038946908847948636
1729090171.445735,-4.5562869880612223e-51,0.016924851380067732,0.00023368145308769178
1729090171.453627,-2.7337721928367336e-51,0.016753106780702128,0.00014020887185261507
1729090171.461693,-1.64026331570204e-51,0.016650060021082769,8.4125323111569047e-05
1729090171.469674,-9.841579894212239e-52,0.016375386934580134,5.0475193866941422e-05
1729090171.477629,-5.9049479365273434e-52,0.016210583082678552,0.00088166523924422806
1729090171.48565,-3.5429687619164061e-52,0.016111700771537604,0.002231759389394663
1729090171.493704,-2.1257812571498435e-52,0.016052371384853034,0.0030418158794849239
1729090171.501663,-1.275468754289906e-52,0.016229618783573308,0.0026764696506150175
1729090171.509629,-7.6528125257394368e-53,0.01654881225353649,0.0016058817903690104
1729090171.517676,-4.5916875154436617e-53,0.0167403283355144,0.00096352907422140623
1729090171.525678,-2.7550125092661969e-53,0.016855237984701146,0.0014294975674569068
1729090171.533717,-1.653007505559718e-53,0.016924183774213192,0.0025604587863222701
1729090171.541646,-9.9180450333583095e-54,0.016965551247920419,0.0032390355176414882
1729090171.549647,-5.950827020014985e-54,0.016777526701413741,0.0027948014335089557
1729090171.557649,-3.570496212008991e-54,0.016239021912047701,0.0016768808601053734
1729090171.565703,-2.1422977272053946e-54,0.015915919038428081,0.0010061285160632241
1729090171.57363,-1.2853786363232368e-54,0.016360592406449354,0.00060367710963793431
1729090171.581688,-7.7122718179394212e-55,0.01705308648872415,0.00036220626578276061
1729090171.589981,-4.6273630907636524e-55,0.017042892876626997,0.00021732375946965633
1729090171.597672,-2.776417854458191e-55,0.016823931678637688,0.00013039425568179381
1729090171.605672,-1.6658507126749147e-55,0.016905399990575116,0.0011424617070641553
1729090171.613704,-9.9951042760494885e-56,0.017167126008468592,0.0026010823008176353
1729090171.621678,-5.9970625656296924e-56,0.017324161619204678,0.0024120295034146442
1729090171.629692,-3.5982375393778156e-56,0.016992692924184295,0.0014472177020487865
1729090171.637653,-2.1589425236266893e-56,0.016368121645710033,0.001719710744153335
1729090171.645788,-1.2953655141760135e-56,0.015567688817163448,0.0027345866923401273
1729090171.653644,-7.7721930850560808e-57,0.01487458408930448,0.0024921321383281395
1729090171.661664,-4.6633158510336484e-57,0.014884411314051131,0.0014952792829968837
1729090171.669658,-2.797989510620189e-57,0.015315997710361151,0.0017485476927221934
1729090171.677631,-1.6787937063721132e-57,0.015149259486685133,0.0027518888614814422
1729090171.685644,-1.0072762238232679e-57,0.014623526491017492,0.0025025134398129283
1729090171.693674,-6.0436573429396069e-58,0.014520931724347923,0.001501508063887757
1729090171.701651,-3.6261944057637639e-58,0.014885064925808211,0.00090090483833265406
1729090171.709696,-2.1757166434582585e-58,0.015103544846684384,0.0005405429029995925
1729090171.717647,-1.3054299860749549e-58,0.015234632799210088,0.0003243257417997555
1729090171.725677,-7.8325799164497299e-59,0.015526130601456526,0.0010459755680039165
1729090171.733643,-4.699547949869838e-59,0.015913874313535404,0.0014789654637264128
1729090171.741596,-2.8197287699219023e-59,0.016359365571513747,0.00088737927823584765
1729090171.749686,-1.6918372619531413e-59,0.016626660326300752,0.0013838076898655717
1729090171.757625,-0.00085138012292406318,0.016574192148441941,0.001681664736843406
1729090171.765696,-0.0013622081966785009,0.016542711241726654,0.0010089988421060436
1729090171.773629,-0.00081732491800710059,0.01652382269769748,0.0016696244589187051
1729090171.781682,-0.00049039495080426031,0.016086799509817944,0.0020659998290063022
1729090171.789691,-0.00029423697048255621,0.015824585597090227,0.0012395998974037811
1729090171.797783,-0.00017654218228953369,0.015880102280184608,0.001595140061366332
1729090171.805709,-0.00010592530937372023,0.015913412290041236,0.0026598442826679257
1729090171.813695,-6.3555185624232128e-05,0.016146243326686231,0.0032986668154488816
1729090171.821667,-3.813311137453928e-05,0.016498786979404247,0.0028305802121933923
1729090171.829692,-2.2879866824723564e-05,0.016497468140304037,0.0016983481273160355
1729090171.837663,-1.3727920094834137e-05,0.016070986775381879,0.0010190088763896211
1729090171.845861,-8.2367520569004826e-06,0.015815097956428582,0.0006114053258337727
1729090171.853649,-4.9420512341402886e-06,0.016300099757249657,0.0003668431955002636
1729090171.861736,-2.9652307404841731e-06,0.016591100837742297,0.00022010591730015815
1729090171.869708,-1.7791384442905037e-06,0.016127166393844837,0.00013206355038009488
1729090171.877616,-1.0674830665743022e-06,0.015635960696775343,7.9238130228056924e-05
1729090171.885649,-6.4048983994458143e-07,0.015341237278533648,4.7542878136834149e-05
1729090171.893624,-3.842939039667488e-07,0.015377248258319647,2.8525726882100492e-05
1729090171.901689,-2.3057634238004927e-07,0.015398854846191246,1.7115436129260295e-05
1729090171.909597,-1.3834580542802957e-07,0.015411818798914205,1.0269261677556176e-05
1729090171.917677,-8.3007483256817718e-08,0.01541959717054798,6.161557006533705e-06
1729090171.925623,-4.9804489954090633e-08,0.015211419162797231,3.6969342039202232e-06
1729090171.933706,-2.9882693972454375e-08,0.015086512358146781,0.00085359828344641533
1729090171.941605,-1.7929616383472626e-08,0.015224413306087526,0.0013635390929919123
1729090171.949624,-1.0757769830083575e-08,0.015519998905582989,0.00081812345579514731
1729090171.957653,-6.4546618980501437e-09,0.015697350265280269,0.00049087407347708843
1729090171.965653,-3.8727971388300864e-09,0.015803761081098634,0.00029452444408625301
1729090171.973631,-2.3236782832980516e-09,0.016293297632051687,0.00017671466645175182
1729090171.981607,-1.3942069699788308e-09,0.017012709624085548,0.00095740892279511417
1729090171.989617,-8.3652418198729846e-10,0.01680582172711282,0.0014258254766011317
1729090171.99774,-5.0191450919237911e-10,0.01583030886600512,0.00085549528596067892
1729090172.005719,-3.0114870551542742e-10,0.015457846180071514,0.00051329717157640739
1729090172.013646,-1.8068922330925643e-10,0.015447213599242365,0.00030797830294584445
1729090172.021628,-1.0841353398555386e-10,0.015440834050744876,0.0012490121354225858
1729090172.029676,-6.5048120391332309e-11,0.015649851352377397,0.0026650125578326937
1729090172.037638,-3.9028872234799387e-11,0.015562416702625896,0.0024503876576236795
1729090172.045952,-2.3417323340879632e-11,0.015084265851312964,0.0023216127174982707
1729090172.053626,-1.4050394004527777e-11,0.014797375340525205,0.0022443477534230256
1729090172.061726,-8.4302364027166673e-12,0.015263776126245597,0.0013466086520538155
1729090172.069705,-5.0581418416300001e-12,0.016182151689870881,0.00080796519123228923
1729090172.077654,-3.0348851049780002e-12,0.01673317702804605,0.00048477911473937356
1729090172.085624,-1.8209310629868e-12,0.016850947200220137,0.00029086746884362418
1729090172.093658,-1.0925586377920799e-12,0.01670876427279357,0.0001745204813061745
1729090172.101663,-6.5553518267524794e-13,0.016197764454875599,0.00010471228878370468
1729090172.109595,-3.9332110960514874e-13,0.016104009594855834,6.2827373270222809e-05
1729090172.117611,-2.3599266576308924e-13,0.016260601709574989,3.7696423962133683e-05
1729090172.125624,-1.4159559945785355e-13,0.015928866916944451,0.00087399797730134331
1729090172.133754,-8.4957359674712114e-14,0.015729826041366128,0.0022271590322289325
1729090172.141765,-5.0974415804827264e-14,0.015823246546750151,0.0021876755422614224
1729090172.150036,-3.0584649482896359e-14,0.015879298849980565,0.0013126053253568535
1729090172.157732,-1.8350789689737818e-14,0.016338620293380846,0.00078756319521411204
1729090172.165759,-1.101047381384269e-14,0.017039903220883043,0.00047253791712846722
1729090172.17374,-6.6062842883056133e-15,0.017247827946653346,0.00028352275027708035
1729090172.181619,-3.9637705729833678e-15,0.016734047689922482,0.00017011365016624821
1729090172.189625,-2.3782623437900208e-15,0.016000089474421931,0.0001020681900997489
1729090172.19776,-1.4269574062740122e-15,0.015985404606583632,6.1240914059849339e-05
1729090172.205711,-8.5617444376440732e-16,0.016615128778073703,3.6744548435909607e-05
1729090172.213665,-5.1370466625864433e-16,0.017418653342429771,2.2046729061545762e-05
1729090172.221686,-3.0822279975518658e-16,0.017475078019581383,1.3228037436927455e-05
1729090172.229668,-1.8493367985311196e-16,0.016657552702948289,7.9368224621564736e-06
1729090172.237646,-1.1096020791186717e-16,0.016379882543699445,4.7620934772938836e-06
1729090172.246143,-6.6576124747120304e-17,0.016638970509612175,2.8572560863763298e-06
1729090172.253663,-3.9945674848272173e-17,0.01679442328915981,1.714353651825798e-06
1729090172.261758,-2.3967404908963304e-17,0.016674849926157372,1.0286121910954789e-06
1729090172.269749,-1.4380442945377983e-17,0.016390260877624897,6.1716731465728731e-07
1729090172.277742,-8.6282657672267885e-18,0.016219507448505411,3.7030038879437238e-07
1729090172.285642,-5.1769594603360729e-18,0.016329900421764736,2.221802332766234e-07
1729090172.293753,-3.1061756762016436e-18,0.016396136205720328,1.3330813996597405e-07
1729090172.30173,-1.863705405720986e-18,0.016223032645362671,7.9984883979584415e-08
1729090172.309609,-1.1182232434325916e-18,0.016119170509148077,4.7990930387750647e-08
1729090172.317672,-6.7093394605955482e-19,0.015844008196688304,2.8794558232650389e-08
1729090172.325618,-4.0256036763573286e-19,0.015891755839943456,1.7276734939590234e-08
1729090172.334563,-2.4153622058143969e-19,0.016346094487358583,1.0366040963754138e-08
1729090172.341697,-1.4492173234886383e-19,0.016618697675807655,6.2196245782524836e-09
1729090172.349624,-8.6953039409318281e-20,0.016782259588877097,3.7317747469514905e-09
1729090172.357653,-5.2171823645590976e-20,0.016880396736718761,2.2390648481708938e-09
1729090172.365658,-3.1303094187354584e-20,0.016513588963961733,1.3434389089025362e-09
1729090172.373618,-1.8781856512412749e-20,0.016080659269576497,8.060633453415217e-10
1729090172.381642,-1.1269113907447649e-20,0.016033746483676371,4.83638007204913e-10
1729090172.389689,-6.7614683444685892e-21,0.016005598812136299,2.9018280432294782e-10
1729090172.397702,-4.0568810066811538e-21,0.016201555239943266,1.7410968259376869e-10
1729090172.40566,-2.4341286040086921e-21,0.016531974127358469,1.0446580955626121e-10
1729090172.413668,-1.460477162405215e-21,0.016730225459807586,6.2679485733756731e-11
1729090172.421774,-8.7628629744312899e-22,0.01663633122854604,3.7607691440254039e-11
1729090172.429695,-5.2577177846587739e-22,0.016154304628327083,0.00085138014548867807
1729090172.437721,-3.1546306707952642e-22,0.016077933698926725,0.0024264333638723493
1729090172.445906,-1.8927784024771586e-22,0.016457801202748541,0.0033714652949025517
1729090172.453699,-1.1356670414862952e-22,0.01668572170504163,0.0028742592998655943
1729090172.461743,-6.814002248917771e-23,0.016822474006417482,0.0017245555799193565
1729090172.469726,-4.0884013493506623e-23,0.01669168035651198,0.001886113470875677
1729090172.477637,-2.4530408096103971e-23,0.016400359135837664,0.0028344283283735323
1729090172.485683,-1.4718244857662381e-23,0.016225566403433068,0.0025520371199481825
1729090172.493664,-8.8309469145974282e-24,0.016120690763990315,0.0015312222719689095
1729090172.501647,-5.2985681487584565e-24,0.016057765380324662,0.00091873336318134559
1729090172.509585,-3.1791408892550735e-24,0.016020010150125268,0.0005512400179088074
1729090172.517638,-1.9074845335530441e-24,0.016210202042736651,0.00033074401074528444
1729090172.525631,-1.1444907201318264e-24,0.016537162209034496,0.0010498265293712339
1729090172.533643,-6.8669443207909583e-25,0.016520493278082186,0.0023326561634708668
1729090172.541587,-4.1201665924745746e-25,0.016297646888779785,0.0022509738210065833
1729090172.549632,-2.472099955484745e-25,0.016163939055198341,0.0013505842926039499
1729090172.557611,-1.4832599732908469e-25,0.016083714355049478,0.0016617306984864331
1729090172.565661,-8.8995598397450822e-26,0.015822734504229143,0.0018484185420159231
1729090172.573612,-5.3397359038470493e-26,0.015666146593736944,0.0011090511252095539
1729090172.581612,-3.2038415423082297e-26,0.015997883908903655,0.00066543067512573229
1729090172.589638,-1.9223049253849378e-26,0.016196926298003681,0.00039925840507543933
1729090172.598273,-1.1533829552309626e-26,0.016316351731463698,0.00023955504304526361
1729090172.605707,-6.9202977313857747e-27,0.016600852022270726,0.00014373302582715815
1729090172.613655,-4.1521786388314648e-27,0.016771552196754941,8.6239815496294895e-05
1729090172.621656,-2.491307183298879e-27,0.017086817332176485,5.1743889297776934e-05
