Time,Accel_x,Accel_y,Accel_z,Orientation_x,Orientation_y,Orientation_z,Orientation_w,Gyro_x,Gyro_y,Gyro_z
1729842733.671227,-0.9666555974026342,0.15381018732381188,9.761931690370117,0.007867353863711667,0.04932297049149172,-0.00038852621303303066,0.9987518202098359,0.0104308777058879,0.026835019525870432,0.0058033919194688185
1729842733.6792355,-0.9647415652286898,0.14112782626147463,9.766890325257226,0.0072151408075539925,0.04920241330620979,-0.00035544212737125214,0.9987627035131349,0.00625852662353274,0.026743263252073046,0.00603617552045348
1729842733.6872222,-0.9619172047622138,0.10837929219243164,9.766274203699258,0.005541443127564469,0.049065092349794406,-0.00027222348421981733,0.9987801735192509,0.0037551159741196437,0.026262519426332585,0.0036217053122720878
1729842733.6952221,-0.9721935967831093,0.1045319027080371,9.743399035159007,0.005357114530967335,0.0497012294536097,-0.0002665884867848745,0.9987497274318929,0.005232900014706008,0.024697002946502216,0.0021730231873632526
1729842733.7032297,-0.9726133480112719,0.11515215798224412,9.723209589552436,0.005913547992617705,0.04982422867897775,-0.0002950095463651526,0.9987404513466206,0.005693880377595794,0.023757693058603993,0.00343226421972811
1729842733.711222,-0.9407828965020757,0.12248199181083085,9.719954468331071,0.006292544432834187,0.04822066048327578,-0.000303790080999958,0.9988168398153408,0.005970468595329666,0.024896867371713184,0.003762118777684992
1729842733.7192225,-0.9291066507430423,0.11107816115095163,9.771152672453722,0.005677069303325444,0.0473792799253421,-0.0002692822213875128,0.9988608022166885,0.007413491710356084,0.02983727257419902,0.002257271266610995
1729842733.7272196,-0.9534649450356691,-0.01882610257700715,9.759733645708561,-0.0009632878531848889,0.048673006413696124,4.6941774661296735e-05,0.9988143012190174,0.008704995640833966,0.03365289581861458,0.003482813067276755
1729842733.7352905,-0.7312933774217921,-0.44081543937823553,8.243577503098964,-0.026681179452024004,0.04414662698744857,0.0011794550964858174,0.9986680123416166,0.11590241336462859,0.027428468536023286,0.013157629438378875
1729842733.7432375,-0.6980680662479971,-1.0859398532265507,8.384220085843753,-0.06430109151050778,0.04109456308226637,0.002650162330956616,0.9970805299248675,0.45947354431799814,0.028802092904012887,0.04535530307168611
1729842733.751227,-0.7952093407253608,-1.3810771577855396,8.751600271721095,-0.07809756892689407,0.044605068338267266,0.0034977439552168503,0.9959412248689534,0.8112022239100347,0.052187840782294326,0.06254545694436028
1729842733.7592385,-1.0153421376383414,-2.0188039399349957,9.31296269965375,-0.10637669510619024,0.052747937012491045,0.005651219928981778,0.9929097227807396,1.2648827666986144,0.13432969934318825,0.0038977593111156755
1729842733.7672334,-1.0552450518701142,-1.7020937042930286,9.324168730632094,-0.09001245892049502,0.055184334917714795,0.004995260851362177,0.9943980560056433,1.5966877009764469,0.22320399019569354,-0.07811676602965456
1729842733.7752552,-0.7897278196962874,-1.4701690338551139,9.609098582129256,-0.075772464727776,0.040403250009018093,0.0030728186716886424,0.9963014949116545,1.8391910478122737,0.2961103075344501,-0.2150176338952952
1729842733.7833908,-0.3505353063197255,-0.8734822943365058,9.48149954600607,-0.04590857059092005,0.018378527150547865,0.000844765726221643,0.9987762107984666,2.0310932726131314,0.2874942203778742,-0.28183331240204645
1729842733.7913082,-0.6345737179715228,-0.9018943985745598,9.679315634586063,-0.046412257850213974,0.03255134347644204,0.0015132165414074668,0.9983907163705114,2.14921443792388,0.2853043985141629,-0.28361061397451437
1729842733.7992182,-1.2261368369840855,-0.1302916342619233,9.907420303603201,-0.0065620731286510185,0.0615211933640702,0.00040448150627236956,0.9980841238883754,2.151551037214942,0.2942070668710249,-0.26892646264389997
1729842733.807218,-1.306699198137717,0.18853908438425226,9.588905949251764,0.009806248492882136,0.06765095337155178,-0.0006649576377657972,0.9976606356019846,2.101870189414135,0.26591915302964153,-0.26948115319769606
1729842733.815232,-1.3059554807966924,0.2821540878375826,8.735321737275667,0.01609769364423573,0.07408611545039352,-0.0011960588076795101,0.997121196846269,1.9924576392402513,0.19488376691913353,-0.26853689734558756
1729842733.8234863,-1.6337542979995,0.5109450296068464,8.928981859504072,0.028455262950965423,0.0901808663378395,-0.002577679929751003,0.9955154769882425,1.8263472546308814,0.11352473965978387,-0.28712639660011385
1729842733.8312309,-1.7780005719637624,0.8411922484769985,9.596323155009083,0.04351393215454722,0.09104509675135557,-0.003982087920339176,0.9948876675493472,1.6432457718187012,0.022991697280894972,-0.3153076986113109
1729842733.8392355,-1.4675897010884138,1.1255318395647147,10.529916642028887,0.0530859661075575,0.06870154218120346,-0.003660936576363921,0.9962171328820517,1.3439528047807894,-0.14243323418802864,-0.3368990704941115
1729842733.8472326,-1.1173403648425015,1.3583848373814067,10.894227038439988,0.061901471897473914,0.050593443095868246,-0.003141880896521017,0.9967941813017688,1.0754078017124775,-0.27872322841657954,-0.3179271390141395
1729842733.8555307,-0.7690453273039383,1.5201232913448597,10.56118921378665,0.07136761091134788,0.03587584139359044,-0.002568589030845824,0.9968013796476703,0.7840196410641087,-0.3677339559985646,-0.19373611383871792
1729842733.8632283,-0.6072340774858787,1.7363976063987128,9.657950071240741,0.08878314835020053,0.030774462654911027,-0.002744406818002457,0.9955716715779659,0.5185147615836748,-0.4185862521789835,-0.060901960313166636
1729842733.8713937,-0.46082677339582406,1.9451708502161809,8.823674563008117,0.10824004065112568,0.02532619022504181,-0.002758414709237935,0.9937983039011585,0.32132541842529366,-0.4601655714852476,0.03582613426064539
1729842733.8792062,-0.30067750080507255,2.408974911252755,8.736109044445495,0.13410665823610707,0.016433044135993065,-0.0022241804954247924,0.9908281446841789,0.1523546952162832,-0.5221481984162029,0.17091289212956032
1729842733.8873587,-0.07961061059046541,2.7497460112047785,8.879894269440735,0.14958266532748757,0.00423373787781528,-0.0006405059239079846,0.9887399513771395,0.01563998618952829,-0.5767910670947193,0.2953853331200365
1729842733.8952193,0.12940455649728325,2.7633907988615385,9.553463071674207,0.14031752325737148,-0.006441168517076407,0.000912859649056654,0.9900851835586233,-0.17323704465349457,-0.5916978057204237,0.4288140261960826
1729842733.903389,-0.047574012927801924,4.218872575020048,11.687893892809212,0.1723379581503308,0.0018856391115638221,-0.0003299038686838865,0.9850360215287323,-0.3797893866194932,-0.5142267664190541,0.5761302717527113
1729842733.91121,-0.23420633036410304,4.720581543058904,13.145723308341777,0.1715190158354374,0.00825879051944142,-0.0014378994125837986,0.9851451426217754,-0.5437356575765233,-0.40985029447939597,0.6921898730817204
1729842733.9192407,-0.6976545245368212,5.170526267143935,13.046459722309754,0.18748596275479917,0.02439278045311903,-0.004657353717663385,0.9819533161449278,-0.7438433448401669,-0.2207944630613777,0.7571430432030437
1729842733.9272306,-1.0384515245365458,5.062927499788314,12.515004423473743,0.19088277755020808,0.03766859035656491,-0.0073305745422363195,0.9808624292999237,-0.9158421446967209,-0.0392505543766417,0.7599312900515649
1729842733.9355292,-1.176370918384037,4.761821115351504,11.025127212189714,0.2021925571630537,0.047791108908714595,-0.00987907044208406,0.9781291242491151,-1.0739554425392555,0.16460467454023295,0.6509248221805495
1729842733.9433677,-0.570550157231594,4.379086664572231,9.93774939127867,0.20596606865248188,0.02567872618612757,-0.0054067749849967895,0.9782072113665696,-1.1432820175570542,0.28053246096842727,0.5105994906406226
1729842733.951286,-0.12278180210262825,4.241383337854666,9.38468206762853,0.21064248423143936,0.005827016725174122,-0.0012556120562827486,0.9775449929037826,-1.1640191495560939,0.3334872204283246,0.4123565196884194
1729842733.9592392,-0.2630504325799363,3.690934337429596,8.549819904639618,0.20233667061910382,0.0138272066060757,-0.002857138765317739,0.9792142343932327,-1.1687990076492012,0.3358874618633828,0.3474510762566291
1729842733.9672232,-0.5406631050069461,3.1444685272624455,7.852099230381427,0.18920266638067168,0.031334618783957484,-0.006040835895393446,0.9814193807958926,-1.163578811337287,0.33860467690880386,0.29233158786199764
1729842733.975216,-1.013688520963152,2.750748495507858,7.774640562398777,0.16888509919096928,0.06023261055088425,-0.01034053517414535,0.9837392587620941,-1.128094248879024,0.36492502950085437,0.180932923516205
1729842733.983216,-1.0937572092575787,2.6438033661035427,7.800470251745907,0.16229396667434454,0.06508584806946129,-0.010728962644898008,0.9845351137073528,-1.0961612598675154,0.3807172410560846,0.0736531690698364
1729842733.9912157,-1.1734018841482972,2.6914455059902505,8.26488087663348,0.15639259482458143,0.0662137512630533,-0.010508587092612532,0.9854170005764188,-1.0506086826499645,0.3612456438098046,-0.07031872509138466
1729842733.9992158,-1.2621295374714,2.6039120094046972,9.410228252542588,0.13427922255246263,0.06364796870656356,-0.00864288486870823,0.9888596093538156,-1.0232771363194337,0.28272934581249765,-0.2618473067692391
1729842734.0072186,-1.4164014395238558,2.205190351394771,10.170938669054848,0.10629792376877346,0.06719703841629963,-0.007200255614028242,0.9920350123607629,-1.0209259805493625,0.20965247326492956,-0.41848208179923085
1729842734.0152164,-1.5408074628354071,2.2472760516571753,10.576129003434861,0.10422243050200275,0.07033017877918893,-0.00738882179019724,0.9920366708170093,-1.0608072230491365,0.156441168384224,-0.5541805728405049
1729842734.0232286,-1.31928833146101,2.345790042615399,10.131867907432012,0.11327830062931678,0.0626417714960979,-0.007156347263294694,0.9915608008408823,-1.1077232318679509,0.13473094693088944,-0.6355996674652694
1729842734.031236,-1.3001014314937933,1.8980459457352548,9.86914197248655,0.09465368949759372,0.0639902670385625,-0.006096954715057867,0.9934328119868143,-1.14225818808117,0.19024091395427578,-0.6278343460656779
1729842734.0392363,-1.489941651132604,1.8324277883884181,10.166404726948961,0.08880866282039894,0.0712762869532231,-0.006371527425558303,0.9934747686602211,-1.1629791618091014,0.28058936240421983,-0.5665583750514729
1729842734.0472484,-1.4657003471248748,1.5387926776717225,10.302145590075627,0.07387893779174667,0.06964760858772327,-0.005172290231362918,0.9948187576551505,-1.2103183310857468,0.3373525718429584,-0.5229817514595574
1729842734.055237,-1.0024821736069562,1.1859195287221742,10.238022647014127,0.057558047421176955,0.048381561475627756,-0.0027926647709329575,0.9971652303955041,-1.3102377629773554,0.37651877824374597,-0.5223771809921299
1729842734.0632317,-0.9115384191544079,1.0998912265106482,10.18135294856004,0.05372524704834801,0.04431036420393962,-0.002386385868158846,0.9975692931401791,-1.3782775332800992,0.4127892039280795,-0.5330823803096862
1729842734.071221,-1.1646270798129572,1.0995101607110764,10.258442086518835,0.05327367843260566,0.05609353874693121,-0.0029973048987336696,0.9969987192872666,-1.3910058514052515,0.4664782139483319,-0.49353097326232065
1729842734.079215,-1.1620542691280087,0.9486862368075052,10.313554115436693,0.04577265732333614,0.055778030749832855,-0.0025597893394038343,0.9973901556591427,-1.3547967659497535,0.46293365479767273,-0.3923245378478115
1729842734.0872557,-1.22395692671118,0.7547623707466123,10.279104845971,0.03657290875542752,0.059025489614219856,-0.002163962093145811,0.9975839469383158,-1.310084051357505,0.4224948137756944,-0.2962684014977574
1729842734.0952153,-1.3566271675013175,0.6209303789909362,10.15309041124471,0.030465823168360346,0.06621336057146066,-0.002022628317636148,0.9973382242124267,-1.2419644866403388,0.32756695895981014,-0.20074830421760415
1729842734.1032207,-1.3670368839968843,0.5786989903340147,9.805500441815184,0.029397173702974167,0.06905736383255313,-0.0020358377010978677,0.9971773874510143,-1.1832137652286339,0.2399605616450133,-0.1421591756651261
1729842734.1112175,-1.2753598659938337,0.6124969381457214,9.041252254835204,0.03372828730977643,0.06981273255839701,-0.0023617800291311983,0.9969869643094502,-1.0985832852520152,0.12907718483583688,-0.08784964576784784
1729842734.1193163,-1.0199589762369252,0.5092349011686829,8.409841982783934,0.030177548063820316,0.06017286154708854,-0.0018200007529332826,0.9977300385992947,-0.9682009557726441,-0.01620550262014482,-0.014823371990587898
1729842734.127243,-0.9806824414062176,0.2052238911406628,8.538566571506298,0.011994451949431911,0.05712450561696681,-0.0006863475163805678,0.9982947725534461,-0.858470493536831,-0.14764688148578511,0.03324929289038839
1729842734.1352603,-1.1527227961425588,-0.09665337771794608,8.087879858675263,-0.0059593129916088936,0.07072029686758553,0.0004225098293202487,0.9974782943428256,-0.7551714907866844,-0.29845332919225265,0.04208545893025868
1729842734.1432343,-1.0964931784179572,-0.13676126124990826,7.95657094743172,-0.008572336356996476,0.06840759960403918,0.0005878116782248825,0.9976204538015582,-0.6663736152644885,-0.426397923224792,0.020142994620610827
1729842734.1512384,-0.7888587378613211,-0.1639384535272887,7.575637351173875,-0.010803076653417771,0.05184019011135724,0.0005608204894822065,0.9985968023704148,-0.5492413807318661,-0.6270404875297668,-0.06709255465957138
1729842734.1592302,-0.7938988450117145,-0.2709850118136388,7.303502723204326,-0.018513925118824905,0.054065372229554196,0.0010026012591609536,0.9983652462366113,-0.43000768294415914,-0.8781128749815954,-0.14412390779247855
1729842734.16722,-0.6853531119386693,-0.4115879797444333,7.296802734996814,-0.028137710897967672,0.04671573358423994,0.00131643400301225,0.9985109796404967,-0.34612245248913603,-1.0657913427998893,-0.1843830588117544
1729842734.1752136,-0.4344356232667172,-0.3915625681200975,7.6313228568184,-0.025618928261844105,0.02838287325212913,0.0007276710783972285,0.999268509218353,-0.29323717384735,-1.2282041606819232,-0.21151837985355415
1729842734.1832151,0.24762763849114156,-0.48321625303026156,7.1865581623332275,-0.03355746337783889,-0.017172420805861767,-0.0005766728486424276,0.9992890833306132,-0.256397725924734,-1.3409766936237766,-0.24482717493711526
1729842734.1912196,0.6523166123915598,-0.6416379756951099,7.521601643005406,-0.042496072393451885,-0.043046560422878084,-0.0018326687002679681,0.9981671797811853,-0.21726645471268308,-1.2745478440283489,-0.3278145810836326
1729842734.1992183,0.5529985794954828,-0.5820255820479253,8.275209474572774,-0.035081570948113976,-0.033254738646921696,-0.001167994633652578,0.998830336706827,-0.19123355161668035,-0.8839219236263782,-0.40783101913534725
1729842734.2072184,0.5700222128828365,-0.5867201539162552,9.019466776052258,-0.03245699452651816,-0.0314693895975739,-0.0010224477038576522,0.9989770646142756,-0.17603949982054076,-0.5818616516127327,-0.46180054282684446
1729842734.215225,1.0315434058547017,-0.6604052661778781,8.195897176227058,-0.04010970105133802,-0.06231029055256181,-0.0025061455653855196,0.9972473909753952,-0.15330098677607198,-0.4508569156570652,-0.509932789315838
1729842734.2232246,1.2562625254464146,-0.9557680876852425,8.984808086009672,-0.05283251644918479,-0.0689235450148511,-0.003655238332987421,0.9962152926857535,-0.12263027649090946,-0.3790651150670572,-0.537535067024848
1729842734.2312362,2.2326558807463646,-0.20547205744512978,11.150615785443692,-0.00916555758156387,-0.09862584026446786,-0.0009084285039469843,0.9950819619227352,0.03965539045435473,-0.38026180110510366,-0.49024292443094925
1729842734.2392273,1.7880274993950842,-1.221982376312781,10.676954655592388,-0.05674522977402901,-0.08220790992570347,-0.00468840801428296,0.9949873653840192,0.19194080855011533,-0.35799254940898184,-0.4865576624394078
1729842734.2472453,0.9507122149690818,-3.042157506842356,13.489897245259732,-0.11060668211147572,-0.034103154001366195,-0.003797587938406134,0.9932717226848352,0.3028938022348251,-0.18755136571181907,-0.5507541548325599
1729842734.2553377,0.8668294945087928,-3.46939278413471,14.106736396472245,-0.12022879268290433,-0.029578843010610603,-0.0035838276767547837,0.9922989900404757,0.4337447977264177,0.12074733425410188,-0.6263070856156479
1729842734.2632217,0.45353889055293184,-3.3062698196507476,12.868894052238815,-0.12539015858862568,-0.01692509928279164,-0.002139440224461089,0.9919608217761994,0.5322628279100887,0.26911720894791974,-0.6031027441901136
1729842734.2712185,0.708346876812228,-2.8923614218197455,10.850079160835477,-0.1298233674902257,-0.03122727609345272,-0.004090695703292241,0.9910368392193825,0.6637409564688368,0.365375864809065,-0.4504051792981707
1729842734.2795324,0.7001018968392899,-2.3808936206699722,9.624903856364567,-0.12087493981331525,-0.034980648327730304,-0.004262202135906949,0.9920420539476398,0.8213804949745616,0.5121002811713168,-0.277905528685219
1729842734.2872176,0.6420036320000583,-2.0462402007222957,9.173032730078505,-0.10945256881759924,-0.033889947293098875,-0.0037339594133450446,0.9934070989271212,0.9432083820115664,0.6197166738159212,-0.1492900246911881
1729842734.2952201,0.35886596093831613,-1.664685923411893,9.236858866562727,-0.0890190510620411,-0.019031409616511865,-0.0017012238284599252,0.9958466346950758,1.0133252838035351,0.68556357958707,-0.09723643592102943
1729842734.3033643,0.09225761123095842,-1.5128466504826825,9.373556236685683,-0.07992134092636899,-0.004842582511307666,-0.00038827230022584955,0.9967893347662651,1.0345366118670767,0.7046386000995818,-0.08132912487156736
1729842734.3112264,-0.1500679357028312,-1.5232572371157813,9.192212476142268,-0.08201469389715813,0.00802504407285252,0.0006604178841771642,0.9965985914603745,0.9983090516370681,0.6671292553389552,-0.032621252587383215
1729842734.319238,-0.6045546981892768,-1.4751552114100936,8.792031877775205,-0.08297225212626283,0.033731733491272176,0.0028101033729904,0.9959768465440363,0.9620990534093538,0.6586714205108263,0.03789540674494435
1729842734.3272445,-1.0522628970385661,-1.775975564590197,8.408031998979576,-0.10369354444555381,0.060553630724685656,0.0063249133656554015,0.9927441272137012,0.9471840954561177,0.6753069127485125,0.09680731474136012
1729842734.3352356,-1.5220007558012645,-2.0302091876310713,8.797969721848684,-0.11274119795450668,0.0828649893994811,0.00943553954388515,0.9901180669037013,0.963350834310436,0.7159378925163905,0.1542903427352352
1729842734.343236,-1.7449461102190402,-2.379313317754424,9.349882336038897,-0.12375342906630488,0.08865287660241662,0.011101174247597849,0.9882826115007651,0.9883757198356601,0.7305256089634906,0.17600945768769932
1729842734.3512218,-2.1001769764341582,-2.5293995946565606,10.06266564918193,-0.12218320453110301,0.09893704629794148,0.012241610420599392,0.987488161131393,1.024675154223896,0.6818100805343764,0.12603879756279712
1729842734.3592277,-2.1579318084190886,-2.5849748568915927,10.998624649518923,-0.11462921236789177,0.0935948849658417,0.01084880476411026,0.9889299492963786,1.051988785655844,0.5759565524137422,0.017303740117379937
1729842734.367221,-1.9373628106373908,-2.5618168550529243,11.484782697426198,-0.10913507889036932,0.08100908435351165,0.008924102925184198,0.9906802830352379,1.0653971340847788,0.45242213687521526,-0.06964748748443397
1729842734.3752232,-2.0300763680230594,-2.3633291059516766,11.088383969041654,-0.1043759830920401,0.08798797251959847,0.009271028123675052,0.990594679413831,1.0555631605607343,0.3157250485171804,-0.14012289668838968
1729842734.3832161,-2.251622677503289,-2.1692979445280374,10.75860738826093,-0.09879006520580016,0.1005028395826264,0.010029283310399822,0.9899692498904914,1.0347636242951364,0.24732887746914453,-0.20411833534532672
1729842734.3912172,-2.154228263484395,-2.1529568770683847,10.307913744479995,-0.10222615274274534,0.10019032415034235,0.010349198741179212,0.9896487289576448,0.9916342181105113,0.22459584748319036,-0.29487547609931886
1729842734.3992171,-1.8451187012546997,-1.9978241958211092,9.801668694686043,-0.09993175454101146,0.09061523765539586,0.009139262446228666,0.990817337868565,0.9470262116954069,0.16625857303810454,-0.34379578975270775
1729842734.4072165,-1.6031498047371948,-1.74241771451415,9.339664935073344,-0.09175505515644759,0.08312986777297547,0.0076869609073028314,0.9922758414721656,0.9189843376619582,0.10528911462186914,-0.35526899536333567
1729842734.4152324,-1.491008449736848,-1.5039402466284117,9.113219754501038,-0.08141394261472895,0.07967022958595217,0.006528904012911341,0.9934695757183697,0.9106730144711295,0.009110830967443459,-0.3340573746732184
1729842734.4232335,-1.4479050735042183,-1.216483405789547,9.001055242593202,-0.06689894466647771,0.07877981447779893,0.0052987370488896905,0.9946306829266036,0.9073889808024804,-0.08137427395778837,-0.31324229109136936
1729842734.4312382,-1.524993719151359,-1.051191906266697,8.919391325487561,-0.058407496433841265,0.08385432934323672,0.004923557219247771,0.9947526196974983,0.8841340575281895,-0.18376831385813705,-0.32586895456851983
1729842734.4392333,-1.3464313706509714,-0.9783532248147057,9.081322141483943,-0.05348416050682506,0.07300789094418449,0.003920886453333556,0.9958885073562112,0.8139900154506268,-0.25797543964220715,-0.3696286078790828
1729842734.4472537,-1.074572887331989,-0.6648234888439015,8.806661113259505,-0.03759333606580237,0.0604585310218747,0.002278625740185313,0.9974599315134703,0.7361456250412783,-0.3161217970794343,-0.3711943763006228
1729842734.4552205,-0.9167250409929434,-0.48316999174384095,8.351208414781874,-0.028847163046168908,0.054526497745395926,0.0015759380462317043,0.9980942934648427,0.6247341014534407,-0.3803822257826507,-0.27081960272558325
1729842734.4632084,-0.7590488295274066,-0.31480169231192956,8.389183011515609,-0.018732637029510342,0.04506212901198958,0.0008451397618152713,0.9988081790702409,0.5383054444734845,-0.42787797429528324,-0.16674866224997026
1729842734.4712121,-0.4762588521598033,-0.20061260352192337,8.450514416284365,-0.011862450822731727,0.028135895488545677,0.00033391639437729007,0.9995336623372809,0.45664994598316855,-0.513417891638775,-0.05450036077354477
1729842734.4792013,-0.274263143327132,-0.2855674766639353,8.272313950063587,-0.017250266988975943,0.01655802247517853,0.00028571200831494707,0.9997140483904229,0.36040505006669354,-0.5681473625365663,0.06563418773360244
1729842734.4872153,-0.17892309595721664,-0.36646792130109557,8.317664895917058,-0.022012157880207692,0.010740720634145898,0.00023649739278081773,0.9996999779407316,0.28605620011978933,-0.545219647023715,0.1798582329226319
1729842734.495408,-0.10208661392198624,0.272127688381452,8.387971093311954,0.016214595788019596,0.006080961433960481,-9.861512014635218e-05,0.9998500382890065,0.23718998953702647,-0.4297230930265786,0.321611350607519
1729842734.5032144,-0.2999538738707699,1.015851824210512,9.229818166241078,0.05477550342240468,0.01612108114649525,-0.0008844836758928521,0.9983681548687925,0.23468873705947674,-0.34254617804689147,0.4279477242915528
1729842734.5112162,0.0012687413513662186,1.966305175336854,11.933761214686053,0.08155981587696065,-5.227569653445985e-05,4.277848060791605e-06,0.9966684472195695,0.2778854420264602,-0.30769332157902246,0.5151625018823849
1729842734.5192373,0.2514341586291791,1.7689961337665654,12.09207272856749,0.0725638721188709,-0.01025840265731927,0.0007463966806373853,0.9973107301789306,0.1773735167524269,-0.339992865381055,0.6304934975332648
1729842734.5272381,0.33593228350758564,2.28555298909783,11.947878891046745,0.09435513260309153,-0.01374232834329809,0.0013025952743183522,0.9954428967091529,0.04512474120092359,-0.32446600662238795,0.7307674694105211
1729842734.5352411,0.31719931029009824,2.482480783937213,12.444829533114374,0.09828029256051929,-0.012434559540606925,0.0012281140689053265,0.9950803271892594,-0.14234979974133444,-0.2074503058172937,0.8454201804040149
1729842734.5432408,0.6914259936447621,2.555626469629906,12.394643576802219,0.10145481270016182,-0.027146070561317216,0.0027694259013961832,0.9944658576910681,-0.29016679940803786,-0.14745744680932593,0.9669973746214031
1729842734.551455,0.7845203325149822,3.102296229678334,11.504774186852817,0.13123998971096146,-0.032581644288559954,0.004315694579967255,0.9908056703190655,-0.3763028588392877,-0.13189485435472278,1.1838269319260029
1729842734.5592165,0.783873776657427,3.0220867026507503,11.151375358058953,0.13185990790605012,-0.03356887022505538,0.004467986314248053,0.9906897257653968,-0.4811957521807916,-0.10042141568593524,1.3352091693818642
1729842734.5672119,0.5354465511507062,2.9730033057701375,11.04156847167131,0.13109281939673798,-0.023191775639156052,0.003067595122457631,0.9910940440268431,-0.5815922135943528,-0.06748958045641568,1.3796382951560193
1729842734.5752144,0.3095363425556581,2.701499479799973,11.44207482323716,0.1156582125485928,-0.013072534314577472,0.0015222946982466586,0.9932018774325341,-0.7239882723046615,0.01314319947036658,1.305407226054011
1729842734.5834002,0.0037624793615198627,2.5630180411514685,11.4836598963837,0.10957420411184988,-0.00015892230727938524,1.751927580640458e-05,0.9939786055192688,-0.8485893931853536,0.11005153443310753,1.1825416132837923
1729842734.5912135,-0.13995809099636933,2.250804079085412,11.058740448328269,0.10022397983900276,0.006169229815216797,-0.0006214458124182985,0.9949455805589673,-0.9522969898931871,0.25035471727292424,0.9462086421431648
1729842734.5992541,-0.26449765977360284,1.6789669152246849,10.457587219436414,0.07950533887605193,0.012443864875718436,-0.0009925733316083062,0.9967562721725609,-1.037508811236837,0.3975387560731949,0.8022804091514782
1729842734.607214,-0.5202230465477554,1.6861363197891077,9.905598569454815,0.08417313058323506,0.025768872377862816,-0.002177505158282241,0.9961155092535587,-1.0745881320147797,0.5152217935942374,0.6954903464062888
1729842734.6152349,-0.8130008152333408,1.9758268004183868,9.145364441965858,0.106083919610393,0.043079051839370094,-0.004600297186382304,0.9934129224841569,-1.02659686434031,0.6122243999175089,0.4079290264916086
1729842734.6235151,-0.983639652958364,2.0272973839619697,8.884111980609202,0.11177257424567032,0.05340030563342925,-0.0060151278716974186,0.9922797575489685,-0.9641725888801278,0.686176495985567,0.11109073659588725
1729842734.6312344,-0.9414131753199402,2.0208301881896817,9.50212416102177,0.10445616607310548,0.04801899071649264,-0.0050494243680828,0.9933567280757846,-0.8709526255524924,0.7633258883589783,-0.17896872350605986
1729842734.6392338,-1.001550288004464,1.9317162916247463,9.691450983429469,0.09808273528316411,0.05023706954437527,-0.004957645230923782,0.9938970950942208,-0.8048040860808224,0.8257917461185823,-0.37684304300910193
1729842734.647243,-1.0735455805175222,1.83203986164477,9.6949138005069,0.09310531743328244,0.0539279256535905,-0.005050360079897254,0.9941819112030815,-0.774054453688523,0.8764676526796676,-0.5164264477225667
1729842734.6552362,-1.2960684603710602,1.8208362973579557,9.608884869659608,0.09328942343561412,0.06554210998222906,-0.0061546349059852104,0.993460334267706,-0.7709295164657766,0.9430568518405915,-0.6040077011038039
1729842734.6632152,-1.5986128254902143,1.783468377535867,10.209448043377796,0.08610071494368937,0.07615970427484745,-0.006601308452144043,0.9933492784804714,-0.7647976535175084,0.9855645117059181,-0.6237783183999697
1729842734.6712167,-1.474160472393738,1.6750957860430047,10.593009703712225,0.07814635815274773,0.06803698870421453,-0.005345692485190222,0.9946032065338312,-0.7432395531671421,0.8871932997396628,-0.5734899398042126
1729842734.679215,-1.3408311198620242,1.864815287787912,10.23321541085038,0.08981250923072286,0.06379495127494092,-0.005764768662638142,0.9938967173805211,-0.7337102134486186,0.7247278876246359,-0.524160859880967
1729842734.6872149,-1.9024795532648708,1.4490495816082942,10.67167414885398,0.06716038799828859,0.08711442389596849,-0.005886460935203559,0.9939144374697709,-0.7028768959912446,0.5429620081861376,-0.4898808212509371
1729842734.6952162,-2.2188784790292346,1.4406862650782577,11.177282019829965,0.06373507962415145,0.09684857595981325,-0.006214682119428465,0.9932369156883033,-0.6294628875882182,0.4743430363619316,-0.4837862601626284
1729842734.7032537,-2.224603726821838,1.2532301086563298,10.940993688216338,0.05669838887474045,0.0993355144588332,-0.005669462099542714,0.9934211621793193,-0.5815832719932441,0.4246578520381673,-0.4511825993302249
1729842734.711217,-1.946001919930993,0.9896822900473133,10.072341065224725,0.04872228534970737,0.09472276295853914,-0.004641567111874564,0.9942998506197956,-0.5656262044801206,0.3092830390900404,-0.31710977629749637
1729842734.7192218,-1.6993533406792989,0.9507848415576848,9.272224998021553,0.050853848769515445,0.0899288127122037,-0.004597878208221907,0.9946384037555974,-0.5539235136649363,0.19450931474472688,-0.1830291347336433
1729842734.727235,-1.406036152356798,0.9600075150420329,8.490007108187932,0.0560740150169184,0.08133072162355429,-0.00458300603575809,0.9950979924689581,-0.510718243951553,0.036250167230512165,-0.04851811198965342
1729842734.735221,-1.2841547968828286,0.6358595505291259,7.563623277363931,0.04177006332013622,0.08362667624285933,-0.003508475693598489,0.9956151522697468,-0.4473343567148642,-0.15533696522989787,0.06368956620493085
1729842734.7432358,-1.470557443559385,0.41766817538583495,7.585274419299218,0.027369553641168883,0.09542425430418057,-0.0026246933739773543,0.9950568979755212,-0.3854653809309772,-0.28348563661146686,0.14974453582601077
1729842734.7512336,-1.5598935359598494,0.5185120710029852,7.826193102507265,0.032906618208802654,0.09794854039422918,-0.0032405178707108316,0.9946420144738658,-0.27682806513502367,-0.42720817908994724,0.15242316053052513
1729842734.7592206,-1.2462246567321595,0.49186946794358805,7.754308482353968,0.03156401885103171,0.07939486943894977,-0.0025152263217128774,0.9963402235468035,-0.18312444153949545,-0.6113504187133028,0.08762268576515679
1729842734.7672105,-1.067360715670155,0.36383526841263714,7.083178614803006,0.025583259160630655,0.07459113668914313,-0.0019142489066058905,0.9968841431326235,-0.06390013828579785,-0.9112678398379201,-0.04831493310740742
1729842734.7752287,-1.0081658044020931,0.3341805213991448,7.249841849057584,0.022972056772975633,0.06894172531293119,-0.001587933466722705,0.9973549025225679,0.06467691190233293,-1.1546461116705333,-0.09369384920667326
1729842734.78339,-0.568986457738912,0.41909892441175245,7.628285442686503,0.027419313826555318,0.03714718764997911,-0.0010196383043277431,0.9989330448116662,0.15203970349030016,-1.309186875999342,-0.09793393554728305
1729842734.791215,-0.032300440317175355,0.48273923501814525,8.114883058824791,0.0297046227492697,0.0019857969043595262,-5.9013505871980656e-05,0.999556746020647,0.20488306850454255,-1.3435917961763286,-0.10303212772042111
1729842734.7993126,0.268402775360476,0.8374368808546371,8.17843479012886,0.05099085874661229,-0.01629607119303107,0.0008321441166729531,0.9985658105123186,0.23403494714431577,-1.261217753408709,-0.14482883861734883
1729842734.8072178,0.09807416155417624,0.8247216719698135,9.389724642387863,0.04378914572559884,-0.005197189759442731,0.00022780209402169463,0.9990272509003107,0.23109295137800218,-0.9419058287812091,-0.27632938052101336
1729842734.8152213,-0.04386675428819739,0.9961788308186068,9.747552077913186,0.05089999345537247,0.0022355642058721286,-0.00011393818104931751,0.9987012465882955,0.2195368825045873,-0.5545012457321747,-0.3973730217479532
1729842734.8232203,0.3742298851712222,1.2199603099657734,8.736896129560412,0.06929624359870672,-0.021145583510755805,0.0014691720884474594,0.9973709121758428,0.21175186105761434,-0.281192250002399,-0.4755331772831235
1729842734.831236,0.5197429957999989,1.120794535588839,8.405356911134685,0.06619966864057264,-0.03053585461788623,0.002026861023098411,0.9973369828142475,0.23304794193861447,-0.13125462459278062,-0.49177958617895945
1729842734.8392444,0.790207289179218,0.5247544789216627,9.539524864454249,0.027448753871366405,-0.04123382491801426,0.0011332089498084,0.9987717724440432,0.27690096495394284,-0.07875277475566837,-0.47130343715265677
1729842734.8472328,0.7767514633512809,1.2567316204584662,10.473571592256535,0.05963250812358136,-0.03667732645719421,0.0021925459723581603,0.9975439491275572,0.3010843284558297,-0.11451069456440202,-0.416874431652134
1729842734.8552222,0.660460052815456,1.6825103760836733,11.754893748810952,0.07099521717609665,-0.027707217469625674,0.001972821198201092,0.9970898140161345,0.30197226459017684,-0.0874367794429706,-0.4301915549897198
1729842734.8632312,0.5887698451658361,1.8443643445466884,12.288576439716259,0.07439731099866824,-0.02360508554368854,0.0017615315950996894,0.9969477102933143,0.31314727780733587,-0.03075187453121874,-0.44286441966835355
1729842734.871551,0.8718459866893453,1.7774739119037943,12.354282417784834,0.07134135364967384,-0.034772904423070995,0.0024886037215090546,0.9968425468592989,0.33134591739710617,0.08669432046239058,-0.3338290616349372
1729842734.8792121,0.6634078092987634,1.1940952956286048,11.886853513170902,0.05001869750163622,-0.02769857970661669,0.0013877183569509296,0.9983631567822592,0.3477990719499747,0.24400280999681062,-0.2002974369809623
1729842734.8872256,0.399960046907383,1.3209930965666157,11.92051542821504,0.055147261486272775,-0.016641733719028273,0.0009192728480950206,0.9983391143227939,0.35596820443584776,0.35839533660617806,-0.11677294169688113
1729842734.8954453,0.2801986160350548,1.1986524595024695,11.29403870883332,0.05283900385751876,-0.012315389900991463,0.0006516929511658209,0.9985268880401915,0.40131023976626456,0.45342363638244454,-0.07474635569421102
1729842734.9032187,0.09796906097845477,1.2540561265803878,10.833397938434757,0.05759021332958659,-0.004484037684757949,0.0002586686109651023,0.9983302028012796,0.44979996403761624,0.5389618503661606,-0.05804420532184959
1729842734.911213,-0.14233150286605212,0.9631234220419826,10.215121479125308,0.04698461458471905,0.006927785800280492,-0.000325867074989152,0.9988715360780286,0.4942186408130604,0.641367586131834,-0.040360493992116164
1729842734.9192228,-0.27118895054775627,0.9020489580103458,9.566428210961513,0.04698542789221128,0.014091600698412182,-0.0006628980485119532,0.9987959535969896,0.5268295077387953,0.716007419496561,-0.017405255411877193
1729842734.9272394,-0.5773890978677163,0.6374762815444888,8.561663003237065,0.037129631470768996,0.03354632548710896,-0.001247126032501585,0.9987464539060035,0.5600181098610213,0.7595142493310111,-0.018105574353442885
1729842734.9352381,-0.6509759098925048,0.10332185535247448,7.466316597108254,0.006911900214343964,0.04346533590081362,-0.0003007194675906825,0.9990309803896265,0.6225002772805601,0.7507117621917945,-0.09812980721178222
1729842734.9432356,-0.7499552151249559,-0.38332839557757775,6.922354491956358,-0.027614196641073386,0.05383007546080749,0.0014892038493195818,0.9981671009363347,0.6991530633867903,0.7262742171424731,-0.1997812946710018
1729842734.9514194,-1.005667334397239,-1.1742701721121718,7.728434614119127,-0.07516236453441821,0.0637479467954065,0.004814943776083267,0.9951199096357174,0.8264515367897765,0.6528664616311199,-0.35484969072964256
1729842734.959235,-1.3508701589391248,-1.8075708081012876,8.85779887516093,-0.10019341957602498,0.0737217511641955,0.00744446318643515,0.992205100796611,0.9347573754412205,0.5628472816864086,-0.45853297990137776
1729842734.9672232,-1.9087423968771466,-1.97614318310296,10.444735222313355,-0.09297542204712095,0.0883298322580595,0.008281170580266103,0.9917080386092689,1.0474181655158343,0.4598814166514482,-0.5181888130356467
1729842734.975226,-2.233649512833319,-2.02988141523287,11.558745062831372,-0.08641208517292451,0.0935475854094009,0.00815027641352012,0.9918242655806125,1.132467932080546,0.42321761125673185,-0.6455056761305449
1729842734.9832144,-2.4362552277195224,-2.3463160915713623,11.775125693704682,-0.09767195730390711,0.09944607214835373,0.009809330923446628,0.9901890953335745,1.1766867510359804,0.3986651876511298,-0.7682960106868453
1729842734.9912155,-2.245854180332885,-2.3060941178334424,11.319571766320465,-0.0998378815134209,0.0953771082479791,0.009614788245764163,0.9903752624556788,1.1512838549108733,0.3379592068498692,-0.8521867728957142
1729842734.9992127,-2.1387961568813716,-2.2086983627899093,10.987102628884076,-0.09857059021149789,0.09368702416138339,0.009321792236636862,0.9906662830835812,1.097304321642764,0.28237956560332145,-0.88038534702501
1729842735.007404,-1.7247684802616354,-1.9951166421856643,10.792170129576538,-0.0909859782419443,0.07753562093416139,0.007105789352363424,0.9928037505002639,0.9563656360090804,0.21880778649158855,-0.8585666959095426
1729842735.0152388,-1.5788237053444811,-1.5454263268641328,10.287828801378735,-0.07426327186359052,0.07502648606168028,0.0056031087913908295,0.9943965999606107,0.7679340496321346,0.142778303554428,-0.8084404698930654
1729842735.02327,-1.6727373262340324,-1.2222214406497298,10.116905095768647,-0.059870619391081584,0.08111176965876161,0.004881138680279567,0.994893242635478,0.6323135245484796,0.07885594114926428,-0.7528233305954571
1729842735.0312335,-1.6649208942755758,-0.7982157293800722,9.713878564052985,-0.04083025301220097,0.0844218553907813,0.003462243938742965,0.9955871903747288,0.5769083032474704,0.0034674883589693103,-0.6602821284736697
1729842735.039326,-1.6145017833915172,-0.8186666532042152,9.456260914066558,-0.04300662615780144,0.08406438753354288,0.003631576271405588,0.9955251983294638,0.5479220710814853,-0.05496197522053064,-0.5672966817919386
1729842735.0472631,-1.5258317963532697,-0.8869615263463573,9.67327042173095,-0.04555799777980762,0.07774237580480867,0.0035562764198487995,0.9959256722971572,0.4709337231772097,-0.09768207447454719,-0.4357325828426582
1729842735.055228,-1.3162884357221178,-0.7996092412472675,9.582970153429194,-0.04151176870165671,0.06790668410056445,0.002827908894156509,0.9968236846328505,0.3234264798066809,-0.15524088863660948,-0.2827240527786965
1729842735.0632107,-1.07109175650163,-0.4835962674046104,9.236697389909079,-0.026105936589162552,0.057592556000683116,0.0015065242047994844,0.9979976492722471,0.1910760574537743,-0.19871566842454952,-0.1402618174263377
1729842735.071222,-1.087018882025978,-0.43141565839198504,8.709547230332166,-0.024694598665954266,0.061948898560734926,0.0015332182791530677,0.997772599345937,0.07335369851044751,-0.24012537850994667,0.056320629826667815
1729842735.079217,-1.1451774510417587,-0.3388157304844097,8.51464315875594,-0.01983812786610372,0.06673131444675162,0.0013270452678003108,0.997572864158721,0.004848733451761601,-0.28540432751136247,0.2091766832183577
1729842735.0872672,-0.9622002413770083,-0.3524482017183802,8.314143077870751,-0.021144944949453917,0.057513067446234675,0.0012184011662964096,0.9981200598498196,-0.04476804681269058,-0.36748571484081405,0.3277087891254796
1729842735.0952168,-0.7710110591328456,-0.44921314588454375,8.152423340618935,-0.02748787455332098,0.04704080203708777,0.0012949761979913741,0.998513847041139,-0.130303513022888,-0.4644118341222325,0.4264979066647849
1729842735.1032195,-0.667789717755098,-0.3889985503725231,8.187312009742454,-0.023715708722257124,0.040623621648610435,0.0009644860839667918,0.9988925649390655,-0.20546343619088023,-0.5170335348920773,0.49385948835614657
1729842735.1112165,-0.3077788062389963,-1.1671377776844514,7.5608530823103175,-0.07648759437311138,0.02004408392888616,0.001537940817078496,0.9968678535014104,-0.26673561242723276,-0.48390166601175527,0.5351278174938876
1729842735.119416,-0.3987089121613665,-0.7421811956634051,8.350714514181112,-0.04429421206367512,0.023735540919707362,0.0010526776986223127,0.99873597048698,-0.2966878771856518,-0.42954164970513753,0.5658484758370007
1729842735.1272323,-0.387905270392523,-0.3085998026031212,10.856590322278198,-0.014205898081591208,0.017847417788286815,0.0002536045948989946,0.999739765050233,-0.25633969762040487,-0.36329612506566633,0.4914804374441457
1729842735.1354036,0.09550188537190805,0.09496171267640852,11.739059896491918,0.004044555798281534,-0.004067430040643479,1.645121840187988e-05,0.9999835485199826,-0.2798080767650043,-0.31673776929859115,0.3446939996575451
1729842735.1432438,0.7540138143286135,0.32847949586756386,11.203361322416633,0.01464654383109651,-0.03357625049930696,0.0004921063703731589,0.9993287106790897,-0.3339039700291949,-0.28497154528518776,0.2613047276616671
1729842735.151237,0.48736363283544937,1.279506268077179,11.592301810539823,0.0549251369734302,-0.020848914490396175,0.0011471115491118126,0.9982721253386353,-0.39020014942958303,-0.14416445329900468,0.34280939345590805
1729842735.1592212,0.5134029929336914,0.9755204649478698,11.362388082173503,0.042798253895244276,-0.02247170157560953,0.00096287565462328,0.9988305186378161,-0.4601615122940885,-0.011577221162085247,0.4849383163926375
1729842735.1672187,0.2369340064535742,1.7697238402480189,10.976639973327538,0.07983561591203564,-0.010619229744692111,0.0008505561071417358,0.9967511138423092,-0.5808909913832677,0.06967787836591455,0.646839881217841
1729842735.1752176,-0.13293336687980858,1.5227181237288894,10.3949194051391,0.07266052699495947,0.006309529131968056,-0.0004596779876001863,0.9973366665048945,-0.7027087259663709,0.13673561072558177,0.7124797555647726
1729842735.1832187,-0.4228491180282758,1.6771417836611617,10.320023154313928,0.08044828672882305,0.020143619524456452,-0.0016261234732558153,0.9965538939150761,-0.7664341853640682,0.19782906315302165,0.6909900013838611
1729842735.1913893,-0.6659909966958718,1.6266227203431813,11.018963859629372,0.07318137638860946,0.029776113238348816,-0.002185895190550533,0.9968716522664799,-0.7659316654096415,0.3000414040746385,0.5729507036941924
1729842735.199375,-0.6811527132518981,1.3370192425574712,11.394753812603794,0.05834127216169969,0.029595531595498017,-0.0017303501322949097,0.9978564056819769,-0.7613732528223653,0.39457263342164706,0.47190313071658696
1729842735.2072175,-1.0896025800995763,1.2037191639426859,10.942189874232199,0.05468660317300117,0.049235845720966905,-0.002699870565798488,0.9972852739454583,-0.7479959537334488,0.4921576169302072,0.37040834102966863
1729842735.2152164,-0.7045186232550583,1.0306046721937365,10.018231558816662,0.051201221317518794,0.03486739899501179,-0.0017886914515870408,0.998077902774031,-0.7220905916986936,0.5647563790635903,0.2992949057424289
1729842735.223221,-0.7466466585721757,1.1738175884724917,9.213423075914998,0.06326479312491956,0.040017149508472676,-0.0025388083790261356,0.9971909286330739,-0.6929252925110554,0.6095927065280062,0.2762085873973385
1729842735.2312512,-0.9656143940690867,1.517122016706542,9.215124402189623,0.08138214560019805,0.05131991011145072,-0.004196027527234456,0.9953520013325192,-0.654141609925371,0.6339403626378837,0.2623567963902843
1729842735.239235,-1.184622816128952,1.5971696663227533,9.321011230669242,0.08457879469207483,0.06204413704718369,-0.005276802957501444,0.9944692594027499,-0.6312970904354223,0.6310956637838668,0.20296291441060796
1729842735.247407,-1.356250457255496,1.6779988188366206,9.228920219846858,0.08956549495584064,0.07144405463720278,-0.006441472415567474,0.993394320802888,-0.630786770646776,0.632368674901691,0.05196457856659159
1729842735.2552462,-1.8621711813357196,1.8825982585871286,9.72505025568741,0.09503431754901465,0.0923543576573646,-0.008855281157209429,0.9911411277438321,-0.6641100936290888,0.7276356752169564,-0.09099430049964811
1729842735.263218,-2.281602976135416,1.909829276197199,10.310990157074556,0.09089976048065615,0.10646695759817291,-0.009774547158981652,0.9901042766861403,-0.7049629004301161,0.8243850511220846,-0.19592568070518335
1729842735.271218,-2.277082475378515,1.8670311057573818,10.604853837897078,0.08653255709824528,0.10361627379369803,-0.009049393291665547,0.9908046693714161,-0.7447994267233655,0.8879686474641679,-0.2835745323933023
1729842735.2795248,-2.3766025858130466,1.7786241199973976,10.732090912357387,0.08153261199966007,0.10697570628329005,-0.008802339497499569,0.9908739325792535,-0.7563563307169163,0.8903608401066073,-0.3233931415623128
1729842735.2872195,-2.3965709045151713,1.7744216424085948,10.447387546682009,0.0834793908746517,0.11058572890486303,-0.00932195340217358,0.9903106023094699,-0.7330664787492425,0.7372706633813535,-0.31450617233114264
1729842735.2953787,-2.2816592077481657,1.5796457625447662,10.745829052667409,0.07250648853955553,0.10307083535108566,-0.007533578831028502,0.9919992223836113,-0.702490655171619,0.5700694164674216,-0.3100253709153646
1729842735.3032203,-2.12197194676804,1.3155368325268597,10.706782185018415,0.06079063306003574,0.09678154282751,-0.0059223221262436525,0.9934297952048348,-0.6445559853090759,0.44037605407818226,-0.31201948074198005
1729842735.31122,-2.1439543118596522,1.2320099864790064,10.294296294653625,0.059199174349320094,0.10160123569057089,-0.006056841953278521,0.9930437862088766,-0.5736115281672775,0.3651141770134108,-0.3034250752243226
1729842735.3192997,-2.1997605204654005,0.9123067719167007,9.753993897397644,0.04631756532874492,0.11009609546291534,-0.005136220808021366,0.9928278562478238,-0.5072062104403245,0.29952392782437043,-0.2863491101927913
1729842735.3272386,-2.1882332544179124,0.7848888678375204,8.773082943663194,0.044255375241425,0.12133055361638481,-0.005414958923793546,0.9916103250477154,-0.3996783000316898,0.20185023989064788,-0.2637585193914736
1729842735.335438,-2.0965621560198877,0.8662160147943092,8.176396085777995,0.05232165223348164,0.12433733697844485,-0.006565691022544338,0.9908378086458266,-0.2994035886236983,0.10663668184467964,-0.27404280835255673
1729842735.3432322,-1.6615996935142765,0.8240326398824449,7.71902460215039,0.0528430201267908,0.10508727038891019,-0.005592036455247438,0.9930423001838193,-0.19028440471076977,-0.037757915582617776,-0.3674798443289231
1729842735.3512433,-1.724078860298019,0.5047146510681388,7.843475708555858,0.03192959820998513,0.10770316658771972,-0.003460846048071745,0.9936642044522678,-0.08309526833973355,-0.20101888510216193,-0.4852671248267376
1729842735.3592415,-1.9131193254561552,0.3863864285803364,8.113752648033906,0.023624885885221426,0.11536221528181238,-0.002744524586365907,0.9930387160815927,0.0029284066174517925,-0.33090222142354075,-0.5631762241702807
1729842735.3672173,-1.433260433164318,0.4461129057321862,8.226119417189484,0.026981304144427037,0.08598856752945166,-0.00232956973956045,0.9959279836342221,0.09242902706188381,-0.5029097267994771,-0.6180097949441852
1729842735.3752165,-0.9166988392442939,0.5908849675604054,8.067048001632049,0.03648942713204828,0.05635732057474227,-0.002061101313794925,0.9977415126106486,0.1606028614182521,-0.6750760199818879,-0.6717687504201675
1729842735.3833642,-0.5818621856266545,0.5103935086124152,7.905525186477277,0.032207963895661225,0.036631446812366096,-0.0011812311802302364,0.9988089851713527,0.22279166510517465,-0.9367324987552101,-0.7593638316958209
1729842735.3912163,-0.6859814849599771,0.5341641032143241,8.161037981759412,0.03264430453878501,0.041805622559687526,-0.001366640532718699,0.9985913937127789,0.27798392989873355,-1.2001489013847113,-0.8242658922436119
1729842735.3992143,-0.5834925701752051,0.40764740235828195,7.772298403069319,0.0261783039508663,0.037393598238518656,-0.0009799228599874023,0.998957183749244,0.31918739994264744,-1.3892741174491405,-0.8606529882035143
1729842735.4072173,0.5640106517425332,0.5467366909266879,7.793797712495888,0.034986954166269804,-0.03600221337576626,0.0012611990623284481,0.9987382855619075,0.3622141546118631,-1.5368044520047606,-0.8833366259023798
1729842735.4152353,0.6369633380670043,1.2301772001028877,8.331745722224095,0.07317527261788849,-0.03763299319551514,0.0027631855847281895,0.9966049879996931,0.3952669384582471,-1.5184744473111627,-0.8816219663090661
1729842735.4232385,-0.15172896737464114,1.1259669890070452,9.619138376937974,0.05822748574001516,0.00781933331936593,-0.00045608795975119674,0.9982726130244233,0.4197811994421598,-1.1281865997323337,-0.8852757612291602
1729842735.43123,0.3023299523388872,1.5374927910604772,9.712578378945986,0.07840798390735526,-0.015319655469246596,0.0012050359060999116,0.996802911364304,0.43874665664712775,-0.8135584695687124,-0.8751230263988176
1729842735.439236,0.7732446217939574,1.8358836079858956,8.691491053246496,0.10379417531320807,-0.04316460948833423,0.00450885964805043,0.9936514760435093,0.44416627010964005,-0.6520257554041096,-0.8345504905221874
1729842735.4472373,1.1321684564259837,1.532725883785678,9.355426983022117,0.08095688486404218,-0.059200466677060574,0.004817029321599696,0.9949462717990571,0.44060699720375496,-0.48444157670265064,-0.7259203368267272
1729842735.4552207,1.2400231026641841,1.2172347966288288,10.666218793573034,0.056686291378277784,-0.05737446167174795,0.003262993350241857,0.9967367698605537,0.43676867321437574,-0.3336596422292556,-0.6126392676642415
1729842735.463213,1.4969902837176507,1.1658461599597192,12.162574672139913,0.04767114502298699,-0.060848998507452005,0.00290945901734343,0.9970037093015571,0.41701238630080495,-0.222331668533579,-0.43909949092416617
1729842735.4712167,1.5465439798009029,2.044809608817628,12.42784012066676,0.08128834141760316,-0.06084886567583159,0.004972063486615082,0.9948190286078292,0.41750362593506135,-0.13339900112014738,-0.27495332621397456
1729842735.4792116,1.6540877514059324,1.8771509361890142,12.477344953747712,0.07442828964245128,-0.0649468310591346,0.00485769712849466,0.9950973528328187,0.4305690715594762,-0.04172729514050558,-0.17391148701908737
1729842735.4872172,1.3355417487439503,2.0296228480903618,12.32006070393808,0.0814263319911442,-0.0530759338430967,0.004342380310797758,0.9952556663683897,0.4273403973361123,0.17546364186431357,-0.09285326055197757
1729842735.4952183,0.6449836808381669,1.3087533719401545,12.268546363769097,0.05309296265126491,-0.02607417794818635,0.0013867848071475754,0.998248141189923,0.412206800896771,0.37942258470013646,-0.022508131537148077
1729842735.5032208,0.5854695261298533,1.3126946488965145,11.51506769863255,0.05670474374400727,-0.025193535694534752,0.0014313525674580694,0.9980720460096868,0.4163230349384891,0.5179741727371874,0.050348630297015896
1729842735.5112133,0.3357194048868963,1.6320517148750182,10.165873137490077,0.07949695373553349,-0.016245229572002844,0.001295719696006779,0.9967018852060995,0.43965158837515955,0.5904628740228672,0.1106645997945335
1729842735.5193815,0.1959249791137784,1.6012446202336048,9.531372542162014,0.0831210515843664,-0.010099226770924818,0.0008424169801309032,0.9964879260361212,0.4549257906215479,0.6509836972527564,0.14557711130865797
1729842735.527239,-0.03950464143798298,1.5044699691616472,8.979726186430021,0.0829040368980511,0.0021619369132797133,-0.0001798528594794817,0.9965551737599572,0.46196186166207076,0.7222027762305765,0.13715200397625246
1729842735.5352545,-0.24660295942333668,1.3527918936063632,8.201980343205667,0.08163126568867075,0.014778348276945508,-0.0012105488932740252,0.996552292383921,0.47171747508539086,0.7674883639860408,0.10527846570470119
1729842735.5432377,-0.5415685285836895,1.1657775617009272,7.165034001821838,0.08049970703375536,0.0371033968722234,-0.0029986292550808796,0.9960593071351788,0.5201398492855861,0.7878486756559269,0.01804393290784536
1729842735.5512538,-0.8837477846306824,0.3348296241787594,6.558667927948572,0.025441507575959855,0.06681150012936406,-0.0017041483374885384,0.9974397470630345,0.6249661047459449,0.7634555173721237,-0.11134668789489585
1729842735.5592391,-1.1793167408467686,-0.31624978408649435,6.913108781671487,-0.022770615218196052,0.08427367546358247,0.0019263208770665396,0.9961805739896368,0.7461813964424586,0.7134873473004932,-0.23112437646128173
1729842735.5672178,-1.3413352239514205,-0.7990741929616623,9.126368201131799,-0.04353313558935165,0.07255703507409599,0.003170019743623127,0.9964086981464185,0.9619424321116095,0.5545223566345193,-0.3864262416476714
1729842735.575219,-1.676290538667727,-1.220928769927388,10.731093564722046,-0.056439052726839356,0.07679005525834755,0.004353815374590416,0.9954390815275442,1.1603608434699488,0.4016752039375607,-0.5281360277661769
1729842735.583324,-2.1559488007396985,-1.6852101025326045,12.113871754067603,-0.06878508624117784,0.08692317210208292,0.006016202296554222,0.9938192890925555,1.3475223001188779,0.29591914029113847,-0.7664103215636116
1729842735.5912158,-2.3015281793696003,-1.862504171871125,12.688795611034312,-0.07250832731420023,0.08843295632640041,0.006454606159323733,0.9934185888963413,1.3857491034138416,0.30313005230598244,-0.9851477287823138
1729842735.599213,-2.295980782133479,-2.137911250681269,12.513250484296368,-0.08415620692654677,0.08902567473224522,0.007549142153892598,0.9924390019174705,1.3533454774007556,0.33384938332553477,-1.0925515296716615
1729842735.6072142,-2.298877268108212,-1.628948310467355,12.201543225148134,-0.06601675434368282,0.09197867306003482,0.006111544442242624,0.9935513881388177,1.2611103012828968,0.33099647886416456,-1.088032020248421
1729842735.615233,-2.0662228171637556,-1.142090060499163,11.994646995879895,-0.04726947126116768,0.08471974274938432,0.004023669999990815,0.9952748225263708,1.1691598503264466,0.29310108096306975,-1.0572247705379825
1729842735.6232657,-2.135643951528722,-1.300563862959654,10.871887745867781,-0.05920807112009394,0.09599497555356784,0.00572027070049557,0.9936028620559729,0.9947963625432077,0.25461330994831766,-1.0332064499127132
1729842735.631247,-1.9646915247258272,-1.2438557591820423,10.438849462706212,-0.059000835161213946,0.09208469199799264,0.005465942429717738,0.993986636944013,0.8020604271506239,0.2630217118876568,-1.0502965220857416
1729842735.639237,-2.0718521340737777,-0.9931556466713347,10.37032320545576,-0.04748166436058361,0.09788846809322534,0.004675713596223141,0.9940530554584481,0.6689655733951303,0.23273447794991164,-1.019258629427742
1729842735.6472592,-1.8782929808837194,-0.48599953180162897,10.043579193048847,-0.024066153777608127,0.09217568458001796,0.0022284550188852686,0.9954493946970817,0.5550534562248716,0.12005894394269354,-0.7963046643311669
1729842735.6552212,-1.8574467150439036,-0.3246397019911336,9.737160089071496,-0.016586313678009865,0.09404359321742285,0.0015669998064093314,0.99542867212319,0.4577592617432982,0.026912219850640774,-0.5731373723661952
1729842735.6632094,-1.6208416801493888,-0.7583788919954615,9.074707714819851,-0.041508241597299864,0.0878826633597601,0.0036652320705472187,0.9952588956820051,0.3453201072486761,-0.0817613822258828,-0.38134314882837594
1729842735.6712127,-1.4635557685876803,-0.3915809912031363,8.600142996811831,-0.022664422928977114,0.08407482581938097,0.0019127762970639174,0.9961998237721058,0.2037865438575094,-0.16399314593027825,-0.19347361419567694
1729842735.6792138,-1.123299711152608,-0.382910257319538,7.972793908438661,-0.02393184399411073,0.06982859542119688,0.0016757008977447369,0.9972704879475005,0.073317569246372,-0.20779823335390907,-0.017749764319676856
1729842735.6872144,-1.093922797882971,-0.20915602011437906,8.107785930024134,-0.012865117083474013,0.06697851392459943,0.0008636978907365964,0.9976710988401108,-0.04540437135920344,-0.24727767771341053,0.23710175717909626
1729842735.6952157,-0.8809297944524389,-0.23323268677565867,7.832523935944168,-0.014859532946513293,0.05594000917064306,0.0008326385756992676,0.998323202358636,-0.11578615559962464,-0.2884186368490547,0.44960927868304457
1729842735.703215,-0.7385293622671665,-0.28646475366695767,7.7727116125430635,-0.018396757727474178,0.047307992844675205,0.0008714373617544941,0.9987105455110852,-0.1758942087252827,-0.3599291190912647,0.6243653884076991
1729842735.7112172,-0.5609123390399874,-0.30260226284470587,8.089490123043415,-0.01868198421992383,0.03457674668223108,0.0006464618161113698,0.9992272084674234,-0.23792613434986148,-0.4556209760578826,0.7828560019867077
1729842735.7192347,-0.32002741196891427,-0.07669532499197976,8.266867960544799,-0.004637664761879291,0.019344118473388246,8.972929177994608e-05,0.9998021249700854,-0.26280027794220984,-0.5270838622661005,0.9047688440062209
1729842735.7272432,-0.7826659967418954,0.5283517832762965,10.158172000692113,0.025959988824049277,0.03837391074776641,-0.0009972576613749902,0.9989256866410707,-0.2628256119464477,-0.5580422722700942,0.9753624088491567
1729842735.7353687,-0.32618691860177784,-0.3423520672412534,11.381061045874253,-0.015033724586502617,0.014317747297910535,0.00021529547690106823,0.9997844482113272,-0.30498412843373157,-0.5757659381495663,0.9551421087199995
1729842735.743242,-0.08893075711809793,0.8573748765986074,12.548144973471818,0.03410355923237073,0.0035332162238014986,-0.00012056613542285923,0.9994120517057051,-0.42605950215505894,-0.5046676458765396,0.860426056718871
1729842735.7512226,-0.3614922079329681,2.603844714777524,13.732502905713952,0.09354847114887502,0.012871565848475989,-0.0012095209157311753,0.9955307847562881,-0.521266299645343,-0.2810903943913601,0.9189584321744044
1729842735.7592163,-0.8597384705117339,3.170970924325499,14.305929909932278,0.10879913148638264,0.02912444996657265,-0.0031890228895386993,0.9936318963957244,-0.585201419122906,-0.048183949241061105,1.0204855070358014
1729842735.7672157,-1.1965146142894623,3.5653556075738146,13.598213323156632,0.12773964630548615,0.042093414978087496,-0.005426382204202492,0.9908992287581042,-0.6827334093526662,0.20181364376778443,1.0273391141469617
1729842735.7752142,-0.7171905080756305,3.180451666546242,12.267856883054135,0.1264407209067224,0.028034153652395446,-0.003574788683327555,0.9915715058488983,-0.7923354108659661,0.35990031074087037,0.9480160263670996
1729842735.7832177,-0.5988661017203782,3.2212511903574326,10.479161792185998,0.14850451614855073,0.02697959478121879,-0.004053058681521262,0.9885353220114343,-0.9364235830829599,0.5190315102054887,0.7263149385612113
1729842735.7912073,-0.8542011441865238,3.046772746685163,9.23930830211824,0.15843569730197937,0.04322082227679169,-0.006942145066916091,0.98639844736497,-1.0130856149995293,0.6519709552929185,0.3915171967446755
1729842735.7992146,-0.9379703215216799,2.900905411927113,8.63904830768696,0.16105175242312783,0.050588827792390725,-0.008266339711336978,0.9856139057317567,-1.0369469509534455,0.726626341607832,0.07910775555170171
1729842735.8072126,-1.5326732854423049,2.0213831018925963,9.254768907707879,0.10695297320079404,0.07965389197869525,-0.008596321067484201,0.9910309895660485,-0.9844304128762562,0.770568193273856,-0.24157889840169844
1729842735.815215,-2.0077686258063983,1.5025282620144638,10.024511785298554,0.07395083469945461,0.09734561732224442,-0.007253386489259042,0.9924729181291762,-0.918013904990056,0.7909736434130019,-0.4382477913883588
1729842735.8232222,-2.34286464472212,1.1433313248844597,10.538790528210383,0.05367411502810263,0.108385023938758,-0.005860594595456049,0.9926416419799909,-0.8279325730058162,0.7921489718984767,-0.5651886184710577
1729842735.831219,-2.2922916615891316,0.9859922629482538,9.864537992463339,0.04945630058140797,0.11323086038398697,-0.005643314384843865,0.9923210164015762,-0.7623901421557975,0.8247809235994139,-0.7030781736326717
1729842735.8392308,-2.247343241582385,0.8453807337455147,9.138924028388159,0.045758378470264226,0.11965368941019433,-0.005520730930894299,0.9917452732129806,-0.71965916315409,0.8481913051731345,-0.799433988696425
1729842735.847238,-2.200741735965056,1.2168698123176214,9.275051586222348,0.06472781896443354,0.11502702865359635,-0.007511377427032055,0.9912228161923943,-0.6812498739092046,0.8286080192618663,-0.8474566063210502
1729842735.855221,-2.122742017897393,1.4206096461796354,9.262875415844736,0.07552618448034479,0.11082789960915776,-0.008447025663388182,0.9909296745397755,-0.6543730898091149,0.8023845856253964,-0.8894665688011484
1729842735.8632119,-2.2102569001915606,1.5840338150515312,8.750872003657232,0.08872799682893547,0.12101311515365214,-0.010860871605371924,0.9886178280850012,-0.662085662790935,0.7896303558737487,-0.9448965406530114
1729842735.8712113,-2.6163894147731397,1.5075510153492782,10.161030807174807,0.07298403697011585,0.12404086661338153,-0.00914863278508222,0.9895471167536742,-0.6765040779936538,0.739834501938019,-0.9023816928238877
1729842735.8792033,-2.6769124965201336,1.332135025713473,11.08613474407051,0.05932860962027734,0.1171688373455377,-0.007012377400427796,0.9913134752432319,-0.6889863376684433,0.6175822462393203,-0.815999105337343
1729842735.8873763,-2.330872340441377,1.7164996714339433,11.034266985358322,0.07666096941933385,0.10240038736669388,-0.007915388821417586,0.9917532974760632,-0.7411731499268304,0.4182266346273398,-0.600278879182534
1729842735.895217,-2.5214039828781076,1.2867976409951316,10.774739491752102,0.05899459200901303,0.11370531556567542,-0.006763879387887762,0.9917383673436388,-0.8027092316456668,0.33947951356050643,-0.38272890076700805
1729842735.9032128,-2.8140909920217867,1.227216320192782,10.827557960187981,0.05593180633204063,0.12582634365809336,-0.007105561141674406,0.9904488251711606,-0.8345225999394242,0.36289579112310366,-0.19473075542031823
1729842735.911213,-2.46345767260565,0.9046421688246535,10.395492179677241,0.04308510059180485,0.11554998517501013,-0.005016840880660022,0.9923541234562524,-0.8229609364904125,0.24455594854597018,-0.00701041739498677
1729842735.919219,-2.080934581590734,0.6818884177498702,10.170968635443062,0.03328854854552225,0.10045894997649875,-0.003363038017937997,0.994378480197878,-0.8053816868844546,0.11565819464085378,0.19629376851162483
1729842735.9272559,-1.833464214530612,0.5166327051909377,9.270349397818572,0.027694864352535032,0.09728924340821962,-0.0027083140185427635,0.994867057772408,-0.7428999496225119,-0.0012696334181849789,0.49195782513210073
1729842735.9352338,-1.5901716085523514,0.6880240652532346,8.598057343769268,0.039742279305423324,0.09095587346714798,-0.003632757842446997,0.9950549650084141,-0.6841264041922449,-0.08760255258916544,0.7221418267256781
1729842735.9432375,-1.541400632367739,0.7020339996988159,7.720390762462733,0.045098970575013164,0.09787841320668325,-0.004440118998940679,0.9941660748710404,-0.613530001832736,-0.16494370777947562,0.893456052475863
1729842735.9515057,-1.4398331565202527,0.6618376666649924,7.603678137897561,0.043201684455165305,0.09300513093546595,-0.004039306944925425,0.9947197314215285,-0.5294545343937516,-0.28158726103489695,0.9813454357748028
1729842735.959213,-1.4782520399082455,0.4184109947743861,7.948326290697521,0.02617812496356913,0.09165601578412652,-0.0024103650892929583,0.9954436552030999,-0.4624073415333416,-0.40776448110113783,1.010666112373755
1729842735.9672072,-1.259967842597291,0.42869636004822537,7.897020243412652,0.027024999394585147,0.07888261433933802,-0.0021392574221476618,0.9965152312636248,-0.37875863954796846,-0.597981439674169,0.9592967283762772
1729842735.975215,-1.0380176611247809,0.40326411729846645,7.638548037160872,0.02630674211159519,0.06736501926253366,-0.0017768095297708518,0.9973799438765186,-0.3021766345460986,-0.7904385861270014,0.8910143725691317
1729842735.983523,-0.8883275607861966,0.3554436290704861,7.23255237942543,0.024502712708178307,0.06097652100947352,-0.0014973284772793836,0.9978372808043168,-0.19535375275590622,-1.08172286938252,0.8398283976097556
1729842735.9912128,-0.8782404158662492,0.5072741413094791,7.3440150909853354,0.03441177250548024,0.05930005663597803,-0.0020454374703743963,0.9976448012101079,-0.10273878956383464,-1.3961197794953775,0.8142250933716744
1729842735.9992115,-0.6801731557697496,0.1947100487505312,7.3634875250501866,0.013203286186412418,0.0460185568709688,-0.0006082938039791082,0.9988531401742906,-0.05100102220174999,-1.624347101279061,0.7609766953587049
1729842736.0072136,-0.04514292178216226,0.6641405287620374,7.78314294837972,0.04254918011818029,0.002886890711963795,-0.00012294669038173997,0.9990901951362545,-0.012295940678182633,-1.806406640864246,0.6226051411854153
1729842736.015216,0.7917312147041401,0.8442846663783161,7.284593402084473,0.05757390399179743,-0.05365789853117435,0.0030989217758350335,0.9968934106453853,0.02582626038712888,-1.8471062647199703,0.47402593921628866
1729842736.0232618,0.3469489400041247,1.0917136855691771,8.930273682852247,0.06077328336011698,-0.019235513114736064,0.0011713884250182112,0.9979655459553709,0.06572718348479706,-1.4671204806444749,0.2780302126078427
1729842736.0312414,0.14903258299661543,0.9701051498180687,9.61289997997502,0.050265503840446445,-0.007702086521592306,0.0003876508347310362,0.9987061162893267,0.07136306470053061,-0.9603020199415468,0.11190410963610355
1729842736.0392349,-0.023347348395390117,0.7379256179670131,9.185702278024074,0.040070238585080305,0.001265751196241798,-5.0759760098369445e-05,0.999196062480778,0.0687849325695023,-0.5966143349151056,0.011377067730135984
1729842736.0472448,0.3163914200643284,0.07692135710833284,9.393619358757803,0.004093634489477443,-0.016832898162630616,6.891807472150463e-05,0.9998499342133359,0.09788773771615158,-0.3677594723626901,-0.04595932698321033
1729842736.0552232,1.3687397494995346,0.1562860906321872,8.835064453389448,0.008816460050077813,-0.07675930671325713,0.0006787745982720573,0.9970104403315595,0.14855324559817962,-0.2747183212232921,-0.13144397118666193
1729842736.063211,1.430089331877455,0.01572068025821857,10.435404132238746,0.0007514207632668658,-0.06804413568044813,5.124856913393323e-05,0.9976820276721043,0.23599501856330868,-0.2567800460097741,-0.2951169339347092
1729842736.07125,1.4436753252006918,0.7937728720221187,11.46384268686278,0.034488487390032595,-0.0624107186379415,0.002157949416167254,0.9974521490733079,0.31740700652180426,-0.18769754246136497,-0.4363154077912028
1729842736.0792139,1.0038717905793995,0.883756845771865,12.325593229305168,0.03575102639197622,-0.04049274127657834,0.0014497752085808906,0.9985389827982045,0.4083975153816427,-0.004918939926924978,-0.5423189951782006
1729842736.0872169,0.8199560052558427,0.6083050815842127,12.551748053061617,0.024197214118106245,-0.03256323755125201,0.0007885891014731128,0.9991764151121324,0.4191457443669565,0.20989366677486082,-0.5863394047831456
1729842736.0952163,1.027317094364443,0.5632229464114652,12.43772571416119,0.022604395476667913,-0.04114074914132208,0.0009309884591940834,0.9988971985773681,0.4102698395455117,0.33622709042716015,-0.6123259604846507
1729842736.1033082,0.8036168264428845,0.7150205293214883,10.73048127444398,0.033237889542778086,-0.03726407590383957,0.0012401272056730163,0.9987517676731735,0.4389995015696073,0.34178828447730447,-0.6117416715699966
1729842736.1112137,0.7735444379067462,0.6148023664210179,9.58594568727381,0.03199169035899872,-0.04014700637846362,0.0012860673344419259,0.9986806775229172,0.47709611179570427,0.3553415623824798,-0.5905322852095645
1729842736.119221,0.6379457032713916,0.7507565846475325,9.894254544932647,0.03783712029665449,-0.03207308157503714,0.0012150495759688687,0.9987683382148562,0.5310294524180907,0.43243531908243416,-0.5216155652803172
1729842736.1272357,0.3633743885155693,0.4535664129467227,10.41394925161779,0.021757961696259268,-0.01741793569309534,0.0003791260848197076,0.9996114559579773,0.5736060182666114,0.5153009183881415,-0.41811478434931215
1729842736.135233,-0.08508129706643965,0.4890545181781899,10.547398051947235,0.02316479622490948,0.0040277758175482825,-9.33284074333838e-05,0.9997235420493159,0.5940436770381794,0.5901359915978257,-0.3428179238853861
1729842736.1433928,-0.36421035538830127,0.24028143405144514,9.281686578971074,0.012938008003621774,0.019600318632427418,-0.0002536590518208253,0.9997241475104475,0.6186512840835191,0.7061272757877955,-0.3018967082216508
1729842736.1512392,-0.8335966197271214,-0.0547892975281173,8.256742731074052,-0.0033134305216914075,0.05028668597358193,0.00016683343305433533,0.99872931395778,0.7087629891895024,0.8744821405609688,-0.24201170372206102
1729842736.1592233,-1.300779006992523,-0.7633445050305422,8.049030124728414,-0.04710305687009767,0.07958550794559603,0.00376488174704216,0.9957074242085194,0.8160412699358465,0.9848602407770374,-0.1882017184409018
1729842736.1672127,-1.7170790936486389,-1.3972520142976221,8.940022905159314,-0.07708699438713949,0.09334809767700249,0.007249437144659518,0.9926183423741108,0.9574581395082806,0.9565839072621076,-0.16826073905460517
1729842736.1752133,-2.151691513806371,-2.254521490560995,9.73750191570301,-0.11285133325877983,0.10513725621153867,0.012009464095312675,0.9879607819696936,1.0644441444477668,0.8987518612527947,-0.1775806544959288
1729842736.1833897,-2.750999080647104,-2.5435888000983153,10.754684695564382,-0.11496331013796629,0.12086348598555602,0.014093745401553254,0.9858888484094428,1.1682249231274275,0.8619241833398967,-0.2572426744551165
1729842736.1912181,-2.967889201806231,-2.475454238310942,11.542404706498786,-0.1046045580357448,0.12215834448776251,0.01294796443546027,0.9868979559848797,1.2377301213800784,0.8364220561004617,-0.3335611205485852
1729842736.1992128,-2.863391511806395,-2.5825351638361744,11.661173707688334,-0.10797458034204593,0.11668264964441497,0.012762115611220077,0.9871999684344827,1.2372899242469277,0.7274689662351537,-0.3827577086963627
1729842736.2072132,-3.0238324925330557,-2.247670302403267,11.14322207983761,-0.09848074640037471,0.12898481002479162,0.012874258013977676,0.9866603847585464,1.1586988346580234,0.6114399950019872,-0.423343603183042
1729842736.2152355,-2.944123258947568,-2.110197729537663,10.535809517433815,-0.09775755355537981,0.1326689165314624,0.0131503363385181,0.9862400762306401,1.0740834554960221,0.5392684718933152,-0.46344567214914467
1729842736.2233994,-2.8611029543919777,-1.7176650708280665,9.938645578624351,-0.08461459294343111,0.13726169839534186,0.011769178025088582,0.986844001483141,0.9458386368127316,0.4367946394848895,-0.46707379057862886
1729842736.2312312,-2.7097766212679995,-1.6315436591960588,9.373488191901174,-0.08519820576493706,0.13777325761899353,0.011896001667984855,0.9867209739150178,0.8429246518535733,0.3310385736477828,-0.4403037374569012
1729842736.2392247,-2.8054891307197845,-1.3828280155859947,9.202466716410235,-0.07367572484184512,0.1454785311103995,0.010864311950424744,0.9865545353810062,0.7662771087269072,0.20671125535644827,-0.40891686337123145
1729842736.2472317,-2.4458467071916363,-1.1665609829355812,9.395298315978954,-0.061213776998839786,0.12583099969812184,0.0077793672264647425,0.9901307562469026,0.7190115126665215,0.05676772350286796,-0.3909361190427537
1729842736.2552192,-2.0267935321274817,-1.1711154764800988,9.329277369714324,-0.06203271692997415,0.10574960588755662,0.006609946129510626,0.9924340136739959,0.674901622756195,-0.08896379366080637,-0.3494979880204008
1729842736.2632103,-1.6123164940323482,-1.0570111315911843,9.460610800490704,-0.05540086123052245,0.08366108172706965,0.004658457795258443,0.9949421424133882,0.5701087175009852,-0.27388572803381617,-0.19181981023083514
1729842736.2712152,-1.4682568837240966,-0.9119340715328355,9.720173084298327,-0.046619941028941986,0.07448590289670011,0.0034860345739763966,0.9961256341100104,0.4591299974026498,-0.410805982406806,-0.007392300588607084
1729842736.2792027,-1.3171776727149267,-0.8002275583982168,9.075768259758684,-0.04384024570044407,0.0716568507969759,0.003152612837191257,0.9964604305355449,0.3129387238502487,-0.5010462461983785,0.2616209080606055
1729842736.2872167,-1.0996374581211434,-0.6031985003709613,8.637171189009509,-0.03478277116931994,0.06308408350666937,0.00219996028760173,0.9973994773472861,0.18137788338821875,-0.5453995330596952,0.5341339392917233
1729842736.295218,-0.9185956743355767,-0.3556941759061706,8.679752498561955,-0.02044744420934962,0.05264048242897999,0.0010780843972757837,0.9984035854147271,0.09137343751298796,-0.5847822070203462,0.7627723374340848
1729842736.303215,-0.7125265964958772,-0.22682403484057734,8.121116079215298,-0.013947105321040012,0.04372153543065819,0.0006104321259575826,0.9989462112473169,0.024600068143988532,-0.6705625603701935,1.0293651550039593
1729842736.3114634,-0.2905676229365888,-0.08174604321879952,7.420818474433475,-0.005506538816510532,0.019565141522898927,0.00010775847258548913,0.9997934144889948,-0.02227499446080363,-0.7569373574199884,1.2255045007701568
1729842736.319249,-0.13699102786351577,-0.3399431276402641,7.357615379093679,-0.023081941842945843,0.00929586771932165,0.00021463314257325842,0.9996903344219739,-0.07296160528116662,-0.8219586275551883,1.3763919330239136
1729842736.3272314,0.5671128735162655,-0.9411405677462679,6.64285271256363,-0.0702471683854917,-0.042046846651319914,-0.0029636337028221623,0.9966386581383326,-0.08549458919197907,-0.7881783891263009,1.4971483867399722
1729842736.3352334,0.7635625776253842,-0.3757818296614326,7.438150421483489,-0.025202051449900092,-0.05104511199630444,-0.00128853220790852,0.9983774801290094,-0.058107794498579945,-0.7185301989393728,1.5968464229031771
1729842736.3435283,0.9137541225029648,-0.8280896556581876,10.419185143026812,-0.03960575382557271,-0.043552826831423426,-0.001727941780879089,0.9982642684961243,-0.027202255592831397,-0.6520512612624181,1.5238499454249461
1729842736.3512363,2.031460401968576,0.3839729973765718,13.391738696900072,0.014289577980309994,-0.07516448486421248,0.0010772270077218742,0.997068176083369,-0.048673798026813236,-0.5972647465050741,1.3906571460309811
1729842736.359216,1.164767283661614,1.680312323816568,14.99067788122598,0.0557402293615821,-0.03846196696977247,0.0021488170514057676,0.9977019026306474,-0.13945800473475412,-0.35835884790304445,1.2515705478513797
1729842736.3672087,-0.44772280485185967,2.6587500188016597,15.164982667456291,0.0866604781656481,0.014480657119154096,-0.0012597736493258503,0.9961318612833601,-0.27353257025291855,0.13575330190288737,1.1523680566695236
1729842736.375217,-1.1626285828134595,2.5433538687028703,12.980708752085102,0.09649377096511616,0.043615751958988515,-0.00423248363150138,0.9943684952915055,-0.4216620293362802,0.4862832295921245,1.0613454974122196
1729842736.3832166,-1.5755308984673726,3.5263678082822687,10.61549857156356,0.15926754447958835,0.06901087661839607,-0.011161322497311388,0.9847572152890853,-0.5671564829607474,0.7561977948103511,0.7930355510038973
1729842736.3912122,-1.895577177996439,3.6105207814049085,9.29357705065298,0.18337038539937023,0.09219737065858777,-0.017276708369152106,0.9785583589904369,-0.6642440265490545,0.9377282767685406,0.49880859392128807
1729842736.3992114,-1.9463470477646603,3.494376129731617,8.227006308516788,0.19828571710277781,0.10484800917887968,-0.021338549827977105,0.9742865777867935,-0.7986950737037424,0.9989692790597068,0.05919596168818697
1729842736.407217,-1.807538912252546,2.684641605573345,7.75130609712179,0.16492135098992722,0.10672974465968789,-0.01795481469263902,0.9803506180045423,-0.9517330124451004,1.0127266171154568,-0.2573571852729656
1729842736.415235,-1.8346267274784807,2.1676762694963507,7.931079352853153,0.13216980185555732,0.10857716065420675,-0.014566870132035174,0.9851547847705404,-1.0482383663659978,1.010764458473818,-0.46559374609252446
1729842736.423246,-1.9289303907351352,2.4938758691196856,8.27429332948533,0.1449332354380816,0.10841114356865628,-0.015978345333869215,0.983354500521545,-1.0716606837401115,0.8976306771243203,-0.7041949289946222
1729842736.4312296,-2.080562394597331,2.335493203356577,8.72514854529862,0.1295292506381266,0.1119931727450173,-0.01472549630614245,0.9851207348574934,-1.0652809512144021,0.7492949866982979,-0.8975870659884007
1729842736.4392378,-2.261324159170508,1.8904313211838681,9.21904068967917,0.10022432364254281,0.11703525159931555,-0.011872410805733471,0.9879862755601111,-1.012498754630843,0.5389719049260053,-1.0621510151913394
1729842736.4472337,-2.37385136073668,1.5556382848978207,9.228311197254769,0.08273480409229432,0.12345824866696131,-0.010329562704725013,0.9888408937550195,-0.9242126585062573,0.3834054416217496,-1.128536940041988
1729842736.455217,-2.3106442710318515,1.6016046542883018,9.101713570159502,0.08630298889916183,0.12173333946917719,-0.010625524062685987,0.988746623967509,-0.8546390884344867,0.300282125114285,-1.1151572372696232
1729842736.4632063,-2.3569959156464546,1.933966347260481,8.894792163091793,0.10595081197517121,0.1256243543752283,-0.01349472166995194,0.9863117354653443,-0.8294968587884435,0.28361196000384464,-0.9896389586426837
1729842736.471213,-2.2569565337628728,1.7562966015691792,9.163527811282812,0.09384859649117619,0.11785969378167303,-0.011189395405564533,0.9885222966371495,-0.8356960240739192,0.2936172938262959,-0.8709076051973927
1729842736.4792159,-2.419593659027255,1.743547459232523,10.207032511964998,0.08391283516279466,0.11411309631320099,-0.009673543292503941,0.9898703247925578,-0.8364356928149703,0.31749947670117207,-0.7707218689508001
1729842736.487216,-2.1501448196839306,1.8711703676293576,9.850554971046186,0.09317800586414492,0.1049612445640984,-0.009878347002951544,0.9900522282300193,-0.8249601723386641,0.2424338735190711,-0.6697441813024894
1729842736.4952195,-2.374420823695124,1.561559384884255,10.349422280723415,0.07432300897948987,0.1109980772923725,-0.008324610675128633,0.9910026327062601,-0.8197776202987286,0.14290618374267047,-0.5516894104161287
1729842736.5032127,-2.295902478347934,1.2718844431864123,10.834053875025846,0.0580710112805384,0.10335864980286841,-0.0060448840622386105,0.9929291044865478,-0.8426351828239511,0.07680421895489961,-0.31483742391412
1729842736.5112064,-2.3206175209443067,0.9702291095153629,11.018290857730351,0.04365662051370128,0.10311821450160802,-0.0045303326703630695,0.9937002613510871,-0.8772085333507242,0.07588083567528198,-0.09439926070390098
1729842736.519238,-1.9509377598810373,0.9046364293322646,10.703622832509303,0.04196887459316329,0.08963105162400216,-0.0037803013078983793,0.9950832113306808,-0.9345618889525228,0.08852319761283436,0.15748254449306134
1729842736.5272548,-1.7533113400106535,0.8212275106755307,10.322088783734097,0.03954089704167877,0.08370280331088195,-0.003323975655478937,0.9957004114515977,-0.9536490601009688,0.017355953404889962,0.4507921081395573
1729842736.5352354,-1.5777534885767046,0.7798012854580527,9.733319844947491,0.03982898632339905,0.07994842221637632,-0.003197059786861207,0.9959978315449697,-0.9391342690408525,-0.057696837790991086,0.7051048176364686
1729842736.543236,-1.5698627852846947,0.9661141367533473,8.54903108543529,0.05599773532258892,0.08997673079598562,-0.005067094612046735,0.9943554525953988,-0.8818967273981112,-0.12997267644208974,0.973054449990826
1729842736.551223,-1.746130008817301,0.7824573626672428,7.894003308243596,0.04907740973634746,0.10798799616341677,-0.005337530248266923,0.9929257330279185,-0.829249529769599,-0.17418955975567296,1.1623454635213966
1729842736.5592184,-1.5679380260423337,0.766116003293705,7.736097244955922,0.04908063577726914,0.09922569210865789,-0.004900237144517151,0.9938417081674448,-0.7640316963369912,-0.24116024558271593,1.2912449138523718
1729842736.567209,-1.1792253009769627,0.7019628099840355,7.801525698047773,0.0447227405652697,0.07456686363783145,-0.003347531572755204,0.996207033380069,-0.6891430311146158,-0.42820572828334263,1.3204816071057477
1729842736.5752149,-1.0664260094435993,0.42261420698651503,7.978688785527883,0.026395570221404673,0.06627212766941268,-0.0017537611954677379,0.9974508525679474,-0.623351018969551,-0.6106718780449538,1.3022656578949625
1729842736.5832682,-0.9795928212423315,0.38309483400636213,7.544375903152667,0.025310084145091925,0.06441330150578709,-0.001634226672598211,0.9976009500460971,-0.542158185659233,-0.8138033814235675,1.208326526383395
1729842736.5912154,-0.9952488153039926,0.26888238746436416,7.379077399801757,0.018167683279194286,0.06692758322041341,-0.0012188545335021091,0.9975916741243221,-0.47088091241555463,-0.9876164709491035,1.1174821524980303
1729842736.5993986,-0.718774733518333,0.10650221446104033,7.631367101502147,0.006969417448618218,0.04693198890206708,-0.00032745743112382974,0.9988737199515032,-0.39831624416700534,-1.224719623840579,1.0195551418976843
1729842736.6072142,-0.2797118750231092,-0.06011831731946956,7.941476492590741,-0.0037843931630130462,0.01760200690300623,6.66237137164372e-05,0.999837908504501,-0.33945260100524266,-1.4925600837067639,0.8548021102334307
1729842736.6154501,-0.014119378431834253,0.18060425985245887,7.731780592820069,0.011676950665545837,0.0009127618057627499,-1.0659005725146083e-05,0.9999314054351057,-0.28795819277262785,-1.7107325179238488,0.6920967820155737
1729842736.6232574,0.9796153980873838,0.6350869211458503,7.260958593729151,0.04350694852189443,-0.06668768481467077,0.002910631560328772,0.9968206590697709,-0.1970392491669125,-1.875691183371062,0.46378673621601585
1729842736.6312404,1.718071842612196,0.7437737042011819,7.5411027844113185,0.04881829745809218,-0.11111400874347789,0.005464875830121192,0.9925928601528468,-0.11481802900845126,-1.8180124400213629,0.25187925791896354
1729842736.6392322,1.7076839148934893,0.4998943397082092,9.181144479484681,0.02707454330477871,-0.09165298027040625,0.0024928805906922046,0.9954197536008368,-0.05867425592998199,-1.3372820095993339,0.02512329655861678
1729842736.6472409,1.8077537119732028,0.47447390485031615,8.973814750434949,0.02627360699785447,-0.09906108297421307,0.0026164781981826337,0.9947309955244868,-0.04201559454138169,-0.9641314291151722,-0.1300863330233827
1729842736.6552296,2.1946041168323593,-0.2935153580175447,9.267205102702375,-0.01571911222786577,-0.11593307776573152,-0.00183496957654072,0.9931309399455772,-0.045642479675006536,-0.7572686832831566,-0.25982145605831714
1729842736.6632125,2.997013195197072,-0.10643794649997991,10.85581829355502,-0.004855929024513347,-0.1342678579395588,-0.0006579609472692295,0.9909329590668701,0.042001992213307235,-0.5944132401909024,-0.3755489453493986
1729842736.6712143,2.901456042118243,0.4638192779984496,12.191340213193559,0.018877426039363782,-0.11645585567926474,0.002213852810357921,0.9930139854603623,0.22229569378490496,-0.431995084993321,-0.4185926551134015
1729842736.679216,2.423939358913524,-0.9951842962380395,12.036409221910276,-0.04102474598037072,-0.09878797260727316,-0.004076172606240005,0.9942541382877291,0.3981566345003267,-0.13532124311054142,-0.45974372318443635
1729842736.6872149,2.2173956844399116,-0.6866537198326674,12.89442752655437,-0.026497716866876436,-0.08489924133926964,-0.002258592321820946,0.9960345820209172,0.42747467792787597,0.2644675840408448,-0.5585044347214507
1729842736.695215,1.7161432981151186,-0.37823398849139733,12.160422923403326,-0.015506517256241366,-0.07000050183645265,-0.001088265365914801,0.9974258335052888,0.45230223502926015,0.4856105176273472,-0.6411738150240711
1729842736.7032115,1.6818665110956335,-0.6942885571573384,11.357298609999026,-0.03043755655999421,-0.07327420323823035,-0.0022373471117982458,0.9968447424591058,0.4765639506422553,0.5842410728622861,-0.6137255420810157
1729842736.711215,1.6890731781417552,-0.35767577345455925,11.201274867903711,-0.015913321549725752,-0.07471588567401653,-0.0011924632824215407,0.9970771688573169,0.5017632315466032,0.6693864997524333,-0.5321259989114916
1729842736.7192473,1.1848687457522407,-0.11213363301804806,10.412623880703164,-0.005375285034493916,-0.05661772884933101,-0.00030482982410859127,0.9983814131731018,0.5611545664812632,0.7213251360094457,-0.37078409678380075
1729842736.7272348,0.9881697996974381,0.017235138792686795,9.68684501323635,0.0008884194285664799,-0.050807944302781134,4.519715748530411e-05,0.9987080461595678,0.6133912798390784,0.7380148556739441,-0.23609254003706548
1729842736.7355046,0.7576229540372129,0.1274175444572527,9.056968517951576,0.0070273375085570244,-0.04171101972165495,0.00029338000021722103,0.9991049600965336,0.6485645184069259,0.7518598980258013,-0.16889968795580929
1729842736.7432437,0.209886362754359,-0.20103744573775773,8.618469318778759,-0.011659898635301433,-0.012169701516705253,-0.0001419176451667937,0.9998579524053358,0.6756281224081028,0.7886881575548719,-0.10474533326518182
1729842736.7512317,-0.4941664123278533,-0.5803091861926546,8.708514544148114,-0.03324933804256135,0.028260206205223983,0.0009405294505547288,0.9990470247537512,0.6944204251775812,0.8418604877590425,-0.03049475528799469
1729842736.7592154,-1.1083736303556964,-0.9860008339812177,8.793666300951758,-0.05568828420459141,0.0621668852780974,0.003474109521346944,0.9965049041225046,0.743582222309389,0.9376173951008496,0.059604428074754974
1729842736.7672198,-1.5439356076567772,-1.2665259483867775,8.97691728667457,-0.0697644922223923,0.08403556945624109,0.005898086904389804,0.9940000760875148,0.7994720843991197,1.0274239841770483,0.11323824803094275
1729842736.7752142,-2.109575825043285,-1.8428129799207382,9.644956285090679,-0.09370571624953943,0.1051428769565451,0.009952185527769171,0.9899824080107092,0.8777034581064713,1.1617633592390915,0.11051195496476882
1729842736.783217,-2.3879078131412053,-2.238384593372365,9.871481803280972,-0.11048341226152801,0.11486137378414481,0.012855667910106621,0.9871347487704266,0.9672112884770856,1.2032034986218103,0.05396216119646236
1729842736.791211,-2.6147620475038638,-2.582030115154278,10.122318793882645,-0.12357937478995655,0.12137217144956483,0.015231121219362124,0.9847664429043782,1.0422004897725556,1.1744306345072257,0.007687273153079582
1729842736.7992227,-3.2163073908558335,-2.723334563233192,11.27910394600732,-0.117056629922519,0.13384559746728425,0.015923310698514024,0.9839357446531795,1.0769774490747488,1.0545756112261253,-0.10436429184243234
1729842736.8072128,-3.410358741154125,-2.6331010907231183,11.49744716740908,-0.1111717607668329,0.13937789191546696,0.015749188765284087,0.9838529391664377,1.074430671275653,0.9362623805581037,-0.2550304828862977
1729842736.8152356,-3.5193675261866155,-2.4254926808010584,10.750978191802869,-0.10934241305916279,0.1529864812717401,0.01703430999448038,0.9820128336928713,1.0230968674051377,0.8261109565027838,-0.4326966601123334
1729842736.823247,-3.295553236659235,-2.035171250570479,10.107011690472346,-0.0979542382017844,0.1533174751607451,0.015274844700141095,0.9831914351478195,0.9663294913336449,0.7144712654931544,-0.5358908459562585
1729842736.8312514,-3.000853151712338,-1.7736844935063498,9.765163940552938,-0.08871079541036192,0.14569177023175364,0.013117823099431556,0.9852574412718388,0.9233295744000465,0.5908706727129267,-0.6242001412732595
1729842736.8392367,-2.743827345128965,-1.764993522031544,9.055836420972389,-0.09505117059707685,0.1433635460318157,0.013834418806148708,0.9849978565934064,0.8694340801833933,0.3907060588520287,-0.7257143854701318
1729842736.847232,-2.587935920016832,-1.4590672106310356,8.90102411698773,-0.0803249182724748,0.1387925873281924,0.01129541261311083,0.9869938899816786,0.8260288420553885,0.24038329617168566,-0.7917312127257995
1729842736.855217,-2.357931570320646,-1.2678499784782307,9.095919774147715,-0.0686235615319553,0.12502892451351996,0.008668880880399252,0.9897390693217804,0.7791268861669463,0.10591787217142853,-0.7947319637934653
1729842736.8632128,-2.0264774663623095,-1.3879908220478758,9.038798707750347,-0.0756401472280874,0.1085066081960029,0.008280495954309273,0.9911792559834286,0.7152277474710701,-0.03478368089487219,-0.7024549108509559
1729842736.8712144,-1.9511458096513699,-1.1311120200841944,9.30691373758966,-0.06010306256520475,0.10222532700364,0.006187836475256646,0.9929246270835654,0.6509211705043605,-0.15623964808184937,-0.5794039593129873
1729842736.8792074,-1.7711532621580093,-1.1953359303122355,9.273613000854578,-0.06375908746301294,0.09327326100794488,0.0059854511223199035,0.9935789107673784,0.5578488964571947,-0.3121227903791318,-0.3599873873701913
1729842736.887389,-1.6296389104198057,-1.0145614043787474,9.08220771994634,-0.05536995125555813,0.08798328638432339,0.0048982285650371864,0.9945698151320982,0.4747613680953252,-0.43076838938376116,-0.15341599338719614
1729842736.8952181,-1.117365303038993,-0.8922103191897484,8.42268367371585,-0.05262548133024094,0.06544474940874272,0.003456291392492707,0.9964615384145027,0.35679844124427845,-0.5249430121054885,0.14548545826349596
1729842736.9032152,-0.5792000985714426,-0.5982936951759584,8.344679806280292,-0.03575770889270246,0.03453174404716558,0.0012363054313931272,0.9987629430734233,0.2319580473279724,-0.5980496981355441,0.5002106345762682
1729842736.9112058,-0.2998754461057561,-0.43918197272080944,8.3720977372838,-0.02619753562704462,0.017869916134422785,0.00046838338888193203,0.9994969413867255,0.14172896876555563,-0.6644752830110652,0.7964809924104898
1729842736.9193625,-0.18112236849353178,-0.13517997464811066,7.6951876951046545,-0.00878176152956118,0.011763835790219432,0.00010331833465485423,0.9998922352720119,0.08205755082909914,-0.7839346754297777,1.100673155365246
1729842736.9272375,0.07998966972419345,-0.2525328236560539,7.202610989865526,-0.017522288830455673,-0.005548306328001422,-9.723545160955735e-05,0.9998310738501278,0.04582901000576323,-0.8956251766584362,1.3197977984238345
1729842736.9352322,0.3520574126743598,-0.6667518914592574,7.0112127389388474,-0.047373280505322156,-0.02494254201453018,-0.0011833079782169174,0.9985650913557144,0.033882756925388405,-0.9575311966580868,1.4631919059799245
1729842736.9432468,0.2823422369112565,0.5054359329955393,8.87350551933987,0.028441751878247976,-0.015871106301475018,0.0004516417335938081,0.9994693445797164,0.0897171341735442,-0.8482374275149385,1.5049566041215274
1729842736.9513931,-0.10760378993332423,1.0780252170238862,11.650302358234782,0.04611773370555764,0.004593385820814894,-0.00021206442260655287,0.9989254278840063,0.1423738132882291,-0.7558426921569414,1.4742500249549628
1729842736.9592164,0.8370940712548492,1.7898070027729251,14.36528020888618,0.06191036357589603,-0.028820857306333617,0.0017884878327505517,0.9976639045175987,0.12543915375036843,-0.7110481024786939,1.3838844570679407
1729842736.9672112,0.15174531970603455,2.2369873681676613,15.028924809902023,0.07381216675988286,-0.004979622818184607,0.0003685667476722588,0.9972596610478899,0.0556817494229676,-0.6301087108660675,1.3692542920516964
1729842736.9752147,-1.1436426043189574,4.6033345021994245,16.862435465775196,0.1327821458877097,0.032371961562732365,-0.004339176625908939,0.9906069499979521,-0.0989805594609113,-0.1886331491690364,1.406450719679849
1729842736.9832885,-1.8550348130796557,4.697233903223951,14.813448415695587,0.1526483118474977,0.05867023549348063,-0.009078510827338418,0.9864957561988833,-0.3118225421235315,0.2541906335403114,1.2623237622250865
1729842736.9912164,-1.482925044341934,4.101393011612105,12.08624362705407,0.16256310156063675,0.057030853732332,-0.009412262341394988,0.98500361880105,-0.48550225835900307,0.5292500845180848,1.0647424817106388
1729842736.9992142,-1.4042689633727383,3.7103696534028097,9.952884489220724,0.17707314977425045,0.06463120435543897,-0.011654178147132863,0.9820041177023171,-0.6118459712963116,0.7887889487493198,0.7635726770347585
1729842737.0072167,-1.5117407420373148,3.6423920740241074,8.631209897633996,0.1976794074354292,0.07832196984642936,-0.01584705479101453,0.9770042946526915,-0.7165991232381149,0.960262799562156,0.47602258880226045
1729842737.0152721,-1.2156570392165296,2.9932388845511833,7.2339086436585225,0.19430606579406953,0.07547411236447746,-0.01499622204294132,0.9779181583766935,-0.8658660968799893,1.0265377647641232,0.13491927152379704
1729842737.0232403,-1.7469299290963236,2.7265695160334444,7.8229509210583945,0.16596144626280573,0.10227041024946318,-0.017307639903846782,0.9806620249314864,-0.996718217026931,0.9845702520845933,-0.16637436279516216
1729842737.0312269,-2.0994519064324035,2.302966292139598,8.378686327781521,0.13273861418826094,0.11719469590525525,-0.015808066321150338,0.9840711196830445,-1.0811891499755646,0.8942591650731845,-0.3492789936938478
1729842737.039437,-2.396677512267645,2.2245387596587585,8.752110739540006,0.12304276834146592,0.12834722385065425,-0.01605002689834802,0.983935904378563,-1.1105872066716431,0.6672423479127544,-0.49903663801049014
1729842737.047235,-2.3458877768918374,2.222493231381193,8.68000264123377,0.12393695560439066,0.12668442476657096,-0.015955520792760945,0.9840407049067178,-1.0950222158952516,0.46803012852011566,-0.6476364530822358
1729842737.0552187,-2.5158086146214305,1.853516539414653,8.907282569847684,0.10143189340508948,0.13377458534201245,-0.013765705827859812,0.9857111324621894,-1.0056534898745548,0.2859263578496138,-0.824914184847924
1729842737.0632095,-2.7592584353744205,1.9572631096839481,9.26822664273869,0.102787795973526,0.14048480222907295,-0.014665627936323743,0.9846235873158821,-0.8634887214780342,0.22519276245398426,-0.9231927127395583
1729842737.071362,-2.630713397406293,1.9266160274314625,9.388785599901025,0.10008160423726792,0.13285764042668796,-0.013485715909344225,0.9859770054823592,-0.7573310474284822,0.2325986815471958,-0.9429963438200317
1729842737.0792117,-2.628285466422291,1.807431888187393,9.60980089729413,0.09198896161320197,0.13034913452409058,-0.01214717600944719,0.9871168016932651,-0.7089612852113842,0.3047269527755857,-0.8373880655047952
1729842737.0872147,-2.4963447173533746,1.5340902046897795,10.343115272263196,0.0730313993702223,0.11659287301977286,-0.008597009978699676,0.9904537384888041,-0.6829192583113597,0.36673427821694904,-0.7288999520006779
1729842737.0952144,-2.040332926603431,1.9071046269642584,10.387821203152837,0.09023022616933257,0.0948811885889756,-0.008635821929177246,0.9913533622866177,-0.6519691999587118,0.3809514101628173,-0.6169811771373841
1729842737.1032155,-2.036312959087059,1.5218283779851955,10.858050909147561,0.0692635305806162,0.09146491869669422,-0.00637742668000122,0.993376092126369,-0.6478726270368322,0.36819718625723674,-0.4370220459319694
1729842737.111242,-2.184017422669032,1.6428496928067424,11.341541092363535,0.07153253884251495,0.09377824734789322,-0.00675550472548122,0.9929970288812577,-0.6539284845129449,0.3839576052943001,-0.23582044374853567
1729842737.1192503,-2.5613808210330595,1.6637477258402953,11.35534433071109,0.07222098405493053,0.10928223476042688,-0.007961322654140773,0.9913516732065878,-0.7048135958208982,0.431300272186659,0.04836550116294472
1729842737.1272337,-2.7356052638600703,1.157941886236599,10.850788278114152,0.05271450195741682,0.12233153311578099,-0.006506770690744542,0.9910670205511342,-0.7672714172153225,0.43075894814265614,0.26144607425603605
1729842737.135236,-2.4429418741363547,1.16809879995485,10.231062346751305,0.056408409864149536,0.11601415833497879,-0.006599460941274193,0.9916225357855222,-0.816665431772914,0.3086867961381134,0.4599589683145881
1729842737.1434028,-1.8191492895208752,0.9876846388596288,9.442396278900391,0.05184471548819693,0.0943891951102741,-0.0049222664217120375,0.9941723073067648,-0.8190576765738988,0.13668341067619644,0.7003883722663984
1729842737.1512194,-1.4278749069644785,0.7372205635892148,8.80351788330703,0.0416217656997341,0.07996558630659885,-0.0033419350686085224,0.9959226702393492,-0.8021883508116223,-0.002702275825226433,0.9012627928119348
1729842737.1592183,-1.4002087210341556,0.6743304790226695,8.221472108158046,0.04075695716554148,0.08390004301188442,-0.0034345041322850875,0.9956343994692909,-0.7529032696997495,-0.15742392799023944,1.0852152642970991
1729842737.1672137,-1.3807359674837747,0.5891912354116485,7.657005913820609,0.03823095392844563,0.08876291064023072,-0.0034094710280502863,0.9953129735734908,-0.6956623670375938,-0.28388643414474773,1.209208829154983
1729842737.1752138,-1.5024093478242493,0.5474450757196453,7.723664538282599,0.03520399656497067,0.09561955852576816,-0.00338382205023892,0.9947894894908788,-0.5974643162209956,-0.4214889967494473,1.2325221606942693
1729842737.1832156,-1.4059038984894714,0.5820130012423341,8.035162181221512,0.036005341685119444,0.08622217950400203,-0.00311811568517637,0.9956202230199481,-0.502361830506764,-0.5883371664817493,1.0851736263237313
1729842737.1913137,-1.416714216535089,0.5347584294075098,8.109054448625486,0.03279180854308248,0.08614351310369132,-0.002836889878155056,0.9957388937359267,-0.41720479502173097,-0.7322921446517198,0.910775113286078
1729842737.1992135,-0.7049399093155846,0.40034255276169334,7.843101273911619,0.025470494706114212,0.04473223725719036,-0.0011408654447892194,0.9986736099824752,-0.30353413469579255,-0.8803901904656966,0.7588844086412005
1729842737.207212,-0.6657359939291946,0.4894419244792816,7.861418552432908,0.031055497270647554,0.04212709613499256,-0.0013100745113909917,0.9986286334595461,-0.2110674049968937,-0.9947904216418045,0.6813720678210591
1729842737.215235,-0.535911090986423,0.44617580043952204,8.313420865346462,0.026791337690818456,0.032123938219851045,-0.0008613975302198962,0.9991243840544973,-0.1266404429981362,-1.1634677247910468,0.5063062647674407
1729842737.2232316,0.15585715644330247,0.8109498369531662,7.485683691082877,0.0539271152838504,-0.010333070720862737,0.0005580746894796423,0.9984912530609774,-0.05384838260285607,-1.3979150959182078,0.19948969380226664
1729842737.2312298,0.4677280133484033,0.5689304392812747,7.135566528126288,0.039749159215589455,-0.032592761268105584,0.0012972509360632755,0.9986771417202773,-0.000382274952061272,-1.5900920160314105,-0.045048237504446254
1729842737.2392356,0.7369716444348233,0.8125371502875148,7.0313199437312415,0.05741251131457298,-0.05176397232977054,0.002980832563431671,0.9970032143129858,0.0678810448626883,-1.7360478525245984,-0.2283803415742087
1729842737.2472353,1.5973852876862844,0.6294984486197744,7.221839108572729,0.04319360749839949,-0.10812868614099008,0.004702506277217131,0.9931869843787776,0.12629232927148132,-1.7938230501181687,-0.34774478536823084
1729842737.2553937,1.434398462650833,1.0305978618964742,8.232779129206138,0.061989881921984534,-0.0853242724038904,0.005318981407929149,0.9944087346332127,0.15325098874897855,-1.642035921753941,-0.444904855332366
1729842737.2632105,1.329663182815109,0.7696722620597594,9.373010691635011,0.04084949077555753,-0.07011044085143853,0.002873462993936909,0.9966983437316513,0.1455875409936031,-1.367065538183807,-0.5449185233341263
1729842737.2712138,1.792588699483987,0.9911613442964025,8.796841875186084,0.05577917358501106,-0.09957387311496206,0.005590769105126746,0.9934497827710628,0.12523894006628267,-1.180373114907163,-0.6577122917564744
1729842737.2792046,2.577675341272424,0.46133977410713833,11.954097034291339,0.019172609381256936,-0.10589430439099301,0.0020421340277388326,0.9941904430418119,0.19646503155644862,-1.0474988479295368,-0.7832824011687195
1729842737.287215,3.8641924117947037,1.1085495212025642,12.058305548455664,0.04525280827614115,-0.15367447320787792,0.007045371221970753,0.9870596245271857,0.3217845583741823,-0.9405301238093913,-0.824143571837642
1729842737.2952197,4.206582876276041,1.2392592708270074,12.651625165010897,0.04815309035860442,-0.15891548567576874,0.007760242532015616,0.9860866731363906,0.4940336084781657,-0.620934852460085,-0.7720360631758298
1729842737.3032153,3.2525052909511714,0.588650715084095,12.959493481574896,0.022515583949693434,-0.12248618667197257,0.00277949782358314,0.9922108933819522,0.5590709330089729,-0.13034326650415498,-0.6373288730434687
1729842737.3112142,2.6046413874613275,0.25814062314225394,12.506399149247672,0.010262159023471587,-0.10245795381441443,0.001057059313370422,0.9946838384220126,0.580640035207514,0.18529618814250456,-0.5309631552763303
1729842737.3192534,2.416078304156484,0.35551847300644607,11.044863744919697,0.01599113210033752,-0.10740388595369971,0.0017277286203447927,0.9940853604847064,0.5978383971412589,0.4019240248640703,-0.4441564612970975
1729842737.327237,2.2878569837145935,0.5571184422023051,10.492835667606116,0.026361082098245763,-0.10695079896493233,0.002836611637075527,0.9939107472936353,0.6192253558995187,0.575746803227599,-0.35461171950089904
1729842737.3352308,1.8910588496525842,0.4968373580459925,9.935127344167185,0.02486604823639548,-0.09376341182322988,0.002342579748311868,0.9952811736230599,0.6473823733671076,0.7008992832573557,-0.21446979194638754
1729842737.3432896,1.5299180038833475,0.6311358657553299,9.157575042974921,0.03427659921813006,-0.08243357969953842,0.0028368820820022446,0.9960028974777193,0.6387351801599391,0.737678665743627,-0.11250565283227533
1729842737.3512309,1.2773204715194615,0.7718094320508543,8.424329597318156,0.04553161790637696,-0.07478106228250066,0.0034180482425242033,0.9961540952287152,0.6126880512239985,0.7456985232071427,-0.05600976003989035
1729842737.3592157,0.9586466762222238,0.701548144582075,7.248404739592066,0.04811688820283806,-0.06532145650167344,0.0031534763775851477,0.9966985140838285,0.5817349316498011,0.7577471687301067,-0.014024113196680753
1729842737.3672087,0.47008255285247486,0.57224243167112,6.678361638921256,0.0426983906258481,-0.03496952594699178,0.0014954234356248208,0.9984747084437109,0.583170492793998,0.7858351690555245,0.01670124570825142
1729842737.3754094,-0.07516535598382762,-0.16566181394654678,7.760406925979706,-0.010671572736869842,0.004841325640793238,5.166810646477128e-05,0.999931335858502,0.6755551926948531,0.8371688642291999,0.006189536871792566
1729842737.3832185,-0.9146732565590466,-1.0927513571667562,9.913192740792901,-0.054807155102922105,0.045643667416702734,0.0025079948977380657,0.9974500194675775,0.8310231770789435,0.9450189824580327,-0.07418755912447625
1729842737.3912106,-1.6381657093065216,-2.0983967347102097,11.463916849309726,-0.09016691537363523,0.06948134314275407,0.006306033746696904,0.9934799969126042,0.9579334825648982,1.0497439191727636,-0.17903059489668774
1729842737.3992138,-1.4205594890604754,-2.4520687280819855,12.725708824185444,-0.09488570394243867,0.0543144540191766,0.005184816455123837,0.993991831430356,1.0664321105275854,1.0704355651168609,-0.3449534112338263
1729842737.4072175,-1.7319653833776913,-2.560602992220285,12.725258603837439,-0.09889532250573803,0.0659483284112633,0.006568695104129801,0.9928884053159626,1.1417478487802866,1.051775178196591,-0.4466355513434196
1729842737.415238,-2.6193523257297393,-2.587895164472796,12.821953638864963,-0.09890928095230539,0.09816797406846123,0.00980588173867124,0.990193843493343,1.1933226426538377,1.0461129168434353,-0.4804006714756055
1729842737.4232366,-2.995443122732766,-2.321994092091881,11.93689462594593,-0.09518630293628036,0.11990910610691304,0.011550652591145882,0.9881436921979933,1.1753131619098347,0.9580032378005976,-0.5717499838190764
1729842737.4312193,-2.966593964459972,-2.042743365655519,11.214562505548027,-0.08920756461937385,0.12644231205810597,0.011417896874824049,0.9878886494777823,1.1189586368869955,0.8463922018931347,-0.6610404662035835
1729842737.4392197,-3.125737131849811,-1.7119083765710459,9.950854097567097,-0.08408402145494723,0.14900177871790793,0.012717221976944377,0.985173395672078,1.0187382722852152,0.7117408605761939,-0.7512241009200225
1729842737.447227,-3.380676862850121,-1.3242654519680181,9.370278815962132,-0.0690666521459349,0.17029368364201705,0.011966272834077219,0.9828970786340987,0.9424298311885897,0.6173279738192444,-0.8423693170970825
1729842737.455229,-3.1244716377296036,-1.1639845873429202,8.821299547878061,-0.06457762475519901,0.16768841455892464,0.011008791201576794,0.9836610862080348,0.879191474010671,0.4802248201487508,-0.9549502951621549
1729842737.463221,-2.9942116789268245,-1.2418745292612208,9.17186525851199,-0.06638421280619898,0.15544963079039584,0.010470648528765798,0.9855551299123849,0.84337691001123,0.2898376523350986,-0.9807812559779192
1729842737.47122,-2.838244149690079,-1.376954535671967,9.137277855058366,-0.07385285028284365,0.14803844766211824,0.011086521717290479,0.986157930331193,0.8103945399520907,0.12154271384122928,-0.9609475573660292
1729842737.4792159,-2.5093136089546726,-0.9590509135418521,9.50510434242955,-0.04982676939548906,0.1279157978285924,0.006434685155320985,0.9905117043954783,0.736116790049467,-0.05988967087141628,-0.8932819401473691
1729842737.4872165,-1.9442059095134285,-0.8818883606251112,9.555572496815152,-0.045759679493580584,0.09967623415743895,0.004588885182649824,0.9939565595183808,0.6532380345763099,-0.1913106749564913,-0.8228842655138306
1729842737.4954114,-1.5876636177295413,-0.698163653582098,8.824976101848856,-0.039302080635429316,0.08854399319832675,0.0034964297662740105,0.9952904514286824,0.513264488262465,-0.33444247668830307,-0.6933791981339912
1729842737.5032177,-1.3861880912920215,-0.4076454443465244,8.286061795142517,-0.024488395554160658,0.08266053386652278,0.0020317927360123697,0.996274774568925,0.389265494696727,-0.4382005403087955,-0.5139362330166619
1729842737.5112143,-1.1238054573142753,-0.1670151328188521,8.165023251401916,-0.010201010261563623,0.06831761786092139,0.0006985774658530149,0.9976112241093605,0.3055009172051195,-0.5119490101405658,-0.35093074595620033
1729842737.5192459,-0.7604745341541902,-0.16102180185928,8.045952612950524,-0.009993336876258405,0.0470890721920551,0.0004711231850496202,0.9988405931584446,0.22161265585465456,-0.610260729845306,-0.12882595577301012
1729842737.5275133,-0.4620308044768891,-0.3345967261350992,7.556003779684376,-0.022114149340208052,0.030493716058398432,0.0006748216675754724,0.9992900691469048,0.15638054689320446,-0.707985557261195,0.06190507663427826
1729842737.535236,-0.03564353517636785,-0.30610290872793455,7.589321846668048,-0.020154336528946694,0.002345865086728678,4.72890899322174e-05,0.999794127508166,0.09382832813592268,-0.7993985884433048,0.24189996554380414
1729842737.5432348,0.24221548167738244,-0.574874296506292,7.85447893685825,-0.03651756845567875,-0.015362099712003884,-0.0005614273771102708,0.9992147706503459,0.05204009626693329,-0.8380701848170136,0.36564743116361487
1729842737.5512197,0.9423590216724451,-0.5529807021713533,7.533296337945028,-0.0365551779764613,-0.061976358088986896,-0.0022714503525413984,0.9974053792287422,0.08911790611899627,-0.7654928788122817,0.48246491668170444
1729842737.5592163,1.2441715836577638,-1.111819322181718,10.41186866824553,-0.053068600249613095,-0.059014729407311194,-0.0031417552509628763,0.9968405663667945,0.15265652799205112,-0.7245006355782146,0.49508724969518386
1729842737.5672097,2.297706205809893,0.32626267548979737,13.097650411152397,0.012403319220246713,-0.08668880837614205,0.0010793763158228656,0.9961576396943478,0.12437205152780711,-0.7250210032640343,0.43582730985373264
1729842737.5752141,0.7168663846187481,2.2423211843954407,15.608142180285187,0.07126398733971398,-0.022655748838942755,0.0016190742737629898,0.9971988466456867,-0.036481875124905985,-0.4524658944783639,0.2959772808906641
1729842737.5833876,-0.11384278641625115,4.388423020695858,17.209965888005094,0.12451160772688029,0.003179924191070239,-0.0003990448455417725,0.992212975316599,-0.15768425468133165,-0.05650605564869232,0.2171755442503674
1729842737.591216,-1.086320217748188,3.7272039711089207,14.824445032070637,0.12276712925383415,0.03519789288218915,-0.004356863698646251,0.9918015719135242,-0.3300171567973025,0.348791731865151,0.2405590524688866
1729842737.5992124,-1.2388503777192255,3.9613446788079303,11.340583435258008,0.16700920565108066,0.05063736183299332,-0.008589033404474465,0.9846166824300543,-0.4938648867944935,0.5932474745578431,0.15753182338665495
1729842737.6072135,-0.8309380073932541,3.9399810712007737,9.441323769650898,0.1962178535364488,0.03972216254528473,-0.00795551031209441,0.979723131099776,-0.6028157763293589,0.7612054232465599,0.0344967953658465
1729842737.6152356,-1.11435147142814,3.328851911763433,8.652757933665539,0.18226018159092738,0.05877131343906523,-0.010914331653088964,0.9814316258851942,-0.7669464043094694,0.8862445259631258,-0.16873400013109618
1729842737.6232433,-1.3409027090287589,2.719402367761185,7.945226089545026,0.1636036827715285,0.07801392970943058,-0.012979461217223359,0.983351003122179,-0.9186360387802897,0.9340238236594953,-0.3315387233296168
1729842737.6312418,-1.2881703607688177,2.4547679514184297,7.876964190103969,0.15000663253271176,0.07648198172122357,-0.011639793587276442,0.9856536064325215,-1.023697591491029,0.840944044699176,-0.5049943881889708
1729842737.6392336,-1.829223988922228,2.155926504493636,8.708693555566288,0.12040603967961103,0.09965963682076301,-0.012149856202077267,0.9876349140202033,-1.0577875989380543,0.6263137843976466,-0.6146017579035896
1729842737.647312,-2.2608769800232587,1.7946623101668848,9.190014082558521,0.09557618455971194,0.11763391144560661,-0.011375162340353717,0.9883815364042094,-1.0667479717467945,0.4196343469691772,-0.6561018462290251
1729842737.6552184,-2.3144462722424706,1.8630532112954434,8.917126689281206,0.10197385040755828,0.12342274178139519,-0.012751424550749256,0.9870185215162613,-1.0278524290399875,0.180690367917347,-0.6073575185913549
1729842737.6632094,-2.3547281332185293,1.6007424016307816,8.95307067177185,0.08760883043763495,0.12583768026333259,-0.011157129272508153,0.988111881075058,-0.9781223196052573,0.024553278642387974,-0.5512924481366448
1729842737.6712155,-2.376742468310024,1.7019296951288594,9.31078297435217,0.08956396777367868,0.1221995327684188,-0.011073189017502498,0.9883941290562173,-0.9125262887816086,-0.02868841908369444,-0.4882807916229386
1729842737.6792164,-2.106956433134452,1.874690708923019,9.675526799992161,0.09499506883123854,0.10463231011028724,-0.01004083822248675,0.9899127224894742,-0.8761485007176536,-0.006996489975127904,-0.4628188094971138
1729842737.6872163,-1.8778077453787179,2.0925507363889677,9.469641720864438,0.10800936360539848,0.09492049425592487,-0.010360530278617629,0.9895538068018908,-0.8675182197846035,0.030708691054809847,-0.45860956181963175
1729842737.695219,-1.8463816662701993,1.6149001110228338,9.814895358446398,0.08109018137842805,0.09133468496514002,-0.007462425565800609,0.992485098130449,-0.9070375076782868,0.14570654301003333,-0.3798854922114388
1729842737.703213,-1.9211393037171978,1.4930308100219032,10.53656147776315,0.0700316564911386,0.08896248843077152,-0.00627063501839805,0.9935501607255559,-0.9405399518281234,0.2730247926034658,-0.26879754122721833
1729842737.7112155,-1.668155199661959,1.4009950363061106,10.826387890075859,0.06410858082821029,0.0755882813810899,-0.004869894212713025,0.9950642118538898,-0.9751148804077345,0.39794440936619685,-0.1319059104954508
1729842737.7192879,-1.5529960226292066,1.5033120413149164,10.509472397131454,0.07078539525336616,0.07237912649967689,-0.00514991322392761,0.9948488167856233,-1.018847100874451,0.5082284545251841,0.0038660156878256857
1729842737.7272372,-1.6574801367708833,1.3621527838709813,10.694494501511294,0.06310980953813738,0.07604724828556918,-0.004822992256158054,0.9950933155809811,-1.047640573523253,0.623778928750172,0.12662110735960866
1729842737.7352352,-2.0520069553535456,1.3562264640237607,10.82944978074076,0.061973352647685026,0.09260926920315019,-0.005775372730313813,0.9937552374146714,-1.0529973353915973,0.7169478567270386,0.27945251379461633
1729842737.7432382,-2.0584008467961117,1.1201936909142562,10.47539650662805,0.05298251585936576,0.09619074452191886,-0.005127507620438816,0.9939385807720381,-1.0404608602385086,0.7106984645397021,0.40563225263404545
1729842737.7512343,-1.7897770327358702,0.8114587511696475,10.155704307785424,0.039698931355922756,0.08677118108344051,-0.003460534507193577,0.9954309527453459,-0.9848359982014459,0.4757991258534169,0.5481734355872419
1729842737.759214,-1.62285666031535,0.740660626678351,8.836220006546254,0.0416224942265121,0.09030475144266925,-0.003777457047705388,0.9950368589451822,-0.8778167003462767,0.2118350948791186,0.6490229875717929
1729842737.7672226,-1.610332217624757,0.64143917263787,8.837489015646502,0.036067165407073574,0.0897080438968901,-0.0032507624638796776,0.9953095292335424,-0.7642250745035797,0.04451718500383704,0.6814371747060294
1729842737.7752156,-1.5048947041100105,0.43370521744990953,8.371381097376183,0.02577185724490205,0.0886703851773859,-0.0022950118786518587,0.9957249153692596,-0.6241284786108781,-0.15591072536490932,0.641714768443349
1729842737.7832866,-1.3559197765675688,0.2901506512218988,7.777836508767506,0.018570574646570207,0.08611772070037706,-0.0016055000191273487,0.9961105833733304,-0.5213401583709277,-0.3323585596991453,0.6412942780661524
1729842737.7912052,-1.2840124921612444,0.3687389857038425,7.95968686863941,0.0230674881474439,0.07977779242490253,-0.0018466552840921179,0.9965440204479873,-0.4200779905109886,-0.47143108509372533,0.6665833875275564
1729842737.7992127,-0.8022503773768248,0.3653743313637117,7.774789120695365,0.02344574759474148,0.051318116934664273,-0.0012051121099382598,0.9984063779337582,-0.3363334264760754,-0.6272419107790188,0.5476644838438588
1729842737.8072133,-0.37217463072296986,0.5003038737205708,7.677018581059797,0.03252288055480291,0.02415423209392575,-0.0007862108641434184,0.9991787713842042,-0.266079255166412,-0.776068114180259,0.4043715212465569
1729842737.8152058,-0.05738660338495379,0.281986391615155,8.25569273921205,0.017070726542718545,0.0034729830429586998,-5.9295341818509235e-05,0.9998482510702059,-0.18178343629587285,-0.9790230826313655,0.27582673754197257
1729842737.823233,-0.037065583857144146,0.36360100977378046,8.667061838595588,0.020962146880837234,0.002135938309470107,-4.478379513673672e-05,0.9997779874352586,-0.12694904435892904,-1.1684807834744926,0.18039519467635465
1729842737.8312275,0.38525377224430724,0.3388283695361433,8.104403716926884,0.020884163306441657,-0.0237221931998657,0.0004956658375483374,0.9995003069475045,-0.09787961974992103,-1.4098624224189782,0.014159613222703801
1729842737.8392286,0.6781497132977562,0.283742197502936,7.896813994072146,0.017939811844783632,-0.04278563766095031,0.0007683939257065057,0.9989229008946059,-0.05872777184995261,-1.547028984679353,-0.13709023308639254
1729842737.8472269,0.919967243750138,0.5382341136677773,7.7578949503983665,0.03456460110735234,-0.058807205051818856,0.0020373973539520892,0.9976687075358759,-0.018634750712952338,-1.5995306177332358,-0.23933377253132518
1729842737.8553505,1.1926687105078952,0.7601216913451975,8.054024487328864,0.04690120433526005,-0.07304079677646862,0.0034387009945728232,0.9962196014803316,0.030111085534045665,-1.5842056908047417,-0.3666618557248996
1729842737.8632185,1.2406496503770026,1.1278860006469622,8.429942106948099,0.0662723620347123,-0.07220192996535413,0.004808195716602861,0.9951742242409461,0.07085221894171932,-1.5175425763502712,-0.4869047819716336
1729842737.8712204,1.3388700624429986,0.9427274048315367,9.19011790943253,0.050951659460031655,-0.07180567682838392,0.003672907383979201,0.9961096239495106,0.11104743126041869,-1.3145054141376307,-0.599491093558567
1729842737.879217,1.854855406606424,0.43419477175634386,10.24381612529819,0.021090563546133465,-0.08934687952103987,0.001892370458214919,0.9957754476704114,0.12537368723801157,-1.1024368237800957,-0.6887530736452907
1729842737.8872244,2.445525888006823,0.5964233559737282,12.052545750618366,0.024591457864821697,-0.0997777564968439,0.002466747455576551,0.9947027569407504,0.17270723641761218,-0.9700873888280303,-0.743587331881711
1729842737.895216,3.3620867266517505,0.5237721886330651,12.228465735283127,0.021201424470158808,-0.13360625740712723,0.0028589349999779043,0.9908035597800214,0.34839612719123547,-0.8349123298052649,-0.7266821496325054
1729842737.903215,4.049929245463707,0.5273472609337453,11.661965320076126,0.022264815266192565,-0.16614810435118837,0.0037523820164881627,0.9858422820364682,0.46360033306903614,-0.6461077088417116,-0.7041940285005832
1729842737.911212,3.3308956319950207,0.6398650008473564,12.579739203032004,0.02518695167484475,-0.12886028540527286,0.003273958635243984,0.9913374428041419,0.5199521547518555,-0.22079412121191058,-0.6068402137134097
1729842737.919505,2.466843223923575,0.4037908742877107,11.81646566171178,0.016984526264880236,-0.10264914905263725,0.001752963893558419,0.9945710659293859,0.5601485986834778,0.12591739458030682,-0.4845744156218007
1729842737.927244,2.2711501628697697,-0.12044702694104542,10.901209019829802,-0.005493931151685779,-0.10251248267612109,-0.0005661880415090954,0.9947163852310769,0.5731985234444382,0.36629674872675166,-0.4052552759063669
1729842737.9352329,1.9542973279464713,0.611276357809982,10.210318296419365,0.02975558799788914,-0.09421117535810684,0.0028171029374012995,0.9951034736908438,0.5818798584239386,0.595662373507025,-0.3640491429990371
1729842737.9432464,1.8276319709866327,0.4917431413461454,9.714620426093806,0.025171766957585086,-0.09270003615842626,0.0023442704336329835,0.9953730907758123,0.5938997003950314,0.74818090052636,-0.3184666502429997
1729842737.9513898,1.3716729533439327,0.3517884641533903,8.856958515421908,0.019786881773905543,-0.07667438676975805,0.0015219279088563174,0.9968586667419747,0.574293131705579,0.826495624832638,-0.2430141776441677
1729842737.9592154,1.0394396020844847,0.27044927966390914,8.057451371460175,0.01673961607152569,-0.0640588461352306,0.0010746792623548222,0.9978051385666862,0.5442245178490402,0.8662477283715503,-0.18326923199515938
1729842737.9672077,0.7349941384479562,0.20081621452686113,7.1096806605225895,0.014099046190707603,-0.05145844222273765,0.0007265500376339649,0.998575344050495,0.5274604197195031,0.8930788209251319,-0.14231398386821004
1729842737.9752111,0.2851339549926019,-0.3612236453073208,7.012436540844803,-0.025724835300128597,-0.020284411517070947,-0.0005220934535842156,0.9994631073314377,0.5697618384016107,0.9419556111898573,-0.12710601634420512
1729842737.983219,-0.421963378225142,-0.7688370900164239,7.9816814215771945,-0.04797877165698617,0.02625388935134362,0.001261518526194342,0.9985024683671153,0.645374116863395,1.004485510142731,-0.12734641718196685
1729842737.991217,-1.0882755659975851,-1.5243277911192292,9.505107283122097,-0.07929306408160175,0.05607826330629174,0.004467782472648023,0.9952627177247615,0.7950355489986632,1.1007486779962157,-0.15516051167965594
1729842737.999214,-1.5139202565907386,-2.1406673448375533,11.160168213867399,-0.09439811163471798,0.06587744896830079,0.0062604467048084905,0.9933327564538906,0.9418748765157364,1.085713578198299,-0.26720354214576447
1729842738.0072138,-1.8013893731927242,-2.6967399662287033,11.719136011328251,-0.11252302249074672,0.07380363293237513,0.008381136109705723,0.9908689871688591,1.051688666160544,1.0460428338942827,-0.37572129638724666
1729842738.0152144,-2.6248542745504,-2.9482624221200346,12.418195921982498,-0.11566357999992037,0.10055332631442658,0.011770240018451164,0.9881155935813454,1.1622743964009419,1.0341597090328098,-0.4629678321281616
1729842738.023263,-3.2656977771325835,-2.792718083154833,12.89102256539653,-0.10565389354365264,0.12036821585133697,0.012884783228408967,0.9870069552708276,1.2273487643607943,1.0044682608584383,-0.5123359231424763
1729842738.0312276,-3.4646532500197846,-2.5167138931057904,12.30945407146448,-0.09971840741358451,0.13344920998835322,0.013497197550918787,0.9859337570215629,1.2038169461017874,0.8700143151132187,-0.5623899007012427
1729842738.039269,-3.3774069304806207,-2.054709213549021,11.400509206794705,-0.08810761327154809,0.14080854862657569,0.012582099206520333,0.9860282409225538,1.0858294801496473,0.7225086080165481,-0.6005103984042812
1729842738.0472372,-3.017404225427044,-2.225222116264178,10.24102956216276,-0.10568412686580422,0.1389124578299724,0.014911426754961802,0.9845363597858537,0.9584202224039131,0.6046325695176656,-0.6157202759197877
1729842738.055218,-3.041780449074586,-1.5135012934401473,9.25779815599883,-0.07990160297144056,0.15562777447411838,0.012630710676083536,0.9844979404765885,0.806201836816231,0.48069568873558216,-0.6274003427978638
1729842738.0631998,-2.798311244298267,-1.346479100038698,8.661394967818046,-0.07607844829268066,0.1534376451787108,0.0118492104232602,0.9851540767614654,0.7063570042343812,0.3620617938742808,-0.6365368332320196
1729842738.0714958,-2.262693111325054,-1.0322241555798595,8.530283952126375,-0.05965562536865497,0.12815597184443653,0.007723010167007661,0.9899280824163152,0.670288748127145,0.14870097642918137,-0.6339306163247345
1729842738.079211,-1.8307101148419074,-1.2949782018440092,8.731260096617623,-0.07315438978458076,0.1017979498790505,0.0075063927926001875,0.9920832962624213,0.6563102155691198,-0.07211594743660117,-0.5693647570839827
