Time,Denoised_Gyro_x,Denoised_Gyro_y,Denoised_Gyro_z
1729143973.34009,0.013227208461794223,0.0062068675534493961,0.0022035785467922082
1729143973.347839,0.01325745084535193,0.0060654158701108117,0.0013221471280753247
1729143973.356127,0.013701286336948585,0.0049163197064525819,0.00079328827684519484
1729143973.363696,0.014180432662637594,0.0029497918238715489,0.0004759729661071169
1729143973.371703,0.01489361051951303,0.0017698750943229292,0.00028558377966427016
1729143973.380293,0.01702427747948642,0.0010619250565937575,0.00017135026779856207
1729143973.38767,0.020218282932049594,0.00063715503395625451,0.00010281016067913723
1729143973.395721,0.022347531234318513,0.00038229302037375267,6.1686096407482344e-05
1729143973.403647,0.020645249785445643,0.00022937581222425159,3.7011657844489408e-05
1729143973.411652,0.01579267036296364,0.00013762548733455097,2.2206994706693645e-05
1729143973.420013,0.010539827371433264,-0.00098164986125434846,-0.001050900956831063
1729143973.428208,0.005046826238473863,-0.0027174402240627673,-0.0031846809428708271
1729143973.43602,4.826531285009655e-05,-0.0037589144417478184,-0.0051034840266877329
1729143973.445578,-0.0035894063347172108,-0.005235179095282913,-0.0068933009691709238
1729143973.452034,-0.0055591642925265795,-0.0073980080717900637,-0.0081800361653918546
1729143973.459601,-0.0048254137906330579,-0.0097599306113494329,-0.0087392322523933974
1729143973.46765,-0.0016181780899937397,-0.012028464258009117,-0.0092875949353253377
1729143973.47581,0.0015832335147759461,-0.013389584446004927,-0.00982945757581552
1729143973.483651,0.0022270102932516627,-0.012716341343685303,-0.0095160400679165803
1729143973.491651,0.0013362061759509976,-0.010609635236445402,-0.0082637644095221383
1729143973.500841,0.00080172370557059854,-0.007642851326253336,-0.0060224837993683609
1729143973.507675,-0.00058319093031272001,-0.0045857107957520014,-0.003613490279621016
1729143973.515958,-0.0022655198347667745,-0.0027514264774512009,-0.0021680941677726098
1729143973.523552,-0.0022106920237841277,-0.0016508558864707203,-0.0013008565006635657
1729143973.531554,-0.0013264152142704764,-0.00099051353188243214,-0.00078051390039813933
1729143973.539562,-0.00079584912856228577,-0.00059430811912945932,-0.0013196884631629466
1729143973.547578,-0.00047750947713737148,-0.00035658487147767557,-0.0031331084159389416
1729143973.555575,0.00056487443664164031,-0.00021395092288660538,-0.004434005418335555
1729143973.563622,0.002467374969295142,-0.00012837055373196321,-0.0052145436197735227
1729143973.571493,0.0042474103810802907,-7.7022332239177924e-05,-0.0067470916942913815
1729143973.579622,0.0074438819354615375,-4.6213399343506749e-05,-0.0083051556311951463
1729143973.587568,0.014044355544172634,-2.7728039606104051e-05,-0.0090271489626063892
1729143973.595576,0.021835850262557577,-1.6636823763662428e-05,-0.0092474999307221185
1729143973.604086,0.027787817277974636,0.0012670880901278973,-0.008954020450129524
1729143973.611658,0.031146152456493853,0.0033143932228489282,-0.0083522427003119362
1729143973.619992,0.031884083379219288,0.0041170862410195149,-0.0082040210811523996
1729143973.627928,0.029559856533351352,0.0033216318675357722,-0.008327933140387692
1729143973.635549,0.024546954903403317,0.0028443592434455262,-0.0086151254066598841
1729143973.643469,0.01728231331081418,0.0040479108841084896,-0.0090002857971542144
1729143973.651549,0.0095180078635644441,0.0058342670221613463,-0.0090185370007197958
1729143973.659482,0.0037951994415595233,0.0071189257357240762,-0.008603797661397114
1729143973.667812,-0.00027702070383647608,0.0059741156872825715,-0.0079292639963414735
1729143973.675613,-0.0029331978218050912,0.0035844694123695429,-0.0070988537358460582
1729143973.683583,-0.0030369888774691494,0.0021506816474217258,-0.0053235373951627139
1729143973.69158,-0.00097081320355742661,0.0012904089884530354,-0.0031941224370976278
1729143973.69959,0.001758807415906718,-0.00050282479131427357,-0.0019164734622585766
1729143973.707596,0.0025451996646611414,-0.0024301451820987223,-0.001149884077355146
1729143973.715645,0.0015271197987966846,-0.0023094672321832968,-0.00068993044641308754
1729143973.723558,0.00091627187927801072,-0.0024499054929650573,-0.00041395826784785248
1729143973.731556,0.00054976312756680639,-0.0035983936030891924,-0.00024837496070871147
1729143973.73948,-0.00094721230784601095,-0.0042874864691636733,-0.00014902497642522688
1729143973.747535,-0.0031224677534797962,-0.0051266322502703937,-8.9414985855136114e-05
1729143973.755474,-0.0042147759901290521,-0.0045658945652793468,-5.3648991513081673e-05
1729143973.76352,-0.060635558983644734,0.0027944340598388033,-0.011100130992920672
1729143973.771543,-0.20942434537450269,0.023386853570466895,-0.041779508666370008
1729143973.779549,-0.47514614768502961,0.089379253021059729,-0.091901044849360972
1729143973.787584,-0.84699856974089949,0.22773478695060675,-0.12580517711231382
1729143973.795555,-1.185259184599901,0.37502730658910177,-0.1265659136428321
1729143973.803519,-1.4107771267727895,0.4370100345615528,-0.13766460709769385
1729143973.811677,-1.5409796113389782,0.42013703353934539,-0.15624314489154778
1729143973.819508,-1.5890899527456184,0.38191768886952687,-0.12886531700554626
1729143973.8275,-1.5421833266493605,0.3519621960535122,-0.068805388974087126
1729143973.835464,-1.4452904060654879,0.33122191496440023,-0.040857543322990242
1729143973.843457,-1.3665086857342557,0.29557763796125236,-0.073681728092658799
1729143973.852597,-1.3100873172140828,0.24673406279506255,-0.12445161344118823
1729143973.860054,-1.2266416039416526,0.18677823327008239,-0.12873360587039095
1729143973.867505,-1.0639791547214867,0.11078986977766332,-0.097247596410950043
1729143973.87605,-0.86889866111458203,0.02922604148867022,-0.073034864967010116
1729143973.883595,-0.67501330885654254,-0.098252071824470461,-0.080643109296671789
1729143973.892032,-0.49631850349753126,-0.26690083811888471,-0.1081953192134185
1729143973.899605,-0.36015469610270634,-0.44194732355919575,-0.12110827964103926
1729143973.907559,-0.26249303436098526,-0.60955165385830101,-0.119065184483985
1729143973.91567,-0.19985198173206331,-0.74055109143229947,-0.11975493266633158
1729143973.92355,-0.16162881506251708,-0.83362421606640758,-0.11250636046942297
1729143973.931567,-0.13656646475347917,-0.87222764335766023,-0.082615813463555898
1729143973.939504,-0.12557311015194575,-0.80109935111857178,-0.017217043407019138
1729143973.947637,-0.1366432349417,-0.65668245108569312,0.055864578513134436
1729143973.955448,-0.14839359055309692,-0.52278071424368044,0.049694969443437861
1729143973.963502,-0.082863648440658688,-0.48373160810028992,-0.033823682522511
1729143973.971509,0.073519083728862941,-0.5007427002531486,-0.099472560945444474
1729143973.979538,0.35039544945924955,-0.36387343930973187,-0.098847022221773578
1729143973.987601,0.68424315311352191,-0.13361174135489479,-0.045260441304817108
1729143973.995898,0.93244190722056386,0.052222564301754967,0.059045972663171152
1729143974.003572,1.0851923702379473,0.20586646378048595,0.16398598215943624
1729143974.012695,1.1636462561430543,0.31444187083401276,0.21311506085967924
1729143974.019762,1.1834744237525485,0.36809348340665393,0.22194654009891651
1729143974.027723,1.1538665433256972,0.36622924603327611,0.21575179598298405
1729143974.035538,1.0890630632780318,0.30147003942067574,0.20054131785394969
1729143974.043578,1.0423057091123851,0.21642714378448505,0.15884974127468365
1729143974.051777,1.0487321915914214,0.16923261695592895,0.09552268979554121
1729143974.05979,1.0572706717549256,0.15134530736461507,0.019214353376472891
1729143974.06774,1.0374908912574994,0.13848447130251659,-0.067011204313861095
1729143974.07791,0.98731091742746069,0.13119365972671954,-0.18174866802444217
1729143974.083988,0.93059730428806064,0.14469815536264663,-0.31423181043936455
1729143974.091617,0.89529206622003432,0.1611018089427125,-0.40457679245559974
1729143974.099551,0.88326125970065228,0.14008147163475473,-0.44047910902247356
1729143974.108041,0.88860063260215294,0.08894431868766621,-0.46585170951575605
1729143974.115623,0.92905213672098119,0.05336659121259972,-0.52768833154181805
1729143974.12388,1.0220719841183961,0.041810826141186558,-0.60161249507392101
1729143974.131538,1.1210914337952413,0.031471846606642408,-0.64852113356195495
1729143974.139481,1.1596442905897091,0.0065380961815865255,-0.67028096573284479
1729143974.147531,1.1346730277211801,-0.028855277023624521,-0.6718432333759039
1729143974.155474,1.0607321964875711,-0.077548309911052188,-0.63170150303065331
1729143974.163513,0.95464263883541123,-0.13805234916096809,-0.50970775068723562
1729143974.171588,0.85629516423495966,-0.19436220559963313,-0.34413675594392423
1729143974.179718,0.76684984008015356,-0.26922721039391823,-0.19541411196834174
1729143974.187761,0.68189442606981054,-0.36331341536935391,-0.078084981526498148
1729143974.195645,0.59856873299249036,-0.46424974977739764,0.059358681418878005
1729143974.203597,0.51515664732132871,-0.58164117362740497,0.25910249111889339
1729143974.211586,0.44637903321430245,-0.68230002230121367,0.45365738272548911
1729143974.219683,0.38404080670771606,-0.70161624057441285,0.61168225365126361
1729143974.227541,0.32918457828382097,-0.63487900022931854,0.73863677584711174
1729143974.235499,0.30712593779676567,-0.50565458814596642,0.82587743076263342
1729143974.243546,0.3473148562180175,-0.39002068039510324,0.89439804604750361
1729143974.251608,0.4323018860598391,-0.34873587980107945,0.94189576614035619
1729143974.259862,0.44562053352554226,-0.36802392080598545,0.9516640354917385
1729143974.267473,0.33399281473413323,-0.41790885094051189,0.96093051759426396
1729143974.275587,0.15420831717184949,-0.39952398704528719,1.0692945566988599
1729143974.283574,-0.053061010716905117,-0.29994953592404983,1.2724494051060469
1729143974.292226,-0.23999904648507653,-0.20806526561092398,1.4166910423771155
1729143974.299792,-0.39771070452241675,-0.16591825029764046,1.4091585211566477
1729143974.308087,-0.55150861788804328,-0.15063375755402805,1.3120514200563753
1729143974.315659,-0.70721518506526193,-0.10634363183724302,1.1750344980257359
1729143974.324336,-0.84938063740899572,-0.011233456511784902,0.99278718036377489
1729143974.331757,-0.94936621593567605,0.10308796195013321,0.81532837993267315
1729143974.339552,-0.99552263605416813,0.23851415267682302,0.62116094701283364
1729143974.347537,-0.99363102885365229,0.38745458688529993,0.38653149520521618
1729143974.355499,-0.94992705838713953,0.54067235662969082,0.11847249574349827
1729143974.363536,-0.88134851499175992,0.69241247211174084,-0.14878541929904038
1729143974.371608,-0.8238123215882438,0.80069698889018315,-0.34660089373322234
1729143974.379566,-0.80142277229780201,0.872691584971372,-0.48253062588294382
1729143974.387687,-0.81374329144198998,0.94526095686096556,-0.56174716983473549
1729143974.396784,-0.84029165569429409,1.0194522644199879,-0.56436679472156615
1729143974.403661,-0.86175464504468291,1.008627340965337,-0.51996404301576515
1729143974.411969,-0.87207829828614414,0.911886093862596,-0.48119022524061666
1729143974.419673,-0.86252195795692566,0.79318051184261185,-0.45813877960625859
1729143974.428384,-0.83656787583994796,0.66768167979421233,-0.43664549111932716
1729143974.435484,-0.80673480951078336,0.55832717564821011,-0.3854374124955855
1729143974.443527,-0.76478348124067974,0.4669602244421559,-0.26978739805966512
1729143974.451444,-0.70811161973042736,0.3838316646312982,-0.11504653207497559
1729143974.459803,-0.61855594980348072,0.26839825927963074,0.035266145813212399
1729143974.46749,-0.51267551531821387,0.13124065126543624,0.14737679071141982
1729143974.476133,-0.41828472517105653,-0.0078835367482617061,0.20527799629817955
1729143974.483935,-0.32184823033606219,-0.19543926958394719,0.20979472528643117
1729143974.491789,-0.23142104373322014,-0.42716592649472729,0.16738161616440678
1729143974.499548,-0.14247099176235933,-0.70008144497100422,0.11511527681908418
1729143974.507836,-0.062069641677003864,-0.96024955497792064,0.085671078488469735
1729143974.515576,-0.0099976210726322977,-1.1306110380410486,0.077369740842265763
1729143974.523935,0.022522661474376739,-1.1949415124088043,0.041100718737084055
1729143974.53158,0.039906380695272005,-1.152658685351672,-0.038767387915592269
1729143974.539759,0.040120050752720404,-0.95105330367211138,-0.17523178469130068
1729143974.547823,0.030670226404293732,-0.64512774295912245,-0.32905204314380904
1729143974.555526,0.02287188148792757,-0.38835371595985957,-0.38643761317542746
1729143974.563556,0.01946994472249397,-0.19959555975114623,-0.36382648695848624
1729143974.571525,0.02338844352370225,-0.068035993383050899,-0.34791851589028033
1729143974.579573,0.040425849924867308,-0.02847658424743163,-0.36327660184488569
1729143974.587582,0.078956682852791449,-0.077533939276067471,-0.40463105305803226
1729143974.595605,0.15039100458548649,-0.092707735234270908,-0.47094850477846828
1729143974.604118,0.24837846058443663,0.0033334323719288322,-0.5335133940989486
1729143974.61178,0.34441881456173451,0.1365181188451593,-0.5580687808166449
1729143974.61961,0.43694961198799975,0.27283286387281674,-0.52171920547181871
1729143974.628909,0.52418200002268023,0.40315037789608282,-0.44350552712120395
1729143974.635534,0.60908672254533403,0.50305107944460603,-0.36167073507094849
1729143974.644157,0.69174346563784772,0.61088163228819847,-0.27383206424775031
1729143974.65155,0.75283114315283073,0.71261499934155081,-0.18239106616078654
1729143974.660137,0.79842324095252315,0.76109716276043227,-0.08070056054778478
1729143974.667526,0.83450514589231028,0.76102669160161196,0.014581792767709816
1729143974.675538,0.88063146739024933,0.75310914276927221,0.067494304142386247
1729143974.68363,0.94236246520597522,0.75091275383864053,0.073274717218008184
1729143974.691629,1.0175003243962628,0.72639481213058077,0.011825230690421511
1729143974.699802,1.1040878209029832,0.66592236549857653,-0.12231464027020472
1729143974.707671,1.1724293861733037,0.58323868082001251,-0.26984474752685045
1729143974.716049,1.1917241322009327,0.46147400459505983,-0.39944190281192393
1729143974.723516,1.1637118041015408,0.33797092657683747,-0.49720762887168352
1729143974.731512,1.0900747840367246,0.27770400676342,-0.53607247664955482
1729143974.739512,0.96586284044297299,0.23643557413782518,-0.55811431513189147
1729143974.747525,0.83748588151177494,0.1688926633855341,-0.60773591847629715
1729143974.755513,0.75747987572282205,0.077496954589446693,-0.67305400061502008
1729143974.763594,0.73501767593717204,-0.017142491434905708,-0.71267053995971597
1729143974.77153,0.74644322466131086,-0.10904558912013476,-0.68833748662132388
1729143974.779567,0.72648008002368614,-0.19568851227946255,-0.64606780062325653
1729143974.787592,0.65213859923692374,-0.25831651771161002,-0.62560142473122959
1729143974.795683,0.54133890620752045,-0.31441083864449687,-0.5852260551395192
1729143974.803566,0.42462766313735867,-0.37467306004560597,-0.51311070147001459
1729143974.811726,0.33140080894558088,-0.4563792294627087,-0.41152195084801341
1729143974.822879,0.23736543592966236,-0.55903987885718642,-0.30033727322229298
1729143974.828186,0.13688529075879102,-0.62553170420068627,-0.21149058345083513
1729143974.837107,0.038285098124685349,-0.58773836318996553,-0.11987046405637755
1729143974.843497,-0.038966845067914396,-0.48056288138331982,-0.030204652410547431
1729143974.851449,-0.06424635294110366,-0.40178413020962328,0.041048127096893927
1729143974.859513,-0.056639639376798535,-0.40261985645061493,0.085715400077937889
1729143974.867507,-0.079532620202516502,-0.45228849429407458,0.1061304129446338
1729143974.875497,-0.16989261976111297,-0.41653340753499746,0.17563473393129458
1729143974.884115,-0.27306297656440448,-0.27865412366968562,0.31290474532151719
1729143974.891547,-0.36412495985652854,-0.14399236585213065,0.50552047807431688
1729143974.899642,-0.4783587584364874,-0.060002635700632426,0.69388291823600412
1729143974.90758,-0.59436347943747925,-0.013652853193622793,0.81030590282471282
1729143974.915572,-0.67822692909705229,0.042039715336346054,0.88377805910036522
1729143974.923739,-0.72450094330890691,0.11547012223175834,0.92403014231259839
1729143974.9315,-0.74545431085262726,0.19464779643962332,0.89922703517180469
1729143974.939465,-0.74397855935061241,0.29345005337051711,0.79367318779591578
1729143974.947518,-0.73159947678992865,0.39572610373671857,0.66499745493596052
1729143974.955474,-0.7233206471305943,0.49263685408851904,0.55394965533375573
1729143974.963456,-0.7102652381672151,0.57824031326390035,0.4504987852559672
1729143974.971518,-0.68540439033070633,0.63322075429155644,0.29839481521007438
1729143974.979552,-0.68900539930239946,0.68387515645882446,0.070911613514688596
1729143974.987565,-0.73692768629258365,0.75321843838296121,-0.15241908004079735
1729143974.995542,-0.78590133640614068,0.77502981967945872,-0.3357975433036845
1729143975.003556,-0.81762682181231616,0.68893086413670379,-0.47179171501060074
1729143975.011585,-0.84219608385502776,0.53233889066066009,-0.54168174134454472
1729143975.019574,-0.84416693923679387,0.42369739945459373,-0.57318635063909129
1729143975.027502,-0.8157639931942422,0.38745942891037211,-0.5878322156011988
1729143975.036016,-0.77467073709610645,0.33144859663614556,-0.5727810911365897
1729143975.043481,-0.73234864588655069,0.2546345560332135,-0.53182366184817176
1729143975.051438,-0.68545804305698466,0.17512946184668476,-0.47553529469619971
1729143975.059422,-0.60049405815406387,0.062934361023269741,-0.43835675391332019
1729143975.067459,-0.48970621357689587,-0.068874743782277065,-0.4469121588995898
1729143975.075509,-0.38832692179070855,-0.2037256047171313,-0.48822905711562414
1729143975.083955,-0.31047174426051494,-0.33124918300813633,-0.54473310562416621
1729143975.091569,-0.24502827503806932,-0.45650484202014191,-0.6058796986628614
1729143975.099527,-0.15318947091404103,-0.64638170899136282,-0.66470353768210422
1729143975.107564,-0.049983211494414495,-0.88056527153711928,-0.70723457213850438
1729143975.115605,0.02854245655438065,-1.1181327430779164,-0.75297347073179099
1729143975.12355,0.078211997752429915,-1.3341047616045951,-0.81021511419010528
1729143975.1315,0.11312200320880386,-1.498168867699027,-0.86669598346111942
1729143975.139476,0.14109189249675175,-1.4893334358672541,-0.92995711926460811
1729143975.147427,0.15319123539343815,-1.2481998827182248,-0.99004968394272697
1729143975.155544,0.1542783352402505,-0.89173894525144659,-1.0192941817662058
1729143975.163477,0.15237645477956574,-0.58250780900388444,-1.0159820674486535
1729143975.171523,0.15527938208704417,-0.39824619743973327,-0.96163492129829231
1729143975.179546,0.16638631982369592,-0.3406876431532655,-0.83963172070104897
1729143975.187559,0.18007436847981051,-0.37490145550750298,-0.7113029373833698
1729143975.195551,0.21404144639193218,-0.36031031284942783,-0.67346915304726918
1729143975.203544,0.25528050615084474,-0.26024510907097698,-0.69695625411423923
1729143975.211595,0.27768264666815107,-0.085269670209157905,-0.63144447326102138
1729143975.219547,0.32666905111061451,0.12273258798174519,-0.45059545931296519
1729143975.227494,0.39820420986083371,0.29627545493368967,-0.26950589546485504
1729143975.235449,0.43920969983438607,0.44020319585155626,-0.14488877985116275
1729143975.243423,0.46402583884924853,0.55848659501192854,-0.058412033792741527
1729143975.251478,0.51360926226732162,0.64988975745832944,0.029657669066583885
1729143975.259429,0.57890443645024514,0.70004906425008762,0.12357858171326519
1729143975.267477,0.63191646795751522,0.70332617445303458,0.18035681936273601
1729143975.275518,0.6909678507954472,0.69848139959141031,0.16674647506867094
1729143975.283554,0.77045760185952672,0.70153419553490415,0.10302771547143677
1729143975.291554,0.88668755239336161,0.68293275015082289,0.01222373712253538
1729143975.299569,1.0436919853133788,0.6168578649917722,-0.10419655382953105
1729143975.307631,1.1921701279017984,0.53315401253502137,-0.21789480473136016
1729143975.315562,1.3074369522347649,0.46526556351029658,-0.36465357161220247
1729143975.323528,1.3895805937091368,0.41899852329645532,-0.54657349029308588
1729143975.331485,1.4203492609201616,0.38698139855353025,-0.72617714667358202
1729143975.339802,1.375595487119665,0.35053067621856293,-0.8845964578158616
1729143975.347458,1.2821227282205589,0.30524728943717083,-0.98603339542315971
1729143975.355464,1.153033227340357,0.23572109625286339,-1.0183743238695824
1729143975.363445,1.0044892865480763,0.14292257296683514,-1.0098961819116732
1729143975.371551,0.88130771715574541,0.040204707203663696,-1.0058735218905825
1729143975.379574,0.80590886030522979,-0.066123468707752486,-0.97174601629900681
1729143975.387563,0.76982188251635408,-0.14801220186673855,-0.88401048323306042
1729143975.395523,0.71603009620264535,-0.19757113182359221,-0.73622743465672857
1729143975.403551,0.63416213225409335,-0.22964778513574557,-0.55050027149758618
1729143975.411519,0.5326814763251323,-0.25634335319862311,-0.34115525946583347
1729143975.419521,0.4302883017752076,-0.28321579060363145,-0.10912573688127401
1729143975.427528,0.34522659863410998,-0.32466781170362735,0.13566311191204555
1729143975.435521,0.25779307649444771,-0.3852969895264356,0.38789471139989007
1729143975.443482,0.17510896884684618,-0.44125623904737399,0.59946881478947422
1729143975.451511,0.11762323812123762,-0.47355471857555093,0.79941912236396317
1729143975.459799,0.088027235392685865,-0.49165673610807098,0.98068867575918905
1729143975.46752,0.037278653992247363,-0.50847760748805149,1.0656117643544509
1729143975.475593,-0.081501182601387306,-0.4755754341083745,1.1023050004526298
1729143975.483586,-0.22726484531342361,-0.36814197741938981,1.1700826237187056
1729143975.49187,-0.38581328320480468,-0.19683369797902911,1.2448044025953138
1729143975.499574,-0.54160317969797278,-0.00082260685462776095,1.2623933059877084
1729143975.507614,-0.67211215294107052,0.19149265360659959,1.1501350652913491
1729143975.515567,-0.80128749923164189,0.34838659087588408,0.8818544118634547
1729143975.523851,-0.90880385633905791,0.42783664611701466,0.57061742811062088
1729143975.531511,-0.97671919109520378,0.46954701840122459,0.31023085722598909
1729143975.539497,-1.0115087310884228,0.50478980324683931,0.11100421848754487
1729143975.547439,-0.99215474427619221,0.53870617599806914,-0.070256823667516247
1729143975.555503,-0.93158799512072021,0.55735323940295878,-0.31651133881278914
1729143975.563437,-0.87864603323041779,0.55938914112445892,-0.574943463880081
1729143975.571489,-0.83879274492845779,0.55507671135835268,-0.77214605500519728
1729143975.579486,-0.80572843562584806,0.54461398736164135,-0.90174839630901094
1729143975.587598,-0.80568443790226674,0.54472170388554497,-0.93651510488363388
1729143975.595548,-0.84162884946165972,0.59246362068363467,-0.867128836998457
1729143975.608714,-0.87085791750361197,0.64814008966532743,-0.76994452324655582
1729143975.611587,-0.90116606017264433,0.63216592392474746,-0.72121196137831078
1729143975.619579,-0.95340615069102619,0.59171889502440222,-0.69686785996417711
1729143975.627771,-1.0149741993658594,0.5674506776841951,-0.5996775271920628
1729143975.635532,-1.0670270257526617,0.47818114149348423,-0.36938454269813337
1729143975.643812,-1.0927247507857367,0.34075847767103751,-0.11307975994606197
1729143975.651484,-1.0772808563495844,0.23638184121227487,0.077312454990915588
1729143975.659481,-1.0301281042177721,0.15757963700146008,0.23496817022222935
1729143975.667499,-0.96075736200759865,0.060066887222451487,0.42449048306705067
1729143975.675579,-0.86017684316900334,-0.069956692970574996,0.65335303239942299
1729143975.683586,-0.75576961050452574,-0.20480046429157212,0.83132396286847032
1729143975.691611,-0.65779299580449058,-0.36062817790148793,0.90213571095635714
1729143975.699658,-0.56261052672946588,-0.52415082117794165,0.9060978092467753
1729143975.707639,-0.46378341926117189,-0.69548309771528327,0.88016667913380109
1729143975.715996,-0.36851634458665383,-0.93492897336700043,0.83821521725537074
1729143975.723506,-0.30199091842977832,-1.1928942802605862,0.80367915877614782
1729143975.731504,-0.26377842298150111,-1.418976549691628,0.743581193003376
1729143975.73949,-0.23914816546668666,-1.6031545783569245,0.64303036922821533
1729143975.747516,-0.20095705757738627,-1.6576831524738453,0.47968288008930715
1729143975.755482,-0.14611563823415366,-1.4428615262038265,0.26077840915074524
1729143975.763528,-0.095544649077539789,-1.0670683147938367,0.091123621056025297
1729143975.771593,-0.05690109938506184,-0.75964705111640185,0.015936377040570306
1729143975.779545,-0.032225054354457959,-0.54880150909929504,-0.006614396111215017
1729143975.78757,-0.0091184711375860185,-0.40356382118470152,-0.031425646631030042
1729143975.795545,0.093714701638101763,-0.36048012979726574,-0.1182540173300024
1729143975.803558,0.26268850079194639,-0.36698235963591863,-0.2576175023491023
1729143975.811563,0.39110409918709216,-0.20039482792356672,-0.37997338895360711
1729143975.819524,0.45751120668762879,0.081965882440324989,-0.44998140042461376
1729143975.827502,0.48990589511236526,0.26372732044105895,-0.4709145492648471
1729143975.835508,0.52402901528764723,0.36405753698152765,-0.46900097647927808
1729143975.843446,0.56557454543518704,0.45086129574718586,-0.4412472039665597
1729143975.851796,0.61412766193485357,0.53316754537038502,-0.35158909491819024
1729143975.85951,0.65964859920094177,0.59638622214182058,-0.23692055070009807
1729143975.867471,0.69526211775910429,0.63282751298956463,-0.16790657913851176
1729143975.875506,0.72663394533835957,0.67640248063277486,-0.11798439497231931
1729143975.883731,0.75588644839173247,0.73979534159662874,-0.059297005323916727
1729143975.89157,0.80621608495633268,0.83657628665670136,0.0023082122757707782
1729143975.899799,0.87600304261106177,0.93955515517698929,0.053106269833099309
1729143975.907556,0.9670424193027638,0.96026338535807598,0.054425335157347259
1729143975.915975,1.0774314433693113,0.90500360369426502,-0.024174422110772871
1729143975.92351,1.1666521211281893,0.82757596830392699,-0.1447658120738454
1729143975.931495,1.2020927001713797,0.72620536914112221,-0.26799060839640171
1729143975.939464,1.1865348572808283,0.6360103954025591,-0.37874767650640118
1729143975.947642,1.1256916541095916,0.58359617140526954,-0.4596753794621099
1729143975.955458,1.0176698018812285,0.48786843772612892,-0.51227605681942445
1729143975.963436,0.90645647384484906,0.35061491099451364,-0.53979240764992387
1729143975.971537,0.84228261739179355,0.23335620991565786,-0.54970402219556203
1729143975.97956,0.82931970720768211,0.130435699566499,-0.53713347324934657
1729143975.987538,0.83622826821765539,-0.0017683118149625296,-0.4553082281564928
1729143975.995517,0.79120620272477471,-0.18006365793376183,-0.28701986389141171
1729143976.003581,0.68693021727368753,-0.34429617887168462,-0.097290467517529455
1729143976.011532,0.56114965187592358,-0.46007613892365057,0.13510185242397571
1729143976.01952,0.43736549066132457,-0.53465239569237455,0.41160944417965301
1729143976.02749,0.3384049703677674,-0.60174687798036564,0.70585955276386181
1729143976.035709,0.25816984517999353,-0.70819837191050616,1.0122450866603068
1729143976.043475,0.19044702724007576,-0.82719613122792346,1.2620583665247889
1729143976.051441,0.11852511695866577,-0.86922217257749379,1.4404675685614339
1729143976.059427,0.054938847839642264,-0.80653279969532632,1.5536855956746205
1729143976.067617,0.042967025148143108,-0.6771829677209581,1.5956493181933484
1729143976.075485,0.071754741726785282,-0.59957306853633718,1.5318583288590206
1729143976.083507,0.083280555844233162,-0.58067698302059667,1.4026989071362803
1729143976.091584,0.036133406509023872,-0.37032922797765261,1.3413794764381932
1729143976.099541,-0.048133126174358859,0.011293461925332801,1.3635458915318324
1729143976.107567,-0.16722914567977559,0.31433714656151757,1.3219317226594138
1729143976.115585,-0.31701372869203948,0.47977428997694016,1.1558469659612991
1729143976.123522,-0.46648108710408215,0.58457054682520015,0.90975873079949143
1729143976.131522,-0.61575811075599218,0.66107038290094122,0.60736745236095846
1729143976.139533,-0.75193738667723076,0.6833444861352429,0.3173817196250206
1729143976.147488,-0.86535886180889521,0.67691436021783957,0.046332945970114656
1729143976.155492,-0.94128701302494133,0.66730946883766018,-0.21420503235909616
1729143976.163511,-0.97024199135754996,0.64473177658180214,-0.4590713521407252
1729143976.171544,-0.96313779982304826,0.58584916968258094,-0.65962809175391857
1729143976.179558,-0.93950638710582479,0.50773775436611412,-0.77570523490721444
1729143976.187575,-0.902340276156541,0.43681941670362934,-0.83258081895533098
1729143976.19556,-0.87003689314261301,0.38426469766178062,-0.85265839735595383
1729143976.203553,-0.88534860334341181,0.3695466236644217,-0.82256162831158641
1729143976.211573,-0.91411737229114454,0.38817278823030738,-0.74554549337247455
1729143976.219659,-0.92371621255346748,0.40360538758445907,-0.67868984442809888
1729143976.227548,-0.95629399058296927,0.43585221051589984,-0.62623144327907454
1729143976.235486,-1.0079802570410537,0.51798958834041386,-0.5541030017200359
1729143976.243499,-1.0549553942207306,0.61090524633498056,-0.41313006767907656
1729143976.251548,-1.0931441929728944,0.58705059963832062,-0.15507760720872305
1729143976.259516,-1.1147804020398067,0.4507776090114527,0.14363710984765576
1729143976.267491,-1.0966867529932256,0.3179310072598881,0.40034153126757277
1729143976.275524,-1.0394303468659158,0.20267792607686974,0.59586896511207099
1729143976.283555,-0.95739921630578217,0.083294650114539015,0.75192322101181497
1729143976.291751,-0.84326280359674222,-0.060702625911404816,0.89004038597444346
1729143976.299666,-0.72476237374952956,-0.2196811470062475,0.96801524924520732
1729143976.307552,-0.61854268577058436,-0.3978649766175183,0.95137234804982285
1729143976.315624,-0.52565110377306801,-0.56543610814262024,0.89179371517226547
1729143976.323647,-0.44394906082537433,-0.71344322891069789,0.83625194758774657
1729143976.331536,-0.36598091087733997,-0.89228094937076419,0.69160893596471407
1729143976.339588,-0.30153388335784509,-1.0768463278021627,0.45455453729479733
1729143976.347496,-0.24945642991009415,-1.2429252628510659,0.18184789425473466
1729143976.355461,-0.20309796065954144,-1.3942939663480449,-0.081813256012880378
1729143976.363476,-0.15272130585172214,-1.5089538318881059,-0.30620475073079528
1729143976.371865,-0.10929892106170759,-1.4251398641780042,-0.49426375027502922
1729143976.379516,-0.089417996078898318,-1.1454045404239079,-0.6237010623985888
1729143976.387557,-0.082597721826757134,-0.89902352983170553,-0.70923871580977216
1729143976.396029,-0.083613838013016806,-0.75907018961343153,-0.771842094485226
1729143976.403853,-0.029522334826901545,-0.68382483174243891,-0.79109944904763085
1729143976.411545,0.1268083749702188,-0.5475799438669684,-0.72475258053752212
1729143976.419549,0.27190245325466578,-0.28321197477447468,-0.63322311696381994
1729143976.427555,0.3246908502776405,0.077824430906217601,-0.60852943318340291
1729143976.435521,0.34487025683195049,0.39171645335870714,-0.60669676978974463
1729143976.443523,0.41125338360094543,0.5774975264614286,-0.4874681796978359
1729143976.451448,0.53366713158597656,0.71237912370347334,-0.23990818522814061
1729143976.459442,0.6477687812466193,0.80799438916914024,-0.0032543458236829192
1729143976.467502,0.70494898441426113,0.82236885224087519,0.12256173548343449
1729143976.4755,0.71733406814955147,0.77586666712458296,0.15569522315223278
1729143976.483571,0.72348804820633972,0.74136716010214621,0.16025047354087862
1729143976.491552,0.76144848618810612,0.80048434241281508,0.17511579052573401
1729143976.499542,0.83296626101456861,0.93812026655010394,0.20915069434290712
1729143976.507532,0.92930102862393105,1.0394321837368068,0.24255518350780295
1729143976.515552,1.0273295999977106,1.0676540443469831,0.24365466927168006
1729143976.524096,1.1074312458950799,1.0381869440137272,0.16769014966684065
1729143976.531689,1.1695400054617484,0.94728799324230439,0.0035567557867611649
1729143976.53949,1.199355685126164,0.83017218374453217,-0.18197689811027198
1729143976.547467,1.1799972125468856,0.74564208098689067,-0.3439542077624736
1729143976.555953,1.1166607865316815,0.69109280877914747,-0.48647658509950098
1729143976.56349,1.0452422610977898,0.58684731512888033,-0.62967101482982268
1729143976.571642,1.0158003827735089,0.35381114932317631,-0.75432546826106051
1729143976.579691,1.0196326038827728,0.097988908091350274,-0.8352906462110028
1729143976.587775,1.0034144188747327,-0.016340950993238408,-0.9015358905316424
1729143976.595661,0.96260813338318041,-0.0253422578393072,-0.9419215722162193
1729143976.603583,0.87278093765382714,-0.089275425397977809,-0.90740775274520491
1729143976.6116,0.72374289147945103,-0.27407270707611908,-0.78070263575855048
1729143976.619611,0.57025370952478971,-0.47243038371345131,-0.62677828431900617
1729143976.62755,0.4411251650047962,-0.58165411828222391,-0.49057759712469018
1729143976.635472,0.33555249423630595,-0.62483963079673077,-0.36032851780142899
1729143976.643517,0.24666748808748992,-0.66820423082537816,-0.18959148183948044
1729143976.651531,0.16949784095632656,-0.75956641527698854,0.027148521240244222
1729143976.659524,0.10957397071084352,-0.87291610939898412,0.21721482175422546
1729143976.667509,0.062551706965540868,-0.93986170071852637,0.37403645323954843
1729143976.675733,0.038382404302248582,-0.94065272482501383,0.51750947926033786
1729143976.683552,0.062192928235856058,-0.87876374528471857,0.60870157561035587
1729143976.691611,0.066262681120931782,-0.78224659398658791,0.62531757291951484
1729143976.699567,0.011236374554602952,-0.67048651043276264,0.63847984676597547
1729143976.707894,-0.062645655285549384,-0.39633224539918915,0.74513730533304312
1729143976.715609,-0.15082094952023004,-0.019420345709491263,0.90959463497832316
1729143976.723501,-0.26736679024961219,0.24376182945152425,0.99954238650551963
1729143976.731516,-0.44456819017567339,0.44275022547921955,0.92431410376811085
1729143976.73952,-0.63751695763883354,0.61471598568639763,0.74763890513389786
1729143976.747464,-0.78925702831027134,0.7187468219336286,0.55160033795415031
1729143976.755523,-0.90243695390915957,0.75796521533228645,0.37629619431819661
1729143976.763461,-0.97481465491384389,0.73637310485650576,0.25664024604691521
1729143976.77159,-0.98525029575334711,0.66637537033512506,0.089704948347382352
1729143976.781978,-0.95128396944888693,0.58904445452094811,-0.14433575460214632
1729143976.787549,-0.89876457402582743,0.53008804821931199,-0.36776973835695964
1729143976.795554,-0.83873170265403574,0.49897110505295056,-0.5397165440799685
1729143976.803534,-0.79632662890903005,0.51989011486910264,-0.64182040236011872
1729143976.811537,-0.76896797938544759,0.60651159145318756,-0.68626795990045852
1729143976.819547,-0.74254907322694041,0.70020210342691747,-0.69803734227349135
1729143976.82758,-0.72052522364063665,0.71406024949568336,-0.70829164715827631
1729143976.835533,-0.71433479990297788,0.66873818939272689,-0.71231577978183713
1729143976.843509,-0.72190133228912645,0.62196321050369963,-0.65534649578202009
1729143976.851471,-0.74070186877979372,0.56984673469767833,-0.5230433662151317
1729143976.859529,-0.78050342479215018,0.49515646294493842,-0.31063334426811373
1729143976.867511,-0.80736418882979821,0.40990174405440138,-0.05441608750763844
1729143976.875911,-0.79219242773492771,0.32660931307969582,0.16699898632110977
1729143976.883565,-0.74286166026984346,0.21001335987606451,0.42329814844234781
1729143976.891568,-0.67473824922847903,0.065985717259492246,0.71074432501416862
1729143976.900367,-0.60236313805547015,-0.095139474097037657,0.93195354299466371
1729143976.907566,-0.51168647452937921,-0.27801682635701697,1.0531854421234859
1729143976.915636,-0.41237017492948036,-0.44670131122549595,1.0788858298092248
1729143976.923566,-0.31659673994526832,-0.60005903467568222,1.0151277109887302
1729143976.931586,-0.23508119048213633,-0.73506836495345917,0.90386699415569494
1729143976.939599,-0.17510391920624435,-0.8584301242355975,0.7953929380325947
1729143976.947836,-0.12060003876711076,-1.0288659787260306,0.64219066163609406
1729143976.955503,-0.070657263014418326,-1.2315903459253299,0.44171833012537565
1729143976.963489,-0.021961234858473476,-1.4289977971851511,0.22012069659098105
1729143976.971606,0.028115195046732981,-1.6100187069759624,0.010112215345716567
1729143976.980077,0.067313389311290536,-1.6881944134559139,-0.13973151684331589
1729143976.987577,0.080402899364205291,-1.4996932333553814,-0.25901037039761554
1729143976.995538,0.076762973736479279,-1.1618281728431092,-0.38442747530514232
1729143977.003574,0.082028594435429231,-0.93910170364703038,-0.5256596977762733
1729143977.012958,0.1011513441596254,-0.83334852115514635,-0.64083587065348713
1729143977.019592,0.18882351499584674,-0.74882495361764523,-0.65566609154340649
1729143977.027575,0.32613913972852382,-0.56742396422630081,-0.6122043465175282
1729143977.035584,0.4057615291686269,-0.27149258857893138,-0.58740436968638721
1729143977.043524,0.41777699766987808,0.056334828505587464,-0.56507480751211703
1729143977.051493,0.4245605887091668,0.31028659202294206,-0.5086823739998898
1729143977.059484,0.46970983426382606,0.47436412682356066,-0.39758416773719474
1729143977.06748,0.53106743154431513,0.60069334672969488,-0.26451759439150074
1729143977.075526,0.56958475015845678,0.67414958333533426,-0.16147754203440365
1729143977.083572,0.58247857985185292,0.69481037191830608,-0.086244273684091405
1729143977.091581,0.59553600343616597,0.69656459353153832,-0.027695075737850058
1729143977.100037,0.65381472987000455,0.72805396589401294,0.021482215058141796
1729143977.107595,0.77775118857587233,0.82442318049758745,0.042049098245034243
1729143977.115567,0.91617941804942871,0.9631258209375182,0.027145064223599687
1729143977.123564,1.0401026016339174,1.0846595107330597,-0.0088286750921000544
1729143977.132276,1.1485117167015733,1.1428934174899443,-0.057657082615089922
1729143977.13951,1.2307976332313793,1.1410115712276094,-0.12377631744534956
1729143977.147454,1.2746352123502562,1.0736876589128626,-0.2409234495295951
1729143977.155452,1.2715651455807024,0.95581772033792456,-0.38741024978184613
1729143977.163501,1.2052310612074721,0.84614511656918601,-0.51914840626378589
1729143977.171487,1.0905091597662164,0.75118178509779376,-0.61223907218119678
1729143977.179536,0.94824448329926259,0.6154511248444825,-0.65979251553313378
1729143977.187579,0.8143570104124187,0.42546176301967764,-0.68087500546871049
1729143977.19557,0.74573100337051823,0.25399998762742049,-0.68650061341593283
1729143977.20358,0.73265094320187218,0.10919245133805607,-0.66092905400484825
1729143977.211556,0.72948549777676674,-0.031541863210509571,-0.60301711221199428
1729143977.219661,0.680121788668687,-0.19601218349451088,-0.50995040871598352
1729143977.227484,0.56898391643386015,-0.38494066869486238,-0.35641451751284081
1729143977.235489,0.44206604939608651,-0.53022451442472562,-0.17702652019123874
1729143977.24345,0.33675555996327322,-0.61867189204702966,0.027876457245796717
1729143977.251504,0.25505174862998681,-0.68770369592523828,0.25000402802867133
1729143977.259437,0.19708997053931238,-0.76892479899886346,0.44649554462550778
1729143977.267464,0.14954220184104672,-0.84256032943856729,0.60674661569908184
1729143977.275509,0.10973275399334352,-0.8677984399673293,0.71758356546366642
1729143977.283836,0.11096279891098146,-0.8231318526491711,0.79536652195116098
1729143977.292606,0.14086059507171339,-0.75376289411207287,0.83650232504465127
1729143977.299805,0.078556696182559574,-0.72150670034197872,0.77583294957760807
1729143977.307614,-0.10249603889436837,-0.49973735985472623,0.63492441420845336
1729143977.315662,-0.2834949903890705,-0.055496320633629609,0.53420307065140338
1729143977.323605,-0.44317716866133561,0.35471869864246408,0.46163809776550557
1729143977.331509,-0.59347480349183468,0.63192308469484859,0.34530611352395935
1729143977.339918,-0.72132695482952403,0.78802915485119063,0.13886041324971954
1729143977.348364,-0.86295598000509743,0.88169279694499569,-0.13272145824214931
1729143977.355498,-0.99944189254734728,0.92959002600276908,-0.35803417514145824
1729143977.363459,-1.0764380043658837,0.92193186318242937,-0.50258698663320833
1729143977.371566,-1.1041181537834073,0.84113844448852193,-0.59123427880483748
1729143977.379562,-1.0975261350842407,0.63536991556195688,-0.63676023300149853
1729143977.38753,-1.055471663363889,0.34525113914363242,-0.65471062416733039
1729143977.395511,-1.0070388719819972,0.11669154542549773,-0.66037257812928507
1729143977.403769,-0.96605987543192506,0.0067999531281869446,-0.63375860117338467
1729143977.411535,-0.94019540731749573,-0.012734785550838082,-0.57883957437606859
1729143977.419498,-0.93319052767807875,0.041952020829823834,-0.50693751767390305
1729143977.427433,-0.92004810860372599,0.13329648810925032,-0.41228778621569784
1729143977.435495,-0.91599386771227276,0.18427195792374793,-0.31739868683992289
1729143977.443435,-0.9701781013518509,0.20868473392124703,-0.18703369161225747
1729143977.451428,-1.0567512793412757,0.26781701094252885,-0.008777530032080802
1729143977.459448,-1.1346622798841146,0.39524543043109672,0.19374358571425127
1729143977.4675,-1.1854529357937074,0.48213188863005718,0.39464745162471943
1729143977.475487,-1.1974098116658647,0.43890918978193838,0.55435325682550718
1729143977.483568,-1.1613763959507626,0.2978264088475876,0.69061729578487285
1729143977.491539,-1.0761156823331275,0.13484976897796327,0.80451531880087557
1729143977.499526,-0.96238281512762802,0.0032214251699571941,0.89711846611381307
1729143977.50755,-0.84263459736742252,-0.15365686236239823,0.97204925229809802
1729143977.515541,-0.74013598228603295,-0.33419891735860385,1.0091324578716214
1729143977.523496,-0.63989901764415436,-0.50808041982148011,0.95858938070572808
1729143977.531471,-0.53825205786647912,-0.66051229824441549,0.82865206002407654
1729143977.539495,-0.43873893143756004,-0.80731113328824078,0.67704528698215427
1729143977.547435,-0.35242542673883165,-0.96711920967088827,0.52563323442939236
1729143977.555507,-0.29169783262889193,-1.148780602885076,0.33496168348488886
1729143977.563459,-0.23355108302836453,-1.3212052579714317,0.10391967607759013
1729143977.571468,-0.1684390389042438,-1.4082709836569567,-0.082595660281267677
1729143977.579686,-0.08893125659087836,-1.410704681877214,-0.22238756112234542
1729143977.587682,-0.010151212716130811,-1.3957758334430803,-0.34095644163614769
1729143977.595831,0.042012249315531082,-1.4244920948219897,-0.4474300450457776
1729143977.60357,0.062029539905784373,-1.382550933106113,-0.53919690611731863
1729143977.611648,0.065526113030695721,-1.2175470508863095,-0.58787167183831279
1729143977.619558,0.12445368011082375,-1.070228899578487,-0.55386155714379759
1729143977.627504,0.24452254258984485,-0.96544894142750515,-0.46704783873901157
1729143977.635451,0.35466312057810934,-0.65908625138063404,-0.37196491148847477
1729143977.643439,0.40606116025062799,-0.17366722880666197,-0.28256271046703824
1729143977.651513,0.4071016797517969,0.19484693089308003,-0.21615068801031539
1729143977.659444,0.43199032495583412,0.43000319874117227,-0.15608319661683517
1729143977.667477,0.49758062939223813,0.59876681344505966,-0.099183888769107525
1729143977.67593,0.5609863005266853,0.71918103503318354,-0.045249716202486454
1729143977.683576,0.59690125290004348,0.77674326086561774,-0.020125943707368352
1729143977.691567,0.60929788800262474,0.78275936224712217,-0.036978434819949862
1729143977.699565,0.62205699483244881,0.79190299387503116,-0.052198210225043146
1729143977.708019,0.65355110237221714,0.82080212623218829,-0.045792388224734963
1729143977.71555,0.73055426028564541,0.88369044222292015,-0.040884669870894973
1729143977.723503,0.85040053566663387,1.0091155844785376,-0.048156600333679737
1729143977.731468,0.97126265796336053,1.1578022054341086,-0.062310630024977325
1729143977.739761,1.0784736713505523,1.2431829674542927,-0.10656101300256653
1729143977.747442,1.1613177970564657,1.2403487868607255,-0.17717016415044032
1729143977.75544,1.1946352051137255,1.1471249152902483,-0.27232122246045654
1729143977.763449,1.1722694888326091,1.0037112847175145,-0.39773511231112235
1729143977.771478,1.1205379535323563,0.88382074648764253,-0.50618727101556038
1729143977.779713,1.0518254619128151,0.76101646120500654,-0.59488436464936589
1729143977.787583,0.97313724153243142,0.606452778357639,-0.68705326145342505
1729143977.795541,0.89697738512478309,0.41793430482026139,-0.78556214077425668
1729143977.803651,0.82233454710077591,0.20542459134645047,-0.87042171708520866
1729143977.811651,0.75541296109034595,0.020876295026251674,-0.90899245108938098
1729143977.819642,0.68737731045832495,-0.13774281468034616,-0.87445388816377911
1729143977.828222,0.61377778534653582,-0.27888880714220426,-0.79264422658861633
1729143977.83547,0.52194078339571492,-0.40976377428794952,-0.69928666325146738
1729143977.843443,0.4021336928829935,-0.53788164673572336,-0.55728273283384766
1729143977.851497,0.28214646163015111,-0.64178368910722661,-0.37076613995531221
1729143977.859511,0.17269339746978693,-0.73647735920124302,-0.13987581204955318
1729143977.867475,0.081480155285846512,-0.81330099414636847,0.08677622741654277
1729143977.875568,0.016322803469662493,-0.83683360185595601,0.24894738987611528
1729143977.883584,-0.015960566636655418,-0.82541176279398654,0.39307599411268224
1729143977.891671,-0.011279100227841378,-0.81132192831195038,0.52510199323105977
1729143977.899621,0.0353758559480363,-0.81457450431293466,0.64113978301855201
1729143977.907583,0.10317085040026286,-0.83440503249493037,0.7284285944417217
1729143977.915619,0.095744870126389242,-0.86141534658603003,0.75057788693181915
1729143977.923505,-0.0057680520512781511,-0.75885400789278301,0.68937170167002226
1729143977.931458,-0.10158239039776518,-0.43700773209280241,0.59326422693899072
1729143977.939499,-0.15247279745299591,0.0034259590966262965,0.53943095265353014
1729143977.948118,-0.2040786997285049,0.37155454880701921,0.50351262255982643
1729143977.955501,-0.32762982946180214,0.57795824054354583,0.40469887834824547
1729143977.963467,-0.52052803444968732,0.72053081828979126,0.2489918329001467
1729143977.971591,-0.69714063623148892,0.82757171304137112,0.10980592402411907
1729143977.98388,-0.82056148982051313,0.87923839307918916,0.0047970305946699043
1729143977.987566,-0.88780296099053524,0.87426759090833817,-0.073745992706363742
1729143977.995582,-0.88685590773073142,0.79274529326608278,-0.13193974828499674
1729143978.003585,-0.83924892398329465,0.67487012472388042,-0.19473870065793963
1729143978.011655,-0.7872717803544208,0.60393217856782799,-0.27349716301279137
1729143978.019587,-0.75885247957659963,0.63373672132274195,-0.35523313540412704
1729143978.027489,-0.75265599567718877,0.74356850025148913,-0.40959584460720377
1729143978.035463,-0.73425179821710218,0.86097606504564328,-0.41156378570378355
1729143978.043511,-0.71214133814303748,0.92695085827678436,-0.39465272274959506
1729143978.051435,-0.69546954160690233,0.93844019015897495,-0.38429323994635101
1729143978.059418,-0.66929024134966419,0.913194189647906,-0.35062054130010345
1729143978.067463,-0.65741387174847943,0.84717662699655183,-0.27699281939886999
1729143978.075517,-0.681150579443766,0.75371629663079232,-0.13575885224478673
1729143978.08354,-0.69560544909166888,0.62910399851594945,0.070090350533611206
1729143978.09152,-0.67001032093271706,0.48558767472092568,0.27852503946232526
1729143978.099611,-0.60612457703067446,0.30689029207591956,0.50000465174070385
1729143978.107628,-0.52139291399008736,0.11942928590332291,0.7173918963079442
1729143978.116002,-0.43202896560342124,-0.049238405913223239,0.89273454453253276
1729143978.1235,-0.31732407275162,-0.23408711808044011,1.0202888616940426
1729143978.131509,-0.1916715138353581,-0.40289019373960655,1.0821351448705085
1729143978.139525,-0.072221057124280674,-0.54035569435937914,1.0858262449516185
1729143978.147509,0.023713550405701576,-0.65859295989405331,1.0571783755442872
1729143978.15547,0.087021130753428363,-0.76614466450059249,0.99614357756929917
1729143978.163518,0.15310122301855852,-0.89367781636089672,0.86310389986315617
1729143978.171575,0.22254758267997882,-1.0374567371880803,0.68473284401101009
1729143978.179622,0.27656041025922995,-1.1850234585349229,0.4976804789448605
1729143978.188856,0.31705621797455918,-1.3114499068131491,0.33585616774484406
1729143978.195624,0.33326559143597811,-1.4077388987302628,0.22173397856635291
1729143978.203601,0.33873431489820915,-1.4795600659087778,0.10643475829843477
1729143978.211611,0.35691470112671886,-1.4775296197009116,-0.023405607620655626
1729143978.219943,0.38485053532230595,-1.3113564531596547,-0.15494677491632586
1729143978.227444,0.41140290725328499,-1.0799014792124015,-0.26473400474972525
1729143978.235447,0.43755089188696117,-0.94336979018209077,-0.33784307369461941
1729143978.243428,0.48133522672366097,-0.81270926472650173,-0.40022603273515434
1729143978.251497,0.54336379278849156,-0.64576941666904575,-0.45425772055649449
1729143978.259445,0.61399760225215938,-0.49814106598155566,-0.5064713211072831
1729143978.267468,0.67404402548103437,-0.35762986807069375,-0.56844916586302241
1729143978.275562,0.69474703720572617,-0.13923077996363664,-0.62798460094322284
1729143978.28357,0.68503296104451561,0.1342019984596472,-0.67200681818985264
1729143978.291594,0.67750175510194122,0.3833996778060238,-0.68501091160177641
1729143978.300164,0.67106742625981741,0.604008525678009,-0.65237281181003781
1729143978.307715,0.65613888735653025,0.77213179956401079,-0.60788708333946562
1729143978.315683,0.63441106217069698,0.91344631973450485,-0.6005645440536449
1729143978.323596,0.60924220030752907,1.0522976696424793,-0.61702983349379203
1729143978.331497,0.59392803815889739,1.1658324739510681,-0.6486192002924438
1729143978.339627,0.62305164640130128,1.1454098237521191,-0.74057866591237342
1729143978.347545,0.70927475627286163,1.0099189608394914,-0.86514182530264239
1729143978.355514,0.87275226332958111,0.88690681706863572,-0.94967059235043039
1729143978.363531,1.0700245518842664,0.78308838147304904,-1.0095401889005369
1729143978.372196,1.1911549104165804,0.69270177605920291,-1.1133595116337949
1729143978.379651,1.1948713355791201,0.63655420753431613,-1.1767153304274045
1729143978.387852,1.1306935410885668,0.60265282138865306,-1.1227797684277716
1729143978.395706,1.053661913831921,0.54655402453844459,-1.0184768108409086
1729143978.40354,0.97189781734585379,0.48394782224890137,-0.92609673198644848
1729143978.411543,0.85685739992759857,0.4325491738776594,-0.84555297104751259
1729143978.41955,0.67012984748239379,0.33317388495952716,-0.66228296500068706
1729143978.42758,0.47210392359994041,0.18968776950062752,-0.39843400415406732
1729143978.435599,0.31008082803207221,0.055280278249347163,-0.13732047780301485
1729143978.443511,0.18753841203436042,-0.056439590988149359,0.10533703042294702
1729143978.451488,0.10081657053041038,-0.15752671744760982,0.34884024949479142
1729143978.45945,0.0089814448813403981,-0.26266360474606837,0.60732435716387445
1729143978.467512,-0.093584072361118112,-0.35490550633529266,0.81945729000123646
1729143978.475503,-0.20003368419083756,-0.42727824974730849,0.96951146799187238
1729143978.483542,-0.29795865620563172,-0.47453310634767631,1.075294507060349
1729143978.492559,-0.36842011610471409,-0.5020346401849729,1.1611130587281917
1729143978.499565,-0.38515558835644159,-0.56238163681794007,1.2215436810196001
1729143978.507545,-0.37753073415680383,-0.67351128561503792,1.1888402644375959
1729143978.515555,-0.44362037183971842,-0.71081646065241644,0.974890701430976
1729143978.523685,-0.5503203391297371,-0.53780782746377109,0.70817169365184363
1729143978.53154,-0.65988915608018572,-0.074720235676629193,0.54728890886144033
1729143978.539534,-0.79629499645315216,0.47344550842404598,0.38350020827619724
1729143978.54747,-0.92879561799091381,0.85576905759793598,0.15624289930205587
1729143978.555543,-1.039371365400299,1.114110111281688,-0.13782965385411167
1729143978.563498,-1.1035883635386199,1.2680505183382844,-0.44134166909422862
1729143978.571604,-1.108489047566112,1.2699556245115604,-0.66729495456888799
1729143978.579541,-1.0667320015290942,1.1267897573798973,-0.78818061873324363
1729143978.587626,-0.99527755720752187,0.92041994970714458,-0.82495405206904637
1729143978.595747,-0.932823147787325,0.64547809328447159,-0.85425484311538247
1729143978.603565,-0.8936477418893588,0.3532316510537204,-0.86268298142175048
1729143978.611573,-0.8656727527052277,0.1776709406845387,-0.76408433443956658
1729143978.619564,-0.84654646385670795,0.16300649755444241,-0.57338691725848845
1729143978.627574,-0.83783767594709924,0.26467440262578185,-0.39277366239249567
1729143978.635567,-0.83048395289402377,0.42017833931315651,-0.25120188467886156
1729143978.64367,-0.82309188863194438,0.56988463446930049,-0.15348811620682012
1729143978.651567,-0.85271185499165925,0.69674344691018375,-0.065700085913446116
1729143978.659484,-0.94455390550188179,0.85906097182077501,0.054231761973579283
1729143978.667519,-1.0430795220771425,1.0222206012630135,0.16748280666761159
1729143978.675786,-1.0881471199940518,1.1169237034673916,0.25756931668005661
1729143978.684273,-1.0885820499028203,1.1086149853863274,0.35099755337276151
1729143978.691625,-1.0594703936072014,0.90930224148027161,0.48261448129789508
1729143978.699548,-0.99411326791535148,0.59730268735579983,0.63522901868590664
1729143978.70781,-0.91105291616965223,0.35284764161447346,0.74510241376158104
1729143978.71563,-0.81992476916041557,0.1369999791820975,0.82933112344985305
1729143978.723515,-0.72353025493159451,-0.06806860418683866,0.9264814109929087
1729143978.731497,-0.61844194957201637,-0.22559064918662491,1.0441553470926954
1729143978.739499,-0.51324565027152835,-0.3667169379165891,1.1396625773480962
1729143978.74744,-0.44033699927760883,-0.49225895705492273,1.173553962120925
1729143978.755426,-0.39446335837394697,-0.58950720670321743,1.1445087458550267
1729143978.76342,-0.3516143316191167,-0.66445806888921355,1.0589712062615626
1729143978.771538,-0.29419100598729719,-0.74497370633289095,0.88313433952783982
1729143978.784602,-0.24015526778095203,-0.79945559469029681,0.62182965699250259
1729143978.787828,-0.20517968448837276,-0.80702901407848038,0.37267210413403951
1729143978.795888,-0.17610622334504658,-0.86414578830195132,0.14825612160164414
1729143978.803902,-0.14865843021469316,-0.98738507568159861,-0.053652497628794121
1729143978.811727,-0.13346682452086717,-1.1168812011301821,-0.21417399985229502
1729143978.819725,-0.13158859214942614,-1.2052211279358829,-0.35028892193309547
1729143978.827536,-0.12705613223486525,-1.2663131951870821,-0.47197274095900676
1729143978.835498,-0.070061173449719683,-1.3998129245204138,-0.54051328672920218
1729143978.843476,0.042037083068919436,-1.5650507744128193,-0.50160788263645739
1729143978.851467,0.18421748779742045,-1.4479429331255504,-0.38078161610600536
1729143978.859551,0.32486543862458517,-0.91474028651322969,-0.25635166868936632
1729143978.867504,0.42543043145644122,-0.31982291884136482,-0.14657427016876523
1729143978.875561,0.53706507956172966,0.13524906092875238,-0.010256125884438382
1729143978.883581,0.66087549163008386,0.48789629028422266,0.15858837825514319
1729143978.891582,0.7853931661236162,0.73843526852128072,0.3399248122937541
1729143978.899718,0.89671311610547044,0.94473689854577259,0.46532858511393982
1729143978.907581,0.94839308891268082,1.1208777541202977,0.49289356192230371
1729143978.915638,0.94321741737273412,1.2640229928736715,0.41301374908617194
1729143978.923535,0.91946604646785768,1.3882222416572787,0.2750524133852732
1729143978.931464,0.93224654282777086,1.4831749138776202,0.1554534216482682
1729143978.939526,0.9990857591869412,1.481614133758796,0.044743385982289302
1729143978.947847,1.0821839852101085,1.3857487819814684,-0.047011194074288901
1729143978.955549,1.1428980173912908,1.2101005788593582,-0.13058517622619192
1729143978.963474,1.1746438460239177,0.98147438419283384,-0.22734262724742621
1729143978.971571,1.1819848665132882,0.74894409362542413,-0.34818638192581641
1729143978.979968,1.1851124086225242,0.57196519387631972,-0.49795538088820934
1729143978.987588,1.1910329894719551,0.50536702974282588,-0.65316020470006686
1729143978.995639,1.1724494547855882,0.48264857875194178,-0.81120083336014115
1729143979.003613,1.1217101582577989,0.44837154017650288,-0.94859421670238897
1729143979.011549,1.0565728403319699,0.36395180781193476,-1.0569973404569217
1729143979.01964,0.99727017165702581,0.2505106843275442,-1.1518375190119834
1729143979.027598,0.95168485400770164,0.14562381992044418,-1.2064003308069793
1729143979.035481,0.90815744108254992,0.022456557579306688,-1.2159379095342961
1729143979.043474,0.85926657503924031,-0.10678350781543992,-1.2067613046195151
1729143979.051437,0.79949521601871931,-0.24754252117939957,-1.1699671221531871
1729143979.059447,0.74319927765622917,-0.39904411387804534,-1.1040445363428011
1729143979.067587,0.69388402739537092,-0.5291085551517396,-1.0006374756372649
1729143979.07552,0.62555708164581114,-0.65014191612362149,-0.82982942851039398
1729143979.083556,0.5456102735722993,-0.75192170191689978,-0.63284140658970034
1729143979.091582,0.47146224994827729,-0.79127938025830313,-0.42908489108341591
1729143979.099519,0.41249997368415503,-0.76764239044085969,-0.22914254556282443
1729143979.107556,0.38414649393980516,-0.73558121396898823,-0.032552927187303869
1729143979.115573,0.36202612535565082,-0.7240069291921819,0.14052770679734158
1729143979.123542,0.29086005584632196,-0.71727520335682915,0.20542544656435294
1729143979.131572,0.096401907229510364,-0.56765016683560265,0.029390609386233779
1729143979.139529,-0.1620277724074331,-0.21543722203152432,-0.26438530008685568
1729143979.147502,-0.40222359248200551,0.18170425667909951,-0.35317153814026181
1729143979.155483,-0.63743875767962366,0.43275984574933474,-0.33343743543156712
1729143979.163513,-0.83667455018776193,0.516772704572668,-0.39822118486951597
1729143979.171521,-1.0132584939285572,0.48864060352692301,-0.5562846517416542
1729143979.179577,-1.1688017523333609,0.40556653834213013,-0.72902401311248888
1729143979.187541,-1.2678745232059807,0.34018441198789029,-0.80350786072484048
1729143979.195897,-1.2970941913657481,0.17324811773673687,-0.82478521591183973
1729143979.203529,-1.2705670709002885,-0.10825762499678064,-0.85904897712787187
1729143979.211525,-1.1758981372505366,-0.39869558318430115,-0.8519373798624591
1729143979.220012,-1.0401312706594787,-0.60339519749134873,-0.77956001166928635
1729143979.227534,-0.96292805131946446,-0.60042355291354688,-0.67845258742527736
1729143979.235548,-0.96087788610750713,-0.43155721704301842,-0.57011084599512452
1729143979.243548,-0.98561488072951664,-0.23764982715270949,-0.46168541486790554
1729143979.251931,-1.0219544256065549,-0.044255492093896398,-0.31553619948305717
1729143979.259454,-1.0822831030950917,0.14116858895970261,-0.15249952937336853
1729143979.26748,-1.186377874391408,0.28967091796978978,-0.015301196622317447
1729143979.275492,-1.2858697725163943,0.40708070446306721,0.1329997625549281
1729143979.283559,-1.3153409170275818,0.48561468752681225,0.29881739415517211
1729143979.291559,-1.2821536413895818,0.52741395159678384,0.49749375743597191
1729143979.299539,-1.2247805505981229,0.5446182439017192,0.69949629235881694
1729143979.307534,-1.1856741054471651,0.48363773398979015,0.85283741295290738
1729143979.315548,-1.1726396448624103,0.3048689475143142,1.0018845535452738
1729143979.323557,-1.1609877579583991,0.10331732701518861,1.150909446505378
1729143979.331531,-1.1001468330410453,-0.086788280271866886,1.2471354232648331
1729143979.339508,-0.99425479807232187,-0.27641163055361079,1.2729442547108538
1729143979.347498,-0.8579265765810804,-0.43786292760640466,1.2250017344206234
1729143979.355444,-0.70950914906752771,-0.58006969738378733,1.098540353140949
1729143979.363461,-0.58874478298047472,-0.70838845545788209,0.94369801797193753
1729143979.372213,-0.47329146712057774,-0.84306071363044421,0.77672254617613712
1729143979.379537,-0.35442658544431282,-0.98133222683135579,0.60119012221987733
1729143979.38757,-0.24969098661378447,-1.0811098921796529,0.43457129899558888
1729143979.395531,-0.1583283931975113,-1.1143708625472544,0.27244925608755921
1729143979.404148,-0.098189711379472022,-1.1213438978932233,0.13260702419653822
1729143979.411572,-0.076367119347626508,-1.1759719913840554,-0.014300444034455038
1729143979.419547,-0.079662631494807415,-1.2651527806222735,-0.16033877333188729
1729143979.427511,-0.09824185118013519,-1.3850689037532815,-0.25115444637131185
1729143979.435456,-0.038511987757903585,-1.573870499503214,-0.21305626182697471
1729143979.443526,0.097150249708281802,-1.7041790594116548,-0.060149037323721795
1729143979.451491,0.23984696103852554,-1.4445791315865972,0.12013883016233254
1729143979.460167,0.37995331570381186,-0.89909992362307256,0.28897238441230461
1729143979.467512,0.50211638900383548,-0.35747745289882499,0.39921200825299052
1729143979.475522,0.62309151986759714,0.14032619448930836,0.46642000771105718
1729143979.483538,0.72760335299550649,0.51201422846292677,0.54697251819405912
1729143979.491861,0.81691608171362917,0.7801501953620732,0.65639054830366184
1729143979.49965,0.89647081269368667,0.98487785183215026,0.73332215299816739
1729143979.507548,0.93994675066710076,1.1109071211751615,0.72754692831650281
1729143979.515571,0.93155141847272471,1.1586419837552056,0.64234930170679394
1729143979.524517,0.9011856604991082,1.1589745122160067,0.50715693860221744
1729143979.531499,0.88871302154467569,1.1393794414345031,0.33068694697197637
1729143979.539539,0.89740566050757342,1.1148516971217397,0.14562660056189389
1729143979.547481,0.93986912426323976,1.0958781499194616,-0.0058501631230485837
1729143979.555529,1.0077033636321118,1.0557599424494075,-0.10695278280910284
1729143979.563504,1.0607489190358339,0.98124474568412423,-0.15995193351441883
1729143979.571738,1.0870422814790608,0.86225271189982988,-0.23155344468430838
1729143979.57962,1.0968586380845284,0.71763880105778388,-0.33283388980654044
1729143979.587661,1.1055154374473122,0.56722979036398247,-0.44553634437824746
1729143979.595601,1.1136893474952168,0.41078957939035565,-0.56424062449671553
1729143979.603701,1.1051844565879054,0.27776196715167273,-0.67058262263841395
1729143979.611696,1.050914319944654,0.19837108986992499,-0.79887986583493076
1729143979.619641,0.96514098027594919,0.17883210755737045,-0.95524940821550985
1729143979.627528,0.87791901131191574,0.17455829424542324,-1.1112218826173139
1729143979.635509,0.79408476538530515,0.12452956440523844,-1.2429046277592481
1729143979.64355,0.72696946040158861,0.020016565745271993,-1.3282996257663391
1729143979.65153,0.66562861936898821,-0.13911003237185804,-1.3714485134028149
1729143979.659517,0.59987719057000977,-0.31121020230530172,-1.3826515388642604
1729143979.667561,0.53871614015605918,-0.45874207065741923,-1.3900118892333209
1729143979.676263,0.49648553910868237,-0.59557701364463034,-1.4112428568825073
1729143979.68412,0.46987010829587017,-0.71130749429245754,-1.409933665443772
1729143979.691698,0.44134299299505292,-0.77372189666703028,-1.3108137463828016
1729143979.699711,0.41401016233947385,-0.74391150838077291,-1.1451321246114425
1729143979.708194,0.39931322419197451,-0.66515159661994794,-0.92801984955437544
1729143979.715707,0.40496852339318401,-0.68260053890568184,-0.63301043073432883
1729143979.723639,0.41921679948119145,-0.78650887276803816,-0.34745381376948292
1729143979.731558,0.4379823266090847,-0.88141916278729737,-0.071400088470915543
1729143979.739616,0.44562327736339341,-0.98242425816017309,0.17043066770992854
1729143979.747444,0.31441271820959055,-0.99577571856161295,0.21421488679047143
1729143979.755599,0.013689015664859333,-0.59299568549161641,0.073827759176411795
1729143979.763442,-0.2814686774259969,0.064145834337324376,-0.027219274819774229
1729143979.771656,-0.47708081095410904,0.55144402466414277,0.039008143098199569
1729143979.779551,-0.60849586309922321,0.82785956155540763,0.10258323729085761
1729143979.787596,-0.7509855585748656,0.86238349972912975,-0.054876289435351083
1729143979.795864,-0.88053829722157129,0.76071196996302892,-0.34602081386653494
1729143979.803545,-0.93102577647602458,0.66842083258590912,-0.56966188559337883
1729143979.811528,-0.92364469358930679,0.50662363479412931,-0.63382051351898094
1729143979.819505,-0.88643790912469966,0.25948956945369528,-0.59292449381167334
1729143979.8275,-0.82814302825239383,0.049696916368171272,-0.53177753670155403
1729143979.835469,-0.76634762585690219,-0.057661157809544727,-0.46933511371702963
1729143979.843428,-0.74055117104835111,0.019040253058489144,-0.42144025342049518
1729143979.851419,-0.72805312859345472,0.24789498097725204,-0.35843528729488094
1729143979.859494,-0.69650281464791208,0.4635347890375236,-0.27934037165769532
1729143979.867617,-0.68800203278640626,0.63846751045012384,-0.20080804778865566
1729143979.875527,-0.72376780956985787,0.80877056773210598,-0.12857293984097201
1729143979.883627,-0.7748127349115399,0.96075813929235288,-0.07075841298265273
1729143979.891596,-0.8041626199321632,1.0183211673730006,0.019908546214595996
1729143979.89958,-0.80155227302509058,0.93728413253444742,0.15625405856438632
1729143979.907572,-0.77699880156189727,0.71625743673919284,0.32107092795935666
1729143979.916111,-0.73757669511918356,0.44231231885664563,0.47742920789371307
1729143979.923485,-0.68008107136732376,0.18812464515862865,0.5972112696035109
1729143979.931432,-0.58854122888029559,-0.085071091484667488,0.74378911241597612
1729143979.939527,-0.4787033054594767,-0.32582558956454188,0.91389399996562737
1729143979.947871,-0.37001870023005118,-0.52519230634106862,1.0368157455070577
1729143979.95546,-0.29267577034072795,-0.70696308538044128,1.0748108276691051
1729143979.963448,-0.25818933412807088,-0.84497247698348299,1.0544003357279375
1729143979.971466,-0.23941307767705583,-0.93011940728334919,0.99468959871022034
1729143979.979538,-0.217930762331358,-0.98312317073984823,0.88777291623543075
1729143979.987533,-0.1924835163108094,-1.0321658763029598,0.72039306684601434
1729143979.995514,-0.17678947863701819,-1.0675511605012951,0.52099221792244221
1729143980.003534,-0.17077857652443973,-1.0834612052520209,0.3183421465832027
1729143980.011589,-0.16504358494958249,-1.1289780422959983,0.1086342610570185
1729143980.019528,-0.14712912791495908,-1.206732416805635,-0.071465953095101037
1729143980.027491,-0.11083905000646312,-1.2927613721966553,-0.21592258184137647
1729143980.035535,-0.070121795526305139,-1.3816266258091952,-0.3349490037602561
1729143980.04352,-0.035262036332390577,-1.5437095886802683,-0.46276879005530308
1729143980.051469,0.023540234654078979,-1.8382667098905636,-0.5924590744843542
1729143980.05948,0.11309708008236974,-2.1109940914764289,-0.67921273643248758
1729143980.067518,0.22302227545233239,-2.0075100068605232,-0.74552555066034554
1729143980.075526,0.32452251280638955,-1.5210065648133342,-0.8114931779769754
1729143980.083538,0.38669972540320996,-0.96964640712391281,-0.79509551128469613
1729143980.091546,0.45125021689487221,-0.40257232839883228,-0.59263215845775918
1729143980.099645,0.52807977229072145,0.1686089771793681,-0.31088183862114221
1729143980.107562,0.58439406700331964,0.64690004510194532,-0.092238754558845323
1729143980.115555,0.62265238947623003,0.96069315972759961,0.053846248029703905
1729143980.123525,0.67029740652477399,1.1093798527870233,0.12553387227800727
1729143980.13151,0.71271934375141643,1.2209405968494342,0.17088774216503044
1729143980.139523,0.73817250608740181,1.3453452015842551,0.21385059637133955
1729143980.147492,0.78600969319083858,1.4568101547416132,0.20557310397816247
1729143980.155945,0.86089937712153097,1.5666838228436935,0.15548346202728086
1729143980.163538,0.96542979608463098,1.6451658805180713,0.10073965329195407
1729143980.171533,1.0849776706676721,1.6005189068776302,0.047247400069849461
1729143980.179571,1.1690514071998956,1.4360199878103983,-0.0040040046292047268
1729143980.187615,1.2062992572139071,1.2562266796615424,-0.10201387715963824
1729143980.196242,1.2133231250096805,1.127491881760589,-0.25574868438393139
1729143980.203576,1.1902932817535747,1.0038507863206558,-0.45143225365378092
1729143980.211606,1.1268824836395845,0.77961038239132963,-0.67441353045827457
1729143980.219571,1.0452027734713321,0.51416644613415907,-0.85566673839398721
1729143980.227525,0.96448103779145922,0.2731675925791468,-0.99017291187386758
1729143980.235486,0.89518918337189612,0.061096405704407442,-1.1047189758480274
1729143980.243488,0.83190387758559459,-0.14489896779091202,-1.1906870617217356
1729143980.251525,0.75753619385880988,-0.39939588578767843,-1.2284329862484444
1729143980.259527,0.68801271502721029,-0.64276601967715097,-1.2255391372767479
1729143980.267489,0.63161232060781036,-0.81220105339124626,-1.1767640761021756
1729143980.275538,0.57989310137476524,-0.90598680748265581,-1.0898180360693268
1729143980.283581,0.52629999657745041,-0.92543606962103586,-0.98635475964344266
1729143980.291593,0.4628559141816021,-0.93561571168894675,-0.83552041597307869
1729143980.299593,0.39648107565686808,-0.94725746772869968,-0.66222309281649516
1729143980.308131,0.3326046840694229,-0.83909335972707189,-0.48289755804376544
1729143980.31569,0.28214668236528784,-0.6726678152674006,-0.28675870439602502
1729143980.323544,0.26698387852470895,-0.64496695400941229,-0.047540879659970781
1729143980.3315,0.28364044493881457,-0.76371587679954533,0.24519418172410384
1729143980.339792,0.28490773852730628,-0.94138774583913309,0.46680974519244806
1729143980.347505,0.18563095023682386,-1.0599101889838225,0.50655295981326964
1729143980.355749,0.019642361897026488,-0.92541535518447493,0.44483518623189422
1729143980.363485,-0.15976767763098285,-0.35836755968449535,0.34182256255645405
1729143980.37161,-0.36361965523820761,0.3094296199105257,0.2182899294391954
1729143980.379581,-0.55702108206670176,0.68754635441005063,0.12416291668012475
1729143980.38754,-0.7354255321679859,0.81735906109642253,-0.071088251011939996
1729143980.395542,-0.88780419377446262,0.81947385416800389,-0.37256274824023849
1729143980.403543,-1.0028571891494913,0.81329315393536716,-0.64475796476082348
1729143980.41174,-1.0454962025638628,0.75062666028329383,-0.83255227320724123
1729143980.41952,-1.008716016608298,0.57680594442419963,-0.92820125581661039
1729143980.42769,-0.92534853618442658,0.32628897879653529,-0.95557949604915882
1729143980.435457,-0.83616456227559677,0.10169588369481219,-0.92305208312055431
1729143980.443433,-0.78797530369857427,0.018661369101415172,-0.82052607337829542
1729143980.451424,-0.78268754696350351,0.10208164958299284,-0.6721696949946856
1729143980.459789,-0.80803612704041727,0.26919858477399816,-0.52781615997445563
1729143980.467476,-0.83516459680750232,0.45311684296589055,-0.37096517882108238
1729143980.475567,-0.85037745351409844,0.62221302636278641,-0.21810936164729808
1729143980.483577,-0.88057682558042649,0.75559749101057627,-0.074887373906121685
1729143980.492678,-0.92977182330695174,0.85882827814893081,0.0829874391256675
1729143980.499718,-0.96269434243456309,0.90650613337296548,0.22687952904360564
1729143980.507637,-0.97670103808139241,0.84316379323158741,0.38962614902680326
1729143980.515584,-0.98297660516217977,0.67723852567742016,0.58028739944617569
1729143980.523586,-0.96269045693804745,0.46487549885748142,0.74534126701178094
1729143980.531485,-0.89156069449107678,0.20038548297474401,0.86544524559351466
1729143980.539508,-0.78886053835674785,-0.067710872350640522,0.95538661532396008
1729143980.547471,-0.65125476870517796,-0.3030644463017268,1.0604342445376711
1729143980.555491,-0.49738822161934559,-0.50153190393902181,1.1675217434272183
1729143980.563449,-0.36739472292845649,-0.65849879399151967,1.2356054533141045
1729143980.571548,-0.27343524640909683,-0.78013593698731942,1.2673033429248028
1729143980.579921,-0.21514395522090191,-0.87546695101155592,1.2682302490790853
1729143980.587606,-0.16229019792657962,-0.97417034041864592,1.2138723748430527
1729143980.595608,-0.10971913053834667,-1.0687246491642486,1.1169784510206664
1729143980.603609,-0.08903158667268872,-1.148870187792022,1.0132932601507973
1729143980.611638,-0.10577882956344312,-1.2020657917062303,0.91979392611141653
1729143980.619582,-0.13030063738760483,-1.2152527913504256,0.80941884285137899
1729143980.627499,-0.13501000563774412,-1.2523247603470922,0.66082276600245349
1729143980.63545,-0.12165940425227049,-1.3337388602883147,0.52781904356250875
1729143980.643496,-0.1147132685746414,-1.4328187475055678,0.42439101168739923
1729143980.651465,-0.11033274213733291,-1.5554816539630312,0.3238092420000197
1729143980.659461,-0.073436376327254277,-1.7005953281631307,0.19832960078390108
1729143980.6675,0.034052300481930239,-1.6955016343766605,0.0174706808116461
1729143980.676653,0.16410177603259382,-1.4629984749767433,-0.20683236788937948
1729143980.684267,0.27576097621849249,-1.0895798905634067,-0.43378894044725569
1729143980.691595,0.38915671302939309,-0.67098838182725629,-0.55889494238396853
1729143980.699657,0.49508057058605426,-0.20251870020919888,-0.49986617418545631
1729143980.707537,0.55054677395227236,0.28544847863218292,-0.40421376956947153
1729143980.71557,0.5495584460243097,0.6254803827592974,-0.38130322177830522
1729143980.723518,0.53087362165539576,0.83035090535849021,-0.3737293989948049
1729143980.732047,0.51200030592773083,0.9568915844404331,-0.36684380998666355
1729143980.739534,0.50110200655259396,1.0436710884568807,-0.33376553240236062
1729143980.747453,0.54075039859614216,1.1091480278028032,-0.24814945135589489
1729143980.755423,0.63605536414789243,1.1471571212259706,-0.1725154692246797
1729143980.763495,0.76369004865090884,1.2055076974119507,-0.17566374695262216
1729143980.771631,0.90284729838763744,1.3311900262149514,-0.22863552096483145
1729143980.779635,1.0291234994066087,1.4564051606878099,-0.26978376672432169
1729143980.789999,1.1246838078759758,1.4355411325118366,-0.27489097135276241
1729143980.795641,1.1777630923429758,1.3044680334890768,-0.27816813916055783
1729143980.803576,1.2185501543138786,1.2004956154184301,-0.33398423262018206
1729143980.8116,1.2491948973876195,1.1230001673941399,-0.4168539358255523
1729143980.819811,1.2333136932841704,0.99072635119496644,-0.51659433997056314
1729143980.827866,1.152481885527211,0.7779082272071155,-0.6522114133978113
1729143980.8355,1.049281627975164,0.56678210076784674,-0.7759378185696324
1729143980.843464,0.9496879030045462,0.35730970794992034,-0.86890402437705438
1729143980.851664,0.85821775844325421,0.13946437395263461,-0.9393700549819477
1729143980.859504,0.78226401366410836,-0.093195596165893374,-0.95483119947277573
1729143980.867482,0.72434675501422197,-0.33559572808009075,-0.88556806982752767
1729143980.8756,0.68576518927113184,-0.51530385717630267,-0.7752612471142607
1729143980.883582,0.64644002748972063,-0.61206079303601713,-0.64543648929772679
1729143980.891555,0.59347231617999352,-0.65521580240067467,-0.48964035336025469
1729143980.899573,0.52444380901622956,-0.68238587820385521,-0.30847051913659285
1729143980.907574,0.45556969575367023,-0.63334449925134173,-0.10994801563390713
1729143980.915537,0.40041030079861856,-0.50856509811233863,0.070252010287505842
1729143980.923494,0.36156784799585012,-0.4794591390361051,0.27883488034539305
1729143980.93143,0.33741099619126502,-0.57182359944756922,0.50934289259197818
1729143980.939537,0.30950764817245996,-0.69301139019033153,0.71299112437435108
1729143980.947551,0.18719450411859309,-0.82148946268751499,0.72066943691048835
1729143980.955475,-0.0062379796460199505,-0.8287631361060519,0.49199827075097746
1729143980.963448,-0.20615841201280799,-0.39785925231224667,0.23815649421467422
1729143980.972076,-0.41656980949356259,0.25253077953983655,0.086915653446547364
1729143980.979641,-0.59794351094134846,0.6721374128919666,0.028310748626054635
1729143980.987636,-0.78701030839561281,0.8187559477221229,-0.13775188816581568
1729143980.995634,-0.97984158333084048,0.78625678122646159,-0.42575732243788689
1729143981.003645,-1.1189533016723887,0.68694039480493396,-0.71988225051780863
1729143981.011964,-1.1936936864173462,0.58265310649850399,-0.95382536566313592
1729143981.019673,-1.1855395046122976,0.41642520354864132,-1.0435341174363506
1729143981.027503,-1.0844410416388492,0.1527977881158416,-1.0594729530301588
1729143981.035484,-0.9475834428530765,-0.057951383734399148,-1.0735060000317946
1729143981.04343,-0.82417694761979587,-0.11692901210281156,-1.0438265677319245
1729143981.051419,-0.73608527845158045,-0.065261971554873566,-0.9666351447780489
1729143981.059456,-0.7249479029739303,0.049173504820447411,-0.86434204792346647
1729143981.067502,-0.80255210985682246,0.21169944919801797,-0.72336214831731716
1729143981.075573,-0.91318098823659344,0.38498784676480191,-0.55597749159926235
1729143981.083788,-0.9878592714629657,0.58218700876505736,-0.38105093681257385
1729143981.091606,-1.0160643290017699,0.79011426390296813,-0.23373884282508867
1729143981.09953,-1.029368998002625,0.98425809700402578,-0.11087069145417303
1729143981.107629,-1.0445885304479927,1.1122380285241353,0.075445220625083714
1729143981.115656,-1.049889039362055,1.1106990161271872,0.31025919563516491
1729143981.123831,-1.0315719966066599,0.94141518938078472,0.55842147612964554
1729143981.131482,-0.99759450763447299,0.67765697991590923,0.7928825467802022
1729143981.139507,-0.951453765532708,0.41276669384074499,0.97399974500942932
1729143981.147448,-0.86098003620599939,0.11314195688244499,1.1375840818755676
1729143981.156104,-0.72836882730096031,-0.17326824568877391,1.3017166435218654
1729143981.163457,-0.55813011886652419,-0.40492382086692069,1.4602184791757908
1729143981.171555,-0.38702510384901334,-0.58904031248878419,1.5695801976271242
1729143981.17956,-0.27435837839414912,-0.7467618042841877,1.5943309827975689
1729143981.187615,-0.20995101858219584,-0.88013249495447465,1.5512876055409994
1729143981.197261,-0.16406987165016931,-0.97058431586246674,1.4613952249370219
1729143981.203624,-0.11781082078662403,-1.0329435195750405,1.3146593631759127
1729143981.211615,-0.076646153332442846,-1.0618452405733443,1.1389256934580687
1729143981.219603,-0.056417098505285486,-1.0530063343924114,0.96835491222367132
1729143981.2275,-0.060455887944548266,-1.0696260288491464,0.79151668272717735
1729143981.235456,-0.06607183706907116,-1.1355760886054445,0.62666851654752065
1729143981.243443,-0.062843210591123425,-1.2311243675414805,0.4758254293413588
1729143981.251497,-0.053882148690231252,-1.3471985633848624,0.33551383982660399
1729143981.25943,-0.036586189828759066,-1.5443372542987701,0.19300734769745279
1729143981.267461,-0.026634304573337785,-1.8184230313422183,0.055356419890863172
1729143981.276277,0.0082837507593331305,-2.0637556092460736,-0.053626920603736548
1729143981.284184,0.1171395816508452,-2.0757985614741914,-0.16584283166131986
1729143981.291596,0.21586975001052194,-1.7678008422984277,-0.31149934960488362
1729143981.299624,0.25701602341419161,-1.2869347730461262,-0.51936354776477678
1729143981.307916,0.29660293960756451,-0.84750800470645538,-0.69026943832934318
1729143981.315707,0.35951857497809514,-0.3999538371510552,-0.6233883282061945
1729143981.323645,0.42387358504179057,0.13846616234911299,-0.4389507312966765
1729143981.331504,0.46269943611073883,0.53047995200606302,-0.35084974640845334
1729143981.339889,0.49089038245892108,0.72929172554522925,-0.35162610321973548
1729143981.347541,0.52163987726534655,0.85709259089796963,-0.37656909584057158
1729143981.35548,0.56094838716084128,0.99911653454403571,-0.34598605483663586
1729143981.363454,0.64285303151843642,1.1449917344900147,-0.2737864374593274
1729143981.371516,0.76180898821276677,1.2557169628072828,-0.23706486298560384
1729143981.381195,0.90299573230913821,1.3608898953906889,-0.26845602101485466
1729143981.387653,1.0526255131399207,1.4618800704108532,-0.34731301449855156
1729143981.395863,1.177522811709008,1.498422686950347,-0.41740162887698845
1729143981.403612,1.2639548225099353,1.4298891188133616,-0.42944364817097735
1729143981.411618,1.3081516078841751,1.3081007112841154,-0.42049263741181347
1729143981.41962,1.3065741350522249,1.1888402950979373,-0.46386354299371779
1729143981.427544,1.2596531247151552,1.0619443373961663,-0.5333064726119876
1729143981.435517,1.1553019975112098,0.88704666851591241,-0.62243667223596599
1729143981.443503,0.98243759527017627,0.68058098752906537,-0.7176324180336322
1729143981.451523,0.80358465807750767,0.50285178616201032,-0.74920846182450995
1729143981.459563,0.67413701256588077,0.29617710089819971,-0.67003252893203835
1729143981.467477,0.59497851004378766,0.062131408851978237,-0.51823290413835765
1729143981.475548,0.55131461908369006,-0.14619357117894866,-0.34520779243070815
1729143981.483618,0.51532541309400481,-0.30630798926812242,-0.17796490624827571
1729143981.491605,0.46819048581247164,-0.39811973950700635,-0.04377681465258474
1729143981.49961,0.38712396182225983,-0.46129490081811531,0.11676577185969177
1729143981.507577,0.28740124005268897,-0.52282579601592338,0.30631744722724258
1729143981.516069,0.21479690514708555,-0.52632766330983882,0.48390196166707783
1729143981.523529,0.18528207623197052,-0.44690913691620898,0.64408961807519494
1729143981.531458,0.18779345680234799,-0.40457914684830654,0.77340603671410357
1729143981.539547,0.18057363888460282,-0.50986800167640878,0.87568591146224661
1729143981.547597,0.15878845561401245,-0.66988580355588223,0.95918971950715815
1729143981.555542,0.10165842429033795,-0.81804351721266511,0.99098733169123776
1729143981.563492,-0.067776189018061775,-0.9561053475055995,0.88916992154646857
1729143981.57148,-0.30438070648656568,-0.88164996797113959,0.68611183996201941
1729143981.579815,-0.53680255502834973,-0.28166405507324338,0.40017347231773676
1729143981.587579,-0.72521002122155376,0.52934611278451682,0.11495120532080474
1729143981.595559,-0.84719399222817882,1.0008402163172709,-0.043411453033493495
1729143981.603546,-0.95507811484130944,1.1081395280838351,-0.24506440844231139
1729143981.611624,-1.0344948955296278,1.0609883190407214,-0.53867350161045591
1729143981.619583,-1.0395759577964157,1.0273764678465778,-0.84084321570410392
1729143981.627521,-0.99792713870297534,0.95655223981610993,-1.0779104422118189
1729143981.635469,-0.93377436159240412,0.71291914895701924,-1.1224549090109117
1729143981.64352,-0.8476054084423138,0.3945476645801731,-0.99146342131868459
1729143981.651476,-0.7690855626801516,0.19948071837017606,-0.81432127947488797
1729143981.659521,-0.71388554405507565,0.17907219459605905,-0.68526157608039129
1729143981.66791,-0.68459674343318844,0.29581116895458437,-0.589308236370095
1729143981.675564,-0.67553726428929672,0.46844585838204927,-0.45596340160367566
1729143981.683575,-0.68329796870828474,0.61991680395300675,-0.31061307630940216
1729143981.691575,-0.72456373664541229,0.72484714332382827,-0.20403398333631556
1729143981.700832,-0.82211619791769608,0.83803677419884093,-0.096027606191143366
1729143981.707594,-0.92491944107311763,0.9476681787471275,0.015814971887514441
1729143981.715652,-0.94956635161917391,0.99429096871030809,0.13464186120234595
1729143981.723501,-0.91135608529478462,0.90881824130858491,0.30129256855873993
1729143981.731946,-0.8675711124885116,0.72429361562993522,0.48003565434305218
1729143981.739499,-0.81831286548579807,0.5190756465781744,0.63623586288177314
1729143981.747461,-0.75789538782817267,0.31612797862298697,0.77827180998094625
1729143981.755436,-0.67120062895034671,0.091555228006793887,0.94437448991823625
1729143981.763496,-0.5344714513927068,-0.17004406067860739,1.1442861073549186
1729143981.771798,-0.38858043563881806,-0.39234705832426997,1.3097819143933656
1729143981.779684,-0.27188605697633572,-0.55190879569158247,1.3946059365267245
1729143981.787729,-0.19825106425641903,-0.67169732658457471,1.4048469489371158
1729143981.79582,-0.16492516519175085,-0.77868987519098776,1.3328774301050679
1729143981.803563,-0.13279745900128204,-0.8909883813000451,1.192851229823227
1729143981.811565,-0.087128051476354773,-0.98688871908343556,1.0507288162645552
1729143981.819523,-0.050999760701426769,-1.0454931469071249,0.88670270675887619
1729143981.827521,-0.032515461697435202,-1.0580942303438508,0.6986792831177111
1729143981.835457,-0.0205735021721162,-1.0526713335312945,0.53031267591221687
1729143981.843459,0.0027678958786323997,-1.093050826743619,0.38693655047344822
1729143981.852025,0.028266366368556416,-1.1751723710298498,0.2681327404776106
1729143981.859492,0.044629673816165907,-1.2787207804379976,0.14747040735051234
1729143981.867477,0.056363263561310731,-1.4202410225455551,0.033355381450974303
1729143981.875528,0.057230911517198176,-1.6411611424472086,-0.061932107960856506
1729143981.884712,0.085421354285762696,-1.8186235158724449,-0.1840223359809148
1729143981.891665,0.16491205898182004,-1.7893058103211987,-0.33326214876392241
1729143981.899545,0.2504928972695753,-1.514598389867384,-0.52348173596949743
1729143981.907569,0.30673683594904178,-1.1239453599894875,-0.73573504745984075
1729143981.91593,0.39880273757702001,-0.72481148827694319,-0.81966664808491951
1729143981.92352,0.52130130826480792,-0.21139961069859933,-0.73465616891504082
1729143981.931472,0.57351594760437907,0.31268522204038807,-0.62107344237819495
1729143981.939525,0.55503899401706414,0.66502253715390136,-0.58612763125012579
1729143981.947542,0.52692521940619386,0.85279912781086642,-0.61070898114972172
1729143981.955473,0.5219762763606085,0.99079364086203636,-0.62588348115094128
1729143981.963526,0.55817039618776421,1.1406365333730084,-0.55900250518070038
1729143981.971509,0.64225046208824532,1.2703442896262915,-0.43841849798223187
1729143981.979582,0.77953927416678848,1.3873324290327682,-0.35116894151197964
1729143981.987562,0.95066893922874796,1.4971144883926235,-0.31733672530342671
1729143981.995516,1.1186901627003456,1.5729874404528941,-0.36365789019710282
1729143982.00397,1.2495140461163774,1.5921184278784104,-0.46126375921308171
1729143982.011545,1.2896962706344135,1.4888735487697027,-0.52238142099144125
1729143982.019514,1.2601686576010191,1.3092233193102265,-0.53414914946292813
1729143982.027465,1.221806121800074,1.162908231072227,-0.54908505268286789
1729143982.035452,1.1670746907405856,1.0138198092788946,-0.6044468113141932
1729143982.043664,1.0767676738075183,0.83135347777344126,-0.68363839313088781
1729143982.051501,0.94957761810693941,0.62034659921147473,-0.79181417597924408
1729143982.059763,0.81536973632775589,0.3839144362170907,-0.87842983882282133
1729143982.067518,0.72739543118466021,0.16394101214217749,-0.87846504903059985
1729143982.075558,0.69142560552655308,-0.051478294349328629,-0.77525633525072435
1729143982.083594,0.68601993246724602,-0.25565132906154986,-0.59243512952758204
1729143982.091744,0.65574520972882278,-0.40752776412976277,-0.37525566557453371
1729143982.099715,0.5726626417128089,-0.49205542921802897,-0.20067622081065339
1729143982.107582,0.46960184322044674,-0.52914994630420376,-0.090607428184049821
1729143982.115571,0.36477066791736418,-0.57418107484412728,0.09441421957055017
1729143982.125297,0.28356729009264725,-0.60609518767489479,0.33334707169265065
1729143982.131519,0.2474031202109471,-0.52946339154439814,0.54056029218521573
1729143982.139484,0.23272850429605052,-0.45794291017837829,0.73810691505222414
1729143982.147517,0.21157872296471367,-0.51932468641696405,0.90431217565617672
1729143982.155515,0.15674553808117042,-0.62447700702477171,0.98189944882252256
1729143982.163469,0.040410375104486265,-0.71715385866106751,0.90862006042076815
1729143982.171581,-0.16305740198060215,-0.55501950320501581,0.5381481502383374
1729143982.17958,-0.41092948139368546,0.088208613893670823,0.10216859327493902
1729143982.18764,-0.64266229102663164,0.75978351539390609,-0.093437181376485087
1729143982.195585,-0.83448754442769124,1.0165039201818393,-0.18525924247961764
1729143982.20358,-0.97193142469508365,1.0634751125968982,-0.32336204112659334
1729143982.21163,-1.1167613468597068,1.05738977809824,-0.59608148772684477
1729143982.219592,-1.2832633416518808,0.98349971725780994,-0.87124395179004799
1729143982.227522,-1.3889113543569223,0.88850856343957008,-0.99249535389738064
1729143982.235476,-1.3918521732523388,0.68273519466764609,-0.98159809808449106
1729143982.244211,-1.316779608495692,0.37814005225239733,-0.92865952789739581
1729143982.251486,-1.1680805396756992,0.08044665020849949,-0.91349829818215789
1729143982.259456,-1.0143690540722057,-0.12520070992067819,-0.8943978439086574
1729143982.26747,-0.95534598750414823,-0.17068784475063303,-0.84185848041347111
1729143982.275754,-0.99400221825770718,-0.076232768070464862,-0.74860980340436478
1729143982.283593,-1.0576365125487355,0.063875529984194213,-0.62455018736497592
1729143982.291674,-1.0689986152512445,0.16879932182862922,-0.47583150201621804
1729143982.299684,-1.0658121604283921,0.32199988996524098,-0.3367945536159056
1729143982.311773,-1.0905059163760578,0.53013361762634259,-0.25890635537472462
1729143982.315566,-1.1398030649230817,0.76313912983435961,-0.20323394513931331
1729143982.32351,-1.1891759419092804,0.98765475939011416,-0.12981563322063558
1729143982.331425,-1.2177354429473448,1.0904373825139144,0.015975278619996633
1729143982.339504,-1.2238032019721705,0.95501245793127398,0.27713137080088485
1729143982.347497,-1.2112676350515086,0.64984453085266114,0.57728257682212247
1729143982.355439,-1.1779920461806586,0.36351393470095072,0.84868381861847086
1729143982.363443,-1.1177989820499867,0.15680899197003786,1.0430256282444703
1729143982.371545,-1.0208094647825132,-0.050436380684337027,1.1411131963464713
1729143982.37957,-0.87832912225254667,-0.28652724541074526,1.2453017287533783
1729143982.387655,-0.73175439291476518,-0.47245353063864148,1.3608132608495453
1729143982.395596,-0.61933237677802944,-0.62508839270646521,1.3915952295449321
1729143982.403572,-0.54315252083601639,-0.75902547106263163,1.3623871238784164
1729143982.411603,-0.4819069200274444,-0.84641160409045502,1.3131483508995858
1729143982.419574,-0.41365849499411089,-0.91118829568954784,1.2027239754345014
1729143982.428678,-0.35483045739270547,-0.96835898329187098,1.0568653086620508
1729143982.43552,-0.31570242427870387,-1.0081953666522714,0.91358471054705426
1729143982.443542,-0.29158706931810996,-1.0525303196186888,0.78738864086989435
1729143982.451518,-0.28371605229441499,-1.1287241835588662,0.6688891478866642
1729143982.459568,-0.29942656503037557,-1.2227563238989132,0.52010101587990532
1729143982.467501,-0.33290436114455674,-1.3085482223438216,0.3729342883170137
1729143982.475561,-0.3029724565912767,-1.4513338795943724,0.3071958250367664
1729143982.483585,-0.1854018394771933,-1.5846825608284505,0.38588173912433177
1729143982.491823,0.012421859168404215,-1.2888074452979232,0.58698024479539535
1729143982.499539,0.28691864085086627,-0.58896067056569423,0.73807618759256888
1729143982.507583,0.54356576313614235,0.013994120702316704,0.75594075276086559
1729143982.515556,0.7592790954193025,0.39577442835183879,0.76559526670818856
1729143982.523792,0.94276973259487662,0.65272531196731509,0.84418097558658967
1729143982.531457,1.0690403372357782,0.84222811723794955,0.95837858559390043
1729143982.539476,1.100318088597537,0.96784912212126706,0.98964927122035906
1729143982.54797,1.0456532038123918,1.0098050552264881,0.91071581349069786
1729143982.555506,0.98135320839311435,0.9747434713927432,0.73586156544502279
1729143982.563457,0.95788520832345003,0.90539069911655568,0.50515760345558736
1729143982.571484,1.0102120578697282,0.8020539768388486,0.27755315838563055
1729143982.579582,1.1109956476158065,0.63639641350621967,0.058619464450753313
1729143982.587547,1.1967943601204443,0.47804380199415097,-0.10062345093593608
1729143982.595584,1.2544460935144264,0.37962671459521347,-0.20106463587476311
1729143982.603626,1.2888242885200847,0.32078930718658194,-0.28282669494189194
1729143982.611635,1.2885923925118401,0.2752703012663143,-0.39829157997024611
1729143982.61961,1.2671687518337917,0.2313569853171345,-0.553134213341127
1729143982.627497,1.2632540587176653,0.20032640507154426,-0.67754085791184582
1729143982.635472,1.3043256291171168,0.19064754821489277,-0.75473898502304937
1729143982.643523,1.3615338610586329,0.19995223128280401,-0.82830202522334151
1729143982.651469,1.3760642123655584,0.23426912027223787,-0.95353380605203386
1729143982.659465,1.3392335865732763,0.24762252262104364,-1.0978475095368294
1729143982.66752,1.2820157810272894,0.21391693800704803,-1.1782632257365073
1729143982.675615,1.2187381735202791,0.12111343175937428,-1.1686188070974777
1729143982.683648,1.1599127960044333,-0.034605836432807409,-1.1019584771249893
1729143982.691575,1.1131239378354509,-0.21636808510148794,-1.0281199192552648
1729143982.699628,1.0650431900453461,-0.39162023886004216,-0.98147548919538896
1729143982.707531,1.0170386886054918,-0.53082673603213726,-0.95285029606727045
1729143982.715542,0.94779543190268623,-0.66436921655718306,-0.85053716789799294
1729143982.723544,0.85474098044409696,-0.80238855323104685,-0.67783133992410516
1729143982.731535,0.74825119225496162,-0.89030843597290943,-0.4820459448332427
1729143982.739479,0.64327822841039439,-0.88346375701334257,-0.28858903180775258
1729143982.747504,0.58178436531877109,-0.81273645501879455,-0.080565830716659667
1729143982.756402,0.56297987507593361,-0.80116260327806299,0.17131657328441252
1729143982.763537,0.52168603159715787,-0.88020768464895438,0.36522786686198999
1729143982.771498,0.35770907541180796,-0.82163790816744342,0.30491326750179337
1729143982.779499,0.11905802644885866,-0.48595885888634249,0.044173000464453688
1729143982.787664,-0.16524885830357441,-0.01232263501271276,-0.1069500339896747
1729143982.795613,-0.4597087970404854,0.29058946201579444,-0.094394014757609057
1729143982.803612,-0.65852064347865769,0.38932715824780262,-0.099205415000768599
1729143982.811605,-0.83144469908577701,0.45154960641724173,-0.28279768623729673
1729143982.819591,-1.0128875686668692,0.44801682941855026,-0.5538638922118615
1729143982.827505,-1.1392065829354681,0.34926551926745414,-0.71735499591952445
1729143982.835465,-1.1930749533313327,0.11675887816174961,-0.74095389738826678
1729143982.843438,-1.2002802619425916,-0.16598981218364678,-0.70892586660088164
1729143982.851519,-1.1539463297953652,-0.37267406173808137,-0.70843941083278006
1729143982.859457,-1.0671878969945379,-0.49264055588685274,-0.72751643516844144
1729143982.867467,-0.97213814110637631,-0.51502756021578888,-0.72917177835621161
1729143982.875482,-0.89850637517646015,-0.45949797285630145,-0.68397761260024326
1729143982.883805,-0.8796558742755014,-0.38297267920221278,-0.60620399583268059
1729143982.89164,-0.89622827276068917,-0.27128838851387571,-0.51164969385766423
1729143982.899542,-0.91872956866493172,-0.11956549186992921,-0.40809120591183107
1729143982.907556,-0.96500848094005376,0.058521863685424155,-0.30019443153716274
1729143982.916332,-1.0536495070941974,0.23561313715987139,-0.17947812383010459
1729143982.92353,-1.1381223423041431,0.35910834873375203,-0.067459163489900761
1729143982.931485,-1.1692243006028571,0.44555048746047932,0.073609438377884001
