Time,Accel_x,Accel_y,Accel_z,Orientation_x,Orientation_y,Orientation_z,Orientation_w,Gyro_x,Gyro_y,Gyro_z
1729143973.26752,-1.2667853990519413,0.0737245388580543,9.72354182130432,0.0037826805654761213,0.06472769977956357,-0.00024536050839452046,0.9978957640992405,0.019173500025502364,0.013726348274022047,0.009495201005234283
1729143973.275626,-1.274585176198743,0.09020339518983259,9.722787429208372,0.004628367233859797,0.06512503361857921,-0.0003020670825070756,0.9978663322150944,0.013206860261149544,0.011641329456109482,0.008251260971912758
1729143973.283614,-1.2807015634829175,0.08452839819788394,9.718025230962523,0.004339222662849911,0.06546563315502896,-0.0002846833522285277,0.9978453492288684,0.007924116156689726,0.011241698288286006,0.004950756583147655
1729143973.292242,-1.2848502361854537,0.06723703037380847,9.715886172513061,0.0034523217370071944,0.06569036952547418,-0.00022727655871189277,0.9978340569311095,0.004754469694013835,0.01100191958759192,0.0029704539498885928
1729143973.299676,-1.3007469691038502,0.07817060445475384,9.711729695451195,0.004015174174566326,0.06651982189766341,-0.0002676837348353087,0.9977769891195473,0.004981132123718459,0.009580982182789374,0.003910722677243314
1729143973.307565,-1.3047783450365287,0.09287103454785231,9.717376094858608,0.004767376860936103,0.06668389481821141,-0.0003186201021942674,0.9977627116559177,0.008948340134699518,0.00957979986283191,0.004474883913656146
1729143973.31574,-1.3014510866117608,0.0911568052990239,9.737044505792118,0.0046700316831622185,0.06638366531429986,-0.0003107025874637334,0.9977831945104204,0.011754355002750183,0.009579090470857431,0.004813380655503846
1729143973.324102,-1.3119045801897127,0.10138101555246122,9.74573309019402,0.005188986571745002,0.06685005460146817,-0.0003476664661735118,0.9977494794517145,0.013012273862118551,0.007875904589824618,0.004590788639150434
1729143973.332712,-1.3217679788267183,0.10560018037639861,9.734186829214067,0.005411109881469652,0.06742426792515727,-0.00036567765065892357,0.9977096542904971,0.013341335116277542,0.006428302999742896,0.00275447318349026
1729143973.34009,-1.3032651610753279,0.10094907429029229,9.719358207147582,0.005180992968566105,0.06659350245573162,-0.00034579273459350217,0.99776667772076,0.013113081807310904,0.005985432107155896,0.0016526839100941561
1729143973.347839,-1.2981489745748842,0.0828355200136285,9.717404218722143,0.004252336982334532,0.06635013397150025,-0.00028276881082590634,0.997787300677831,0.013401819883392955,0.006145399633065728,0.0009916103460564935
1729143973.356127,-1.2890937585242275,0.08106535375622397,9.72604805247352,0.004157920394349512,0.06583567010984458,-0.0002743370423614845,0.9978217781640012,0.014000752790504216,0.0036872397798394362,0.0005949662076338961
1729143973.363696,-1.3013777211789894,0.08550991782014063,9.72117870575169,0.004387872470336518,0.06648730111912095,-0.0002923876061651918,0.9977775803627615,0.014360112534770972,0.0022123438679036616,0.0003569797245803377
1729143973.371703,-1.3056356366136437,0.08578245459833436,9.71562347589242,0.004404296039295483,0.06673955436706853,-0.0002946004637015926,0.9977606663272761,0.015427108504255087,0.0013274063207421968,0.0002141878347482026
1729143973.380293,-1.2816147474467021,0.0770874305226725,9.724979606775685,0.003954433448889124,0.06546598566928757,-0.00025943947430363373,0.9978469320830756,0.01862144645471775,0.0007964437924453181,0.00012851270084892155
1729143973.38767,-1.2839616255676307,0.09174228985657223,9.708566630032207,0.004714034912334387,0.06569269440666058,-0.00031035151542302083,0.9978287184975061,0.02181511940938144,0.00047786627546719086,7.710762050935293e-05
1729143973.395721,-1.2889610549304222,0.1158580960819121,9.681480592032996,0.005969544738261485,0.0661250457104778,-0.0003956093668926208,0.9977934086566387,0.02287994305925559,0.0002867197652803145,4.626457230561176e-05
1729143973.403647,-1.278074342919191,0.11596236985617851,9.699226632807688,0.005964260808427503,0.06545533405026067,-0.0003912386985723921,0.9978375988955611,0.0184105565116357,0.0001720318591681887,2.7758743383367054e-05
1729143973.411652,-1.286865206337452,0.11985565677698834,9.740998878854535,0.0061379790687446974,0.06562042814657933,-0.00040365448157735014,0.9978256970462681,0.01317478421429158,0.00010321911550091321,1.6655246030020232e-05
1729143973.420013,-1.2981252285387992,0.12123394826541176,9.756245999676002,0.006198655316024956,0.0660849036590845,-0.00041054292402744393,0.9977946650664906,0.007904870528574947,-0.0020665188380096103,-0.002118457159692146
1729143973.428208,-1.2929102335588263,0.10434383087330955,9.721101541455992,0.005354444715320914,0.06605933488408211,-0.00035449048647964027,0.9978012670531935,0.0021887819483727786,-0.003368361610115924,-0.0042509047260495085
1729143973.43602,-1.2737400854477956,0.10618076873882948,9.682058354072813,0.005470935658931257,0.06535130703542294,-0.0003583041329388335,0.9978472564225078,-0.0020922513226725855,-0.0041494672733797125,-0.005956063327325957
1729143973.445578,-1.2658292990714117,0.09626960382142269,9.675391853264001,0.0049638431762868765,0.06499561106418703,-0.00032331566393914446,0.9978731513926485,-0.005086561346761836,-0.006320890917186113,-0.00783053861101589
1729143973.452034,-1.256294423925269,0.07930957723425985,9.694855129048245,0.0040813598656370235,0.06438552125417903,-0.00026332907085763955,0.9979167188760169,-0.006031767238291323,-0.008475125226394015,-0.008529533719767819
1729143973.459601,-1.2546436416598488,0.05907791430930591,9.730953951452383,0.003029036373308857,0.06406755146826339,-0.00019446335387700628,0.997940948138473,-0.0036190603429747934,-0.011044735996304851,-0.008948930785018976
1729143973.46765,-1.2438369454939562,0.05460036186683354,9.725558766135102,0.0028011176856479456,0.06355742821348677,-0.00017839321882701868,0.9979742357568446,0.00038270416298731395,-0.013012192519713384,-0.009626259085631701
1729143973.47581,-1.2239453984975455,0.06603962019627199,9.736208024573639,0.003384491541034516,0.06248482780355814,-0.0002118946522839493,0.9980401528054995,0.0027837628665645783,-0.013766976372296472,-0.010032656065999337
1729143973.483651,-1.213925831627824,0.07553679702010695,9.747385982957073,0.0038669013211201247,0.061908414439030036,-0.00023985561600443632,0.9980743147507111,0.001670257719938747,-0.011665706315074135,-0.008999424069833823
1729143973.491651,-1.2134207553243508,0.06782757381753292,9.754092757987136,0.003469891382741591,0.06184133679177909,-0.00021499552636528016,0.998079938028273,0.0010021546319632481,-0.00955356415781667,-0.007528104749210451
1729143973.500841,-1.2183849531946103,0.052667552591300994,9.754525520514937,0.0026941987047995842,0.06208943692469918,-0.00016760527173330668,0.9980669391499679,0.0006012927791779488,-0.005732138494690002,-0.0045168628495262705
1729143973.507675,-1.2211240517507504,0.053627186828218106,9.735631564750369,0.002748565318395186,0.062346722635121185,-0.00017169872307059797,0.9980507512571183,-0.001767674639803389,-0.0034392830968140013,-0.002710117709715762
1729143973.515958,-1.22300693105045,0.03361283309302461,9.71376070398694,0.0017266298284217092,0.06258139143908052,-0.00010826727812844164,0.9980383642291416,-0.0027633650297301596,-0.0020635698580884006,-0.0016260706258294571
1729143973.523552,-1.2313192636107388,0.012266834377299137,9.733438750273022,0.0006288412505473682,0.06287624183978417,-3.9617572469187e-05,0.9980211326426082,-0.0016580190178380957,-0.0012381419148530402,-0.0009756423754976743
1729143973.531554,-1.2358278228148807,0.005684159464270106,9.754822384685298,0.00029074972855279446,0.06296709058018687,-1.8344067170435283e-05,0.9980155613175363,-0.0009948114107028573,-0.0007428851489118242,-0.0005853854252986045
1729143973.539562,-1.2478703448119752,0.01657860480942144,9.732218380762351,0.0008499365971412973,0.06371905139287279,-5.426745159977794e-05,0.9979675130746577,-0.0005968868464217143,-0.0004457310893470945,-0.002053991501027289
1729143973.547578,-1.2335480430688257,0.010904843549715364,9.710036852432019,0.0005603584569331975,0.0631387142202125,-3.54510513965809e-05,0.9980046029494258,-0.0003581321078530286,-0.0002674386536082567,-0.004212225330850594
1729143973.555575,-1.2342920484975453,0.018274494264594845,9.702474019418194,0.0009397826085886129,0.0632249073727649,-5.9536809876518e-05,0.9979988598950011,0.0014878809811363092,-0.00016046319216495402,-0.004655785505820515
1729143973.563622,-1.227795266940324,0.025808746851725656,9.736961806670449,0.0013225834886539205,0.06267578163835495,-8.305732264458838e-05,0.998033060710124,0.003446868957453975,-9.627791529897241e-05,-0.00577330173372653
1729143973.571493,-1.2169540131915382,0.03846958404853539,9.763879403338207,0.001966045697273541,0.06195914785032627,-0.00012204924817918153,0.9980767424231258,0.005047951804706606,-5.776674917938344e-05,-0.007720881654856234
1729143973.579622,-1.2212231684129697,0.027630733583418114,9.775959818516595,0.0014103563000810303,0.06209834153155222,-8.775022980199877e-05,0.998069035274632,0.00983981206621647,-3.466004950763006e-05,-0.008889429607534057
1729143973.587568,-1.2118136532450474,0.03453495260122274,9.761420832516208,0.0017654347363109703,0.061715900829644656,-0.00010916365867245867,0.9980921895838445,0.018248899022128798,-2.0796029704578036e-05,-0.00916486831767872
1729143973.595576,-1.2001824399939036,0.045381248660343015,9.736656289792927,0.0023258569650666822,0.06128358184263644,-0.0001428056523622121,0.9981176747220042,0.025422801502986352,-1.247761782274682e-05,-0.009330131543765517
1729143973.604086,-1.2209764513010297,0.05117076579776831,9.719403362498802,0.0026270310784348547,0.06244224839529968,-0.00016435903132143196,0.9980451078529274,0.03015283305296292,0.0025466537980785415,-0.00857790935649353
1729143973.611658,-1.2186088077923365,0.0702067868712391,9.725571597577407,0.003602030641258523,0.06228256434362804,-0.0002247815726672249,0.9980520312224638,0.03213947186002479,0.0040821326476193145,-0.00812657604413034
1729143973.619992,-1.225807347663683,0.07085449204461845,9.725441815968319,0.003635222545980872,0.06264695928976818,-0.00022818536857475746,0.998029103573751,0.031628694898413794,0.004152039834419715,-0.008281466118174458
1729143973.627928,-1.217437202787663,0.06884891348848982,9.7059709135556,0.0035394843689661184,0.062347644037914596,-0.00022111007583045227,0.9980481924454638,0.02749101816828891,0.002491223900651829,-0.008374400162600926
1729143973.635549,-1.2064296117116602,0.07410991083723452,9.693091271277892,0.0038151180519155384,0.06187124247902477,-0.00023650092796940556,0.9980768198368615,0.021602891638517724,0.0031974945862392238,-0.00885585065071884
1729143973.643469,-1.2261612753277773,0.0806183915707001,9.695658553049938,0.0041487880031683,0.06285443264932171,-0.00026128862283988924,0.9980140477882524,0.012961734983110634,0.004898327181977755,-0.009144720943589589
1729143973.651549,-1.2487741809681507,0.07446783303812318,9.725211081536994,0.003820396315255422,0.06380782608586327,-0.00024427075110175934,0.9979548618219116,0.006074280744018253,0.006770206862344938,-0.008892353057850005
1729143973.659482,-1.2640178655144843,0.08059372472521767,9.738154195308914,0.004128970604115785,0.06449190804394063,-0.00026684298713585303,0.9979096523199996,0.0015161181391007933,0.007467644609103215,-0.008315242264944223
1729143973.667812,-1.2825014627168938,0.0895365033898181,9.721259786472457,0.004594744370964461,0.06553455241839515,-0.0003017664289810623,0.9978396763511203,-0.0020701595467737454,0.004480586765461929,-0.007543285727738724
1729143973.675613,-1.2801840917414644,0.09921173357685961,9.714953863826834,0.005094542017348156,0.06545878462676914,-0.0003342036691153186,0.9978422127093678,-0.003796236096836437,0.002688352059277157,-0.006654421743953393
1729143973.683583,-1.280469610318316,0.088736300400022,9.731760444516802,0.004548823349090596,0.06536242688795013,-0.0002979624018738724,0.9978511775690116,-0.0022777416581018623,0.0016130112355662943,-0.003992653046372035
1729143973.69158,-1.2854293247847397,0.08221162032790384,9.743759754258909,0.004209133333872397,0.0655330670388093,-0.0002764341048373575,0.9978414823534099,0.00033611525098700907,0.0009678067413397766,-0.002395591827823221
1729143973.69959,-1.2675755990212343,0.10223882888619544,9.747846877945971,0.005232560574168376,0.06460599930867438,-0.0003387672071879172,0.9978970740511992,0.003181499580826427,-0.0019734563239683237,-0.0014373550966939326
1729143973.707596,-1.2379491704478969,0.08456705343523288,9.72779365655274,0.0043374958923586135,0.06324410188378544,-0.00027487390684485466,0.9979886242591308,0.001908899748495856,-0.002886834040229121,-0.0008624130580163595
1729143973.715645,-1.2417211282453007,0.08880803845762411,9.731324034507816,0.004553302506484175,0.0634114475979058,-0.00028931677960641444,0.9979770398389051,0.0011453398490975134,-0.0017321004241374724,-0.0005174478348098157
1729143973.723558,-1.2320132946229616,0.08680364631676196,9.739906605763283,0.004446779227828993,0.06286695059286744,-0.00028011232143784434,0.9980119709776734,0.000687203909458508,-0.0031677105617926417,-0.00031046870088588936
1729143973.731556,-1.2175694684729956,0.07554536405958842,9.723747753741172,0.0038766571727159014,0.06224127902865,-0.00024175866617622729,0.9980535738460087,0.0004123223456751048,-0.004029076644385743,-0.0001862812205315336
1729143973.73948,-1.2215924415818442,0.10278805827950303,9.726023450828688,0.005273232940634195,0.06242811067670215,-0.00032984595930765046,0.9980354779331917,-0.0023067469613671267,-0.004545896293941604,-0.00011176873231892015
1729143973.747535,-1.194796965193247,0.06574297778996745,9.733374373231587,0.0033705863137282097,0.06103109877698636,-0.00020609595422073593,0.9981301526626841,-0.003938188545592466,-0.005707368206599184,-6.706123939135209e-05
1729143973.755474,-1.1564536039206357,0.36577547295327734,9.654227288733873,0.018898675342555158,0.059521384052123504,-0.0011270759501896134,0.9980474811403608,-0.004491363434665638,-0.00342442092395951,-4.023674363481125e-05
1729143973.76352,-1.273747804442225,0.7097977837719663,9.728125062205168,0.036329339613694125,0.06483769384720929,-0.0023620499244947518,0.9972315043458879,-0.11677975453262383,0.009013289043637117,-0.022160025242206532
1729143973.771543,-1.3417301230950225,0.9820517159174768,10.949453262420757,0.044624466719992,0.06062600638224874,-0.0027131115457852515,0.9971588556222303,-0.30206893621638153,0.037760418097296675,-0.06139899209053349
1729143973.779549,-1.3621688001753727,1.0400592021579078,11.43660509221808,0.045248203188581713,0.05893753077960165,-0.002674219400560224,0.9972320773643445,-0.6482233591536777,0.14099808794482277,-0.12240309760818845
1729143973.787584,-1.5887130550075674,1.2675969275447447,11.023085540682409,0.057064203711458254,0.07093162069448161,-0.004064568003631594,0.9958392747463695,-1.0457737803281213,0.31447148595639074,-0.1292072566164392
1729143973.795555,-1.5675799790006344,1.5583061496909094,11.057010765327416,0.0697717241046573,0.06950968647187672,-0.00487356244534415,0.9951264032227948,-1.3247445888716805,0.4355831272218128,-0.12392457066922496
1729143973.803519,-1.4560196048320213,1.833048732539155,10.545613711393715,0.08574027260795984,0.0672982553681999,-0.0058048543176016055,0.9940250772208218,-1.4968096646738984,0.4384369419012928,-0.1514046435261627
1729143973.811677,-1.1455930714929627,2.362052354757868,10.109728009551072,0.1143304653762102,0.054560908779564786,-0.006288765709391902,0.9919234362317787,-1.585149558004058,0.401837125177398,-0.16108164625693283
1729143973.819508,-0.9880675714114027,1.4308783623176113,9.87692700836736,0.07178191017223896,0.04919385482143171,-0.003544698156595667,0.9962001591722475,-1.5930303474871785,0.36199825256165574,-0.0966489877541597
1729143973.8275,-1.4607386446534822,0.9521403023026763,9.672842382998931,0.04889759706622612,0.074427066364008,-0.0036538461920332323,0.9960202237914657,-1.4913363058115428,0.3419261395453687,-0.04096179019401455
1729143973.835464,-1.793422422631933,0.864813304916762,9.19604976207475,0.04664175070002161,0.09563697555423921,-0.004486189726267586,0.9943128230593302,-1.399244506319433,0.3205176903834318,-0.04075329645196593
1729143973.843457,-1.571413777065488,0.37355994217857286,8.358828967352272,0.02222847392378756,0.09266593487550333,-0.002069243679217942,0.995446953730466,-1.3337728651490786,0.2706375855390729,-0.10661015973335167
1729143973.852597,-1.403732085819371,0.24735972141065934,8.176601252481674,0.015064111011782995,0.08485962067014598,-0.0012831102134393552,0.9962782096218524,-1.2864017692790872,0.2228305400510522,-0.1422930671490248
1729143973.860054,-1.6110174045677947,-0.27344249967313566,8.072531867211662,-0.016844016189330898,0.09826200121515034,0.0016634161597037294,0.9950166286462186,-1.1668814386042177,0.15072592648911257,-0.1151741445917571
1729143973.867505,-1.725572369010208,-0.44777839653239704,8.854764581752779,-0.025139050052519665,0.09593311740273008,0.002423622369472293,0.9950673299844895,-0.9610768708387558,0.07085381306621408,-0.07932104823014301
1729143973.87605,-1.6961430796092498,-0.4944402544721726,9.670545190702057,-0.025439382795156694,0.08656552461839216,0.00221119774445285,0.9959188512901435,-0.7767204513904082,-0.012401730088873637,-0.06674868170387722
1729143973.883595,-1.4778514068475812,-0.6043190660133817,9.566969804850922,-0.03144055291603461,0.07636887467465744,0.0024093173525107543,0.9965808957646917,-0.5733061663226768,-0.1841024135600673,-0.09453753688946637
1729143973.892032,-1.2238144378585487,-0.6642608487877164,9.14425780332071,-0.03616658516556281,0.06625679727198895,0.002403145384429346,0.997144041663481,-0.4193308406723857,-0.3496992626777021,-0.12185310153737064
1729143973.899605,-1.2832791033889575,-0.7567290776320047,8.807072964463128,-0.04272729339886567,0.07195545406057502,0.0030852990117775656,0.9964874670359641,-0.30097855153302705,-0.5341953844406894,-0.12036345774470789
1729143973.907559,-1.109944097775562,-0.4904293118135778,8.358159290152486,-0.02923438891102892,0.0658245994043759,0.001929356340476871,0.9974009976946903,-0.22400751718894346,-0.6849079232759127,-0.1177669112232621
1729143973.91567,-0.6516012487043996,-0.3217909061799435,7.252037605341491,-0.022146782194923824,0.04473532532554388,0.0009919806395157034,0.998752865668399,-0.17569644627518313,-0.7961942595886862,-0.12174295410940106
1729143973.92355,-0.43405637910545225,-0.40137008814155983,6.866091987033021,-0.0291759764064429,0.03149438907937468,0.000919727923958558,0.9990775845537692,-0.147561183849851,-0.871054172544129,-0.10326976682944487
1729143973.931567,-0.2728836760960839,-0.1721084652384515,6.446100945393641,-0.013343140991481449,0.0211429518474299,0.0002822016095119619,0.9996873794031363,-0.12557174565710735,-0.8734011141711915,-0.061961860097666924
1729143973.939504,-0.5161566900326504,-0.2548180442309615,7.137182354345559,-0.017830845032926836,0.036060384214388425,0.0006435081584495461,0.9991903199856235,-0.12557447464678415,-0.7287975880659521,0.027527773283628647
1729143973.947637,-1.0353765372129495,-0.24865889294482688,8.119975253671788,-0.015274197223372171,0.0633334686991186,0.000969427870003622,0.9978750577358491,-0.14771199523661585,-0.5845673141054342,0.08420138374264022
1729143973.955448,-1.304291655970348,-2.505808029858693,12.717065732037058,-0.09699493375267297,0.04988696973623057,0.004867883925836717,0.9940219196692474,-0.149075185869578,-0.46099411438192667,0.015188555144235512
1729143973.963502,-0.4105160555939275,-3.8445352012159972,14.300245844251531,-0.1309268629370899,0.013737974594903208,0.0018144645051590537,0.9912951792145677,-0.016652111011739384,-0.5064691018186531,-0.08283592018925752
1729143973.971509,-0.350696825739169,-5.02533710583702,14.058080904988417,-0.1708028315699359,0.01157025085030454,0.0020058474424625643,0.985235250383882,0.16369027846946527,-0.4950162986876441,-0.11610920170163143
1729143973.979538,-0.2530348849942826,-4.4366397891369775,12.300526543481332,-0.17221052980953802,0.009529505600617725,0.001666050874259413,0.9850126629745479,0.5371006204490338,-0.23273057993181964,-0.08158484274191574
1729143973.987601,-0.35389155111375703,-3.6426488734821865,10.739859695620048,-0.16274954465938898,0.01538890751212839,0.002538698079396791,0.9865441309190413,0.83138568577801,-0.03449290277796996,-0.008936039867718473
1729143973.995898,-0.5037092727092698,-3.3642548013842335,9.173784550282186,-0.17478433395845494,0.025352899160212817,0.0045021078293041245,0.9842699823381614,1.0334981286631177,0.1389380313814799,0.12702798519406078
1729143974.003572,-0.5689396285669681,-2.9929929565141338,8.216901211126343,-0.173673639966459,0.03198375564361483,0.0056435215487377795,0.9842675737929495,1.136886611812777,0.27279489617949204,0.2009439791248117
1729143974.012695,-0.3533347854409621,-2.687875312482699,7.8508273319004145,-0.16414457339227814,0.020986676529570918,0.003493028998666721,0.9862068328614058,1.1904059004733318,0.3560888454885335,0.22528614259454677
1729143974.019762,-0.3736094833251241,-2.2689758625384475,7.83301420431603,-0.14047089721788364,0.02266164530176284,0.003216040285736518,0.9898202028408495,1.1765429470317654,0.3800981213247744,0.21860693760328626
1729143974.027723,-0.5792257961962463,-1.724825329534787,8.340431567023211,-0.10172645031085498,0.03376933820531937,0.003455160529598136,0.99423308281813,1.1311901396196289,0.35236037074177784,0.21289665436268182
1729143974.035538,-0.7222280375322009,-1.9260170556310285,8.436825860379944,-0.11188401644393996,0.041358306694971016,0.004660660443794164,0.9928493015437562,1.0469359869364347,0.2505797080995736,0.18818598134521758
1729143974.043578,-1.2341972778415862,-2.1046717714645546,8.452763907341247,-0.12139876711210185,0.06979339453197628,0.00855746459956523,0.9901100904561031,1.0376754312883352,0.1822745794693965,0.12951350120414976
1729143974.051777,-1.4618913269100298,-1.845072906628733,8.645722582685998,-0.10456729082721321,0.08139739942703678,0.008587557073076109,0.9911439849583354,1.0597889518945076,0.15619065444246139,0.06153187838693265
1729143974.05979,-1.7091198730503148,-2.1164391638991145,9.276490564992459,-0.11146088681327397,0.08819116673240338,0.009931183184515358,0.989798040219181,1.0547523916153436,0.14649996028676876,-0.02310317163398687
1729143974.06774,-1.8691885888692514,-2.465048967089469,10.043051443487661,-0.11955537079066893,0.0886461812338636,0.010718126455870856,0.9888040703966761,1.020229390899655,0.13046898231826443,-0.11091923699373533
1729143974.07791,-1.9410483815930353,-2.7141980167282904,10.603544440311346,-0.12446680073392631,0.08695769600761999,0.010950976463032454,0.9883453094615331,0.9543924439552665,0.13191833713517465,-0.252578099055149
1729143974.083988,-1.4847337909187117,-2.9891436135037712,10.65947922400126,-0.13595914023658573,0.06598876175554766,0.009076402017335216,0.988472667520209,0.9068021646208547,0.15747797359011861,-0.37588552182358004
1729143974.091617,-1.2897142711332583,-2.7277036558952314,10.874520580055053,-0.12236373568138466,0.05680343043854642,0.007014981888143815,0.9908336270583565,0.883781967819214,0.1647256442953064,-0.43326806308761945
1729143974.099551,-1.5303962872893297,-2.5648541771797166,11.02652972962483,-0.1137554590779502,0.06669605145198226,0.007654105321743994,0.991237987025519,0.8827405515820905,0.11543729897420307,-0.4476901549573276
1729143974.108041,-1.6187811781353165,-2.2722564748136893,10.65230241663232,-0.10459052257283286,0.07329751595561705,0.007729760311192324,0.9917804936316349,0.8944607136222155,0.06245133840112934,-0.48401326407418455
1729143974.115623,-1.5307936348597055,-1.9863251568608697,10.24197598000869,-0.0953704155711125,0.072446668973755,0.0069595328757683745,0.9927776835175898,0.9636435598197469,0.04428184402407011,-0.5713633990094515
1729143974.12388,-1.5984294524001983,-1.9600944068606625,9.948374925163417,-0.09680538181279945,0.07772885875924518,0.007583460714779475,0.9922345658621508,1.0805004084170453,0.03933980825830301,-0.6318615911383904
1729143974.131538,-1.5640724309616034,-1.893838301831241,9.75090589748086,-0.09546592970971021,0.07765122121108395,0.007470032870310664,0.9923712726182699,1.1616824591734374,0.023603884954981804,-0.6651806759855194
1729143974.139481,-1.6207909317214932,-1.7990180006299945,9.40856662564672,-0.09398000497259437,0.08333614821321911,0.007894705208709005,0.9920486473434673,1.1576061220059808,-0.010527692591808753,-0.6753812554801701
1729143974.147531,-1.5652788900875834,-1.7378162569209654,9.007317366745454,-0.09479839804106245,0.08401873053127909,0.008029785056879058,0.9919121126393714,1.1117399334363793,-0.04718286145544029,-0.6683052112716377
1729143974.155474,-1.19965647467755,-1.7494580842307044,8.653561493045318,-0.09933732578000701,0.06714107454112184,0.006718232399454777,0.9927633339168843,1.0097244595387629,-0.10791375836666409,-0.595097794789669
1729143974.163513,-1.0712626885174674,-1.612551660841157,8.545934581374066,-0.09293274977920736,0.06097680125146505,0.005702168763204004,0.9937871094952936,0.8995608181320595,-0.16819093995527212,-0.4243177065848024
1729143974.171588,-0.8520108382081367,-1.2761435904988347,8.63482676078733,-0.07320805451402418,0.04850147540500433,0.0035644923370371203,0.9961302535472902,0.81302951033786,-0.22053347124399414,-0.26395580530304613
1729143974.179718,-0.5969189223584759,-1.1444488569360196,8.935722520095444,-0.06361182760768233,0.03300863826993085,0.0021051575244262466,0.9974264551834249,0.7206701698224472,-0.3179209495438423,-0.12687241863363735
1729143974.187761,-0.48887476405961666,-0.781000859571768,9.015224665621721,-0.04317798497809264,0.026957973752388214,0.001165502707700802,0.9987029442571177,0.643118682317174,-0.40870588119486556,-0.02929754441935893
1729143974.195645,-0.5791925366584262,-0.49924629699306083,8.981283676326157,-0.02774664134523906,0.03213240648020172,0.0008923712670371206,0.999098011218805,0.5540187836678068,-0.5197936183599297,0.14801490725711494
1729143974.203597,-0.39372361403607137,-0.3036179210181021,8.721498916733195,-0.017393790263803582,0.02253774158341687,0.00039217574049867863,0.9995945940543929,0.47629451097485076,-0.6434887288948804,0.3701900749806718
1729143974.211586,-0.19840578219117408,-0.23939217228859563,8.064521653506713,-0.014836236796665962,0.01229159339723494,0.00018239484865396153,0.9998143675410899,0.41646355545375413,-0.721111315707547,0.5371246904703064
1729143974.219683,0.22284852775560807,-0.13980458071690738,7.86809635269973,-0.008882292494596879,-0.014154478210056104,-0.00012574177413156616,0.9998603601581811,0.351618057961678,-0.6821211654412788,0.6862398168322208
1729143974.227541,0.30680989668266173,-0.1104583868578788,7.863726330906948,-0.007021377638980648,-0.01949439391849211,-0.0001369068951797824,0.9997853020115387,0.3067510986059639,-0.5876368350173584,0.7910337348620027
1729143974.235499,0.2365189543670189,-0.6502208170268367,7.841232444051981,-0.04135035041898547,-0.015012215096293599,-0.0006213620015168354,0.9990317291394667,0.3075007769875675,-0.4236723412745743,0.8607211266632642
1729143974.243546,0.15316412042294572,0.51655167848507,8.720055070679235,0.02957853305173619,-0.008762076331574702,0.00025929278221510784,0.9995240213062015,0.3871289354484675,-0.35636901951563216,0.9280749654317431
1729143974.251608,0.13020569881626742,1.3193264270129168,10.944598203540354,0.05994646918710994,-0.005894716993008392,0.00035401030898376867,0.9981841252095088,0.4774748366712107,-0.34110274008652675,0.9557165668489694
1729143974.259862,0.8660551856471824,1.3154471794499376,12.138545025639836,0.053912707466124726,-0.03534786879847203,0.0019096752860235482,0.9979179832458076,0.4137662303798738,-0.39494510152544415,0.9476115041345075
1729143974.267473,1.201741164366825,1.7567651985391033,11.671459238284294,0.07452891988884723,-0.05057059434937429,0.003784379579216403,0.9959285785429361,0.2542193990883927,-0.4408726003555796,0.9742495310540205
1729143974.275587,1.2015609718134546,2.884426288312915,12.240431094728388,0.11531840278085573,-0.047292205721642055,0.005496607012833764,0.9921869282395333,0.0541972352553063,-0.35817537373499475,1.1643395823436993
1729143974.283574,0.41807007307830707,2.886815754677202,11.053355868751094,0.1273630626773913,-0.018139532146894267,0.0023296716684708873,0.9916875416525327,-0.16031925668911653,-0.24172369811310485,1.3805592278683942
1729143974.292226,0.07702300331964047,3.575624731126633,10.526661361826829,0.16299129584778166,-0.003417701415192789,0.0005646092491702698,0.9866214258829439,-0.3196788362810365,-0.1744068331087431,1.4528228568858368
1729143974.299792,0.20997719554647176,3.6302587083048863,10.72779221626602,0.1624206094796532,-0.009145919892692632,0.0015055426032054297,0.9866780787607701,-0.47574257276379706,-0.15742966748653778,1.3654941854274587
1729143974.308087,0.4525554237731955,3.032406377326682,10.72660586442758,0.13729042125039032,-0.020094717636922037,0.0027857699514080613,0.990323069529212,-0.6272746630122896,-0.14383784762151833,1.258608654685292
1729143974.315659,0.2001860447912611,2.809446212870619,11.023732739847953,0.12444261249505498,-0.00872912346623455,0.0010948279385200514,0.9921878047782596,-0.7871557071182342,-0.0688494160529677,1.09146034136618
1729143974.324336,0.6238516561716316,2.691950685486043,11.222838419543535,0.11739184575975455,-0.02681085247517063,0.0031704607521586352,0.9927186312935261,-0.9116055676997572,0.04638250302939789,0.8941140193613697
1729143974.331757,0.5138929504900884,2.5242487816529535,11.098332678190966,0.11155728429171595,-0.02241713941559714,0.0025171517939415185,0.9935019416834198,-0.9871268641715949,0.15979342087086854,0.7365427405039766
1729143974.339552,0.3176731567686624,2.1016075160620846,10.37911014646536,0.09971390651400613,-0.014919291425289694,0.001495282030214468,0.9949031690183389,-1.0039184079367414,0.31723488448277753,0.5057791535216907
1729143974.347537,-0.22191705198372444,1.9600713944028756,9.779503670887028,0.09873527982872077,0.011068362985026729,-0.0010982726403665594,0.9950515713545621,-0.9833436497705631,0.45767428928782233,0.2672838368887417
1729143974.355499,-0.481506572742969,1.9491305527061786,9.182953241350575,0.10434947229775557,0.025480847643453045,-0.0026743960942063262,0.9942106223733894,-0.9165104670037161,0.6236704239715594,-0.03033884540174514
1729143974.363536,-0.6525831758235158,2.052699324055348,9.835615504380659,0.10263616115682851,0.03225215469954049,-0.003329580915212278,0.9941903896292478,-0.8461865629798037,0.7611545202519223,-0.2672319931963356
1729143974.371608,-0.5952964667734063,1.9893844198726618,10.278209357560035,0.09540916267576773,0.02826743454691934,-0.0027104349557527862,0.9950330132030771,-0.8014380801966839,0.8402394575284439,-0.42596979427010906
1729143974.379566,-0.6990698771343563,2.0782881653513314,9.740271592319225,0.10484870455276603,0.03483758022562741,-0.003675200422044401,0.993871010272202,-0.8014074643989202,0.9051437124143001,-0.5390914574957786
1729143974.387687,-0.9310828210560044,1.8091314490154864,9.505376134102471,0.0937879365443329,0.047735063894168164,-0.0045020179337254594,0.9944369856699319,-0.8260791184850598,0.9853782013076309,-0.5844028821736924
1729143974.396784,-1.149538662360165,1.6955214524171043,10.559145487590389,0.07940469367029696,0.05334425293827836,-0.004255337202602645,0.9954050318372293,-0.8545041929035284,1.0535263275323448,-0.5443307072694399
1729143974.403661,-1.1817316385782084,1.857917074331122,10.173631973950718,0.09004062167551104,0.05662416508304136,-0.005127631338048658,0.9943138829231929,-0.8690050971858374,0.9637283543983295,-0.4955973787620905
1729143974.411969,-1.3382351794359875,1.5737187028506263,9.761801060591132,0.07964544567765965,0.0669968742630623,-0.005365210591806747,0.9945547930290678,-0.8751514993864508,0.8600438333268625,-0.46678307171914285
1729143974.419673,-1.7268635283158893,1.3421475376283447,10.530083436647649,0.0631307802682806,0.08038324054105309,-0.005101440664443354,0.9947497245669307,-0.8498924165274004,0.7263171903583612,-0.4494944874933743
1729143974.428384,-1.9420840251926585,1.1909944100281786,11.005178652076479,0.05366347599919404,0.08660398036113283,-0.004671831971769645,0.994785482360554,-0.8232433351524955,0.6090461692300635,-0.42379649474528003
1729143974.435484,-1.969223332596064,1.021772719014954,10.570538762290811,0.047952324432379054,0.09143885665330698,-0.0044083091109167975,0.9946457042013757,-0.7902262838690712,0.5076081820663567,-0.3470783302458909
1729143974.443527,-1.9560582366181851,0.7401957395632693,9.908247210011202,0.037091505619850716,0.09697104460203367,-0.0036163693483098197,0.9945892411404718,-0.7393406786122884,0.42631226681795503,-0.19249646587343935
1729143974.451444,-1.8681928435822392,0.8959032970094459,9.05070671956141,0.049049684430973926,0.10099995991002352,-0.004985604612258154,0.9936640681347222,-0.6768825608485662,0.34135106244464136,-0.03759659827651182
1729143974.459803,-1.453230896579031,0.9122345380201206,8.435865375730987,0.053632106421682674,0.08458751035274127,-0.004559581241669304,0.994961185409762,-0.5602293387583952,0.19544545611462014,0.10812888990293662
1729143974.46749,-1.490360826765778,0.6014496803316036,8.262566845067498,0.03617436321190585,0.08882150507631077,-0.0032279577006583174,0.9953852198878959,-0.46512169187803265,0.06703584641625233,0.18662469151990302
1729143974.476133,-1.5985906244774355,0.659187335054431,8.172952936630342,0.04003549038108501,0.09604695921425653,-0.003866305040396591,0.9945638203860905,-0.37144775846408046,-0.08280291991277575,0.22393130107645612
1729143974.483935,-1.5768584030067738,0.4946323497631273,7.886228770034845,0.0311564136925722,0.0982782859859126,-0.0030784180904437734,0.9946663660401657,-0.2722487022080439,-0.3080756192551186,0.19565814949640623
1729143974.491789,-1.3540870046946893,0.36692951850045447,7.4888998938568445,0.0243746241380136,0.08918953742135903,-0.0021833191934560988,0.9957139836469076,-0.19059338525839636,-0.546256233734336,0.13910508283240736
1729143974.499548,-1.2867435516937669,0.31736229850261644,6.977802999058247,0.02262519047993679,0.09093685420619585,-0.0020665617519542664,0.9955974681694169,-0.09434859826632233,-0.8539066562076726,0.09112547080576099
1729143974.507836,-1.2693218158307134,0.18538955561524176,6.91128328869276,0.013351007357869711,0.09065283869147077,-0.0012154208233852973,0.9957923157927713,-0.029790685087685405,-1.0665924537481688,0.08021668617117848
1729143974.515576,-0.8959078026331936,0.3796237394726607,7.324114996409016,0.02584021683812309,0.06072060942395977,-0.0015724632079475765,0.9978190307587852,0.00979544294242081,-1.1946296223339283,0.07452279551335304
1729143974.523935,-0.5449667067264005,0.4497167375800808,8.061428260540723,0.027844179567696106,0.03367783911398243,-0.0009386287954053645,0.9990443552679726,0.03524988000633267,-1.1952534024836805,0.007678641960815073
1729143974.53158,0.0752458548704097,0.8406077183292984,7.942136509547089,0.052699426337346346,-0.004704113697601128,0.0002482518173489526,0.9985993091070461,0.04456288138421134,-1.1100639682196634,-0.08521341779199962
1729143974.539759,-0.20791960255626982,0.8278212752846883,8.90749019796458,0.0463147856072363,0.011606154063580756,-0.0005381503926659352,0.9988593235366845,0.035677220121229467,-0.7920426391245594,-0.2652501515906017
1729143974.547823,0.059601766298269354,0.3839258669774536,10.03377749036078,0.019121089818915422,-0.0029673025772896876,5.6748684134701966e-05,0.9998127703821045,0.025663232687357998,-0.4982128467936854,-0.39285393469701635
1729143974.555526,0.1399088319957585,0.9419122535849096,9.118363442458655,0.05144237748699079,-0.0076204402285971005,0.0003925447494100176,0.9986468127410351,0.020080530288497146,-0.2784945851260337,-0.3800212916538385
1729143974.563556,-0.2177241099822324,0.7952301316919613,9.64123851713535,0.04113361363414714,0.011241419252763925,-0.00046282122133413573,0.9990903072891346,0.01885935915649079,-0.12069653437625877,-0.34763168226313396
1729143974.571525,-0.19599617131160507,0.34952713052884865,10.693574774099568,0.016335601688104853,0.00915693672211812,-0.00014961030922128277,0.999824622743464,0.027917527890913705,-0.015375452389843038,-0.34820534951742677
1729143974.579573,0.5161474766563963,0.1572832619598873,12.111950613971457,0.006490954415666148,-0.021290629002453723,0.0001382307492707942,0.9997522480693473,0.05293417195882091,-0.04157771610502022,-0.3783478541723446
1729143974.587582,0.8273148849196191,0.7566061363751512,13.317557383763734,0.02835787703864756,-0.030953963857603548,0.0008785635354361821,0.9991180666255002,0.10497919374676198,-0.11349016244711471,-0.4309142519437199
1729143974.595605,0.6029309048287246,-0.04331200298936244,12.702562717611755,-0.0017043469468504043,-0.02371245455722514,-4.042567517327088e-05,0.999717366592239,0.19580281542421102,-0.0719253080214271,-0.5109827576132167
1729143974.604118,0.3631950638933284,-0.7842308675651019,13.154058826856115,-0.029766882487574857,-0.013770937091804228,-0.00041013855427723343,0.999461918126424,0.30095410574466225,0.07859217276528477,-0.5560440305846805
1729143974.61178,0.4822369016172471,-0.7444351904609361,12.819462892549216,-0.028993400706011398,-0.01875933180522645,-0.0005442215016319133,0.9994034090439552,0.3878835233788067,0.19444406492503383,-0.5600935310486092
1729143974.61961,-0.022143495015979852,-0.9379512949406241,11.94210394280492,-0.039180270674943465,0.0009235613594598096,3.6213205534010696e-05,0.9992317309377526,0.4860157005971928,0.3512216628205997,-0.4833448798950284
1729143974.628909,-0.02860898763458791,-0.7598135735952338,10.973958366659513,-0.034556865142650016,0.0012996012654775092,4.493702308015018e-05,0.9994018871748879,0.5623482994481678,0.45507909297156596,-0.4036661743473795
1729143974.635534,0.2545764958469816,-0.6905199068524528,9.959481100317973,-0.03460123795870025,-0.012739260373418123,-0.0004410941658698855,0.9993199042412797,0.6558251456425004,0.5510230659176462,-0.3196752957945175
1729143974.644157,0.019628285203501468,-1.0368043757520966,9.434112958286487,-0.0547027684245661,-0.0010325066552614938,-5.656569955405611e-05,0.9985021471469236,0.7276617856331951,0.6707401986587509,-0.22798883270098316
1729143974.65155,-0.3648309500204773,-0.9101050851680548,9.212505357979705,-0.049205517923177816,0.019669602848885637,0.0009692152231894195,0.9985945044669183,0.7780005006724664,0.7544898000243507,-0.1367932996205899
1729143974.660137,-0.6465029865161926,-1.328009313307864,8.794870220403057,-0.07481165322552294,0.03616903848853407,0.002715266281220607,0.9965378289485558,0.8188459812325799,0.7677045254965138,-0.02460782147497966
1729143974.667526,-0.8451943089995594,-1.3912858602015155,8.415002248208632,-0.08173043854362835,0.04920001177610018,0.004039594838565936,0.9954311507734918,0.8501643105520406,0.7543488577067101,0.05377140701039929
1729143974.675538,-1.4892181063958294,-1.9514271704177841,8.613009940233772,-0.11076906345996598,0.08291473754770212,0.009273993148464709,0.9903379998408018,0.9110986242284581,0.7518694278318343,0.08121720127437321
1729143974.68363,-2.10116618122031,-2.0871172775924673,9.237469946073857,-0.11018874116524124,0.10827785934124626,0.012076873950482462,0.9879213003131783,0.9736263061834924,0.7499560798454468,0.06533223316164315
1729143974.691629,-2.52627470629078,-2.273397374612121,9.686366201042752,-0.11408413618753273,0.12318425402585424,0.014257228113980088,0.9857013649564174,1.061374342609033,0.7028335444157148,-0.041681771780800125
1729143974.699802,-3.0095072395459526,-2.400488323448913,10.723524426436196,-0.10886724548403177,0.13245250278686993,0.014638084543701647,0.9850837445857612,1.1468012991969336,0.6290111865814383,-0.20294750875960932
1729143974.707671,-3.0892358537373372,-2.4889533212177852,11.27758461435781,-0.10743194741074923,0.12954654559529313,0.014120273003850983,0.9856351693654998,1.198057473149674,0.5374661750585868,-0.3367419862940916
1729143974.716049,-2.56126752298459,-2.443870051812702,11.1307015547475,-0.10716997119530444,0.10967232190293735,0.011895110474681038,0.9881017586408857,1.185390791252191,0.3854818341315328,-0.4621418193297563
1729143974.723516,-2.216234944943097,-2.2453952513024653,10.744733032457875,-0.10229296028838489,0.09891981752715741,0.010223376555664083,0.9897709343821094,1.1420328169508907,0.2904600190221421,-0.5322734384136107
1729143974.731512,-2.3625995631572647,-2.0051637669924167,10.293364206681757,-0.09543440347615702,0.1100585245680641,0.010617230612788077,0.9892758312104697,1.0381167511225586,0.26494799450469797,-0.5398715148854988
1729143974.739512,-2.2026184622595935,-1.9007686239649813,10.079524910727804,-0.09251783249329079,0.10510847468453507,0.0098216516107872,0.9900990831123267,0.8936089297633873,0.2079231537709524,-0.576357115378284
1729143974.747525,-2.0450988190549744,-1.6245687500625823,9.670142058253088,-0.08266903946577421,0.10227180342891026,0.008529096122900894,0.9912787512382836,0.7813628332601626,0.12986217300011582,-0.6391147215743102
1729143974.755513,-1.8801975043236097,-1.3468001880258307,9.364657305264352,-0.07100117463925974,0.09768086953364122,0.006986758319809916,0.9926572752643168,0.7335969181854813,0.02513173617877757,-0.7069932796557301
1729143974.763594,-1.7486955729066658,-1.1226782109600297,9.055670866312909,-0.06134650574361615,0.09435015687658996,0.005825158274617858,0.993630072844762,0.7364384336888627,-0.05941671904858899,-0.7183478002637018
1729143974.77153,-1.7921381188904837,-0.9645024282850022,8.876264507092431,-0.053815715524299944,0.09873770469854025,0.00534763588683057,0.9936428620102362,0.756448015633759,-0.15867445919168055,-0.6583271729789459
1729143974.779567,-1.816048864986634,-0.8810891266487356,9.001815933259365,-0.048515844580818805,0.09879454166142528,0.004822456025459919,0.9939127704584549,0.6965121444136134,-0.23270256536724454,-0.6338084282675672
1729143974.787592,-1.810523438865027,-0.7635246588505694,9.24809278749468,-0.040976300557751234,0.09611352386388883,0.0039600830318603595,0.9945187032255589,0.6077650540602342,-0.2839304700559755,-0.6173944211948919
1729143974.795683,-1.485666900233079,-0.5759095169900291,8.95317101307298,-0.03200011680934259,0.0819187295147308,0.002631615175604754,0.9961216737329072,0.4749127583548067,-0.34489120723301825,-0.5530576890841467
1729143974.803566,-1.1535652219269568,-0.4812969443248768,8.675900898859414,-0.02764288398770076,0.06591984639654645,0.0018268910003283992,0.997440277553083,0.3743425679199106,-0.4044549128581936,-0.47316371385588246
1729143974.811726,-0.9013923582538304,-0.33618335946601985,8.55191619971604,-0.01961594122120131,0.05243290463890578,0.0010301368112416059,0.9984312415881645,0.2884590499712511,-0.5083035460672238,-0.34988018784014435
1729143974.822879,-0.752961682042142,-0.17681031841398687,7.969954628276889,-0.011077471357528618,0.047065912837835275,0.000521981903113553,0.998830224318406,0.18627182188807365,-0.6097762116471489,-0.25079435860444166
1729143974.828186,-0.5101955297330977,-0.5044813472983921,7.937769985218087,-0.031712337971811395,0.03200702122506888,0.0010160498760268814,0.9989839067048624,0.08749875962950839,-0.6412871967542237,-0.1721868082972286
1729143974.837107,-0.64753047457814,-0.4789020505665353,8.501926143962883,-0.028109818059366208,0.03792397494693298,0.0010672264056681253,0.9988846135969323,-0.010928563380137694,-0.5341895296257073,-0.0675541198155265
1729143974.843497,-0.4225159483211026,-1.2289807432793742,8.114497895850384,-0.07505971661962345,0.02564294375933282,0.001930839244679666,0.996847405692641,-0.06700512675569109,-0.42693623314093226,0.0071448149944316405
1729143974.851449,-0.758925539451646,0.1345797986612818,9.3501654049907,0.0071899594005958795,0.04047847671122793,-0.00029128488585943344,0.9991544988439334,-0.06148757912651623,-0.3766320272783143,0.07495143919935622
1729143974.859513,0.0005006724227623704,0.31897094438231594,11.617869468824498,0.013723722122389129,-2.1537369523738577e-05,2.956007127706495e-07,0.9999058250591211,-0.05179169962708084,-0.4286076856229156,0.09647936095651956
1729143974.867507,0.09271658753568868,0.8138749982700145,12.544423146138449,0.032388417543474116,-0.0036857667553439385,0.00011943962830293829,0.9994685544161107,-0.10727354077795216,-0.47596930296523354,0.11578146493274803
1729143974.875497,0.6513073255682882,1.71846581195029,12.2848902670776,0.06941057313044223,-0.026162474093289676,0.00182097202879375,0.9972433912279849,-0.2325116987442738,-0.3570975121047614,0.23548800292984115
1729143974.884115,0.6452880318155823,2.3241878038205646,12.316636529631326,0.09308783365985912,-0.02560420875424337,0.0023946334446920433,0.9953257484106643,-0.31361425438453516,-0.2002107352346098,0.3903214877131932
1729143974.891547,0.11351556933348997,2.3114919181321825,11.695953603569812,0.09740285677449917,-0.004737890814331717,0.00046369422874154183,0.9952336513957213,-0.4146356653285219,-0.08777399646965148,0.6207194684354406
1729143974.899642,0.5282749006821252,2.3112964118656376,10.592115240755167,0.10718121335700306,-0.024201909104231974,0.002609801546610269,0.9939414691192426,-0.5420818515444529,-0.03223127493161337,0.7670463680365677
1729143974.90758,0.5566245265909158,2.3971309477053198,10.32054593400388,0.1138223286589627,-0.02606978727570618,0.0029877766360766594,0.9931545281983178,-0.6466451073305055,0.004925568544367782,0.8535654376128579
1729143974.915572,0.26190924598384635,1.96811539601577,10.401812919289046,0.09335554267537555,-0.012313261584609514,0.0011546424228011003,0.9955560220508993,-0.7098087508635991,0.07915386212832433,0.9139906805878726
1729143974.923739,-0.10358301320070781,2.1737446660762587,10.678979948839052,0.10023526870737325,0.004728303949353976,-0.000476347220209852,0.9949524145114926,-0.7391931357542147,0.15178638233519234,0.9340696040373242
1729143974.9315,-0.5292585518169091,1.8496459378293488,10.762680209293665,0.08496881245591872,0.024123506242700384,-0.0020577928513974505,0.9960894150852975,-0.7517154859510398,0.23750921054405427,0.8643844663062852
1729143974.939465,-0.567509784410458,1.7887831535179217,10.833251079677762,0.08170196489517731,0.025730814153305408,-0.002110017943145681,0.9963223684930269,-0.7362416327501851,0.34939089619697994,0.7229619092855463
1729143974.947518,-0.706818724650181,1.7268869453334093,10.597387368998064,0.08063399470797102,0.0327541233887013,-0.002651165106295405,0.9962019361665846,-0.7269573208296722,0.4420613112764572,0.6070330005863747
1729143974.955474,-1.1002137836182337,1.7838413456668423,9.630348410168368,0.0913009033871436,0.05566892851512602,-0.0051120022570346375,0.9942529773008444,-0.7196839734315164,0.5432123969005809,0.5008663100811369
1729143974.963456,-1.381740650542034,1.7847345827907304,9.10112153023188,0.09639543496781709,0.07353443259184052,-0.007141247371441421,0.9925974057626492,-0.7008465029029138,0.6132682296272198,0.4001312604307975
1729143974.971518,-1.4975054938408454,2.033309817057251,9.620837722826629,0.10364279756244414,0.07508281960753146,-0.007846562785491748,0.9917455178450097,-0.6699622777584988,0.653173278955893,0.19665836998935127
1729143974.979552,-1.9490789847810697,2.090038773535132,9.4672346356491,0.10787152468284647,0.09844934360248747,-0.010735610686125847,0.9892199995804944,-0.7080485208463,0.7145770339617559,-0.054835142959974076
1729143974.987565,-2.559999715087392,1.8655023681249852,9.987509568010553,0.09146625035254471,0.1225754581793465,-0.011345734672622253,0.9881702567894398,-0.7658068517388673,0.7918598428041665,-0.2500030171216206
1729143974.995542,-2.44196573725556,2.0262250097421783,10.292731342612973,0.09637410478685228,0.1135680772321447,-0.011069184958662163,0.9887829877706621,-0.8059958210734142,0.7581997965547509,-0.42159206948574846
1729143975.003556,-2.307938426728336,2.1588110397808538,10.29390508120255,0.10255067771729663,0.10721881869776222,-0.011119118469050913,0.9888699857014828,-0.8292578225512182,0.6196619317186567,-0.521991360535453
1729143975.011585,-2.213875090949111,1.649149629239606,10.194292274795748,0.07964071019366646,0.10505757540473415,-0.008440834505534137,0.9912361047917783,-0.8551343451588375,0.44501584960266344,-0.5613721221536363
1729143975.019574,-2.398293776493295,1.6361636459519668,10.562607847787604,0.07627813098749586,0.10981297913926477,-0.008452528174025002,0.99098502063002,-0.8331995333147502,0.40237894930652407,-0.5850005791245462
1729143975.027502,-2.4342458960229303,1.3295756887918833,10.481209521904983,0.06262743198633391,0.11275873516948846,-0.007121459471325467,0.9916211762668103,-0.7983284530737342,0.37253990851422014,-0.5906638520778515
1729143975.036016,-2.353584756852039,1.2093086786559892,10.139559663338302,0.05892220234084023,0.1128238143557971,-0.006702494797146468,0.9918437566214792,-0.7510130211184787,0.29035728475807104,-0.5548983301953279
1729143975.043481,-2.280767216415911,1.0703502462560934,9.89099527798345,0.05351575112603928,0.11227737954174619,-0.006055744409389392,0.9922162981851803,-0.7136842706546227,0.21891182730835596,-0.5087489935010158
1729143975.051438,-2.083847785904234,1.0037345984372499,9.520871833538116,0.05218067664708334,0.106808756732423,-0.005613243556229708,0.9928935280112894,-0.6572318154593466,0.13134709638501357,-0.44232159589138365
1729143975.059422,-1.8541263302339468,0.9570614450975062,8.609267688745916,0.055007798520033034,0.10507547502316945,-0.005821157165979946,0.9929246702443664,-0.543756300848781,-0.005478374338474104,-0.4343919119352567
1729143975.067459,-1.8807751108845085,0.6965805718924881,8.491585559536611,0.040661792798541534,0.10832635331923615,-0.004434572643869532,0.993273554640629,-0.4356561263050107,-0.13227111322608004,-0.4594324058639228
1729143975.075509,-1.5649280291771894,0.7591220797077584,7.677816086698529,0.048999502312986956,0.09977222188422144,-0.0049193338534483525,0.9937908998717001,-0.3409977172764064,-0.27518009620818257,-0.5170257083673255
1729143975.083955,-1.5813211229262354,0.6225885237035613,7.95569893424568,0.038844716499641226,0.09758253261544263,-0.0038116757585753224,0.9944617682225547,-0.27994577124462344,-0.38731826980809003,-0.5724405028810068
1729143975.091569,-1.4908399296151162,0.45495597066744925,8.18156542377983,0.027654606280086043,0.08982885749976745,-0.0024952353940574843,0.9955700743353569,-0.2101107788315152,-0.5256914142321938,-0.639318894444716
1729143975.099527,-1.212214518071804,0.45613000940242265,7.8901991614944595,0.028781768242975785,0.07599156708679342,-0.002194434016043369,0.9966905618133696,-0.09626816299656689,-0.7670720037505319,-0.6900881809194923
1729143975.107564,-0.9171889024934731,0.38644490383481295,7.3493059702853465,0.026211549763479742,0.06193289437246945,-0.0016270428075712397,0.9977347463055236,-0.003698259992262108,-0.9940585393237068,-0.7243809633575164
1729143975.115605,-0.8019439359785058,0.41430510880479404,7.344635397356754,0.028127838342053096,0.05424460296340513,-0.001528641589170768,0.9981302575387833,0.06078317310102341,-1.242206946832126,-0.7815659781060657
1729143975.12355,-0.5316840166164003,0.19136164560514204,7.577422496958974,0.01261602638417353,0.035004956260909936,-0.00044192952907858485,0.9993074069643119,0.09564082240383642,-1.4260025763770643,-0.8388642502741448
1729143975.1315,-0.12340413433507452,0.42749972417949145,7.979499258673431,0.02675776926558977,0.0077180453663351625,-0.00020659781014153547,0.9996121302170144,0.1306031840137713,-1.5703351590209897,-0.8945277166480939
1729143975.139476,0.5510835728657522,0.529678243931523,8.894952503202106,0.029719841364205263,-0.03086464657384252,0.000918135975250958,0.9990812087350504,0.15158060097973222,-1.4083317127135184,-0.9653865218811222
1729143975.147427,-0.8856042996399236,0.9434118401577419,9.567765255583371,0.04906905955879841,0.045856093713227755,-0.002255213019793509,0.9977396253921231,0.15480186980714405,-1.0880680527229312,-1.0147128460043318
1729143975.155544,-0.08316802900270419,0.562934641936442,9.32310309744182,0.030148814984806167,0.0044500542430338155,-0.0001342262093009523,0.999535506100494,0.15375480067335695,-0.6954098377799619,-1.0238755175280798
1729143975.163477,0.31473609544017433,1.1453250051325683,8.583980311834232,0.06626124373731573,-0.018122800132528694,0.0012036835937422096,0.9976369895104865,0.15099810888577453,-0.469605780227807,-1.0080886173692272
1729143975.171523,0.5783782673715264,0.9828789081088378,8.938733473965774,0.054701946541434246,-0.0320606586186506,0.001757319087368604,0.997986334096385,0.1595606552883138,-0.3268866146516595,-0.9151812252273575
1729143975.179546,1.0394300805401033,1.0872424498457716,8.689265030668528,0.06208587589871593,-0.058923352695069306,0.0036718085025815813,0.9963231907084077,0.17321198435907803,-0.35448867165487147,-0.7640822161747405
1729143975.187559,1.173366749495937,0.15698514642113476,9.98424524642846,0.007846932174383802,-0.058450305308580294,0.0004594553215321879,0.9982593732921278,0.186936752600543,-0.39531423936013443,-0.6585236585919991
1729143975.195551,1.5345686056057655,0.8450127284776808,12.330871984282858,0.03413610090020078,-0.06168762400693015,0.0021110327971429715,0.9975093519362314,0.24114614018332137,-0.3253063863387212,-0.6884146475025392
1729143975.203544,1.331346748080256,-0.35083481774737585,13.14867731776698,-0.01331986539911611,-0.050410991644470105,-0.000672382396207417,0.998639505031262,0.26941487211836807,-0.19518383180323273,-0.7054978607259392
1729143975.211595,1.4201033796587006,-0.6977209284902224,13.331466184361357,-0.026103197795372405,-0.05294637085100818,-0.0013844852797924865,0.9982551718268597,0.28595042121793407,0.02464449138491691,-0.5573910857961035
1729143975.219547,0.7974742299436578,-0.6096898495746021,12.624237897872673,-0.024114047160733766,-0.03149212569558689,-0.0007600008915724046,0.9992127807165739,0.367387681003295,0.22082068457857346,-0.3437998328298268
1729143975.227494,0.5936456378197102,-0.2487374485631206,11.81036431587204,-0.010525271195517551,-0.02510168086173393,-0.00026429993260954483,0.9996294585643832,0.4290207387183725,0.37173022528880584,-0.19521195809988323
1729143975.235449,0.5319217845472949,-0.2818812411105286,10.794358120773225,-0.013049429547584429,-0.02460600807808427,-0.00032121900134805435,0.9996120015152364,0.4493986609503997,0.5086761664143067,-0.09456560160244226
1729143975.243423,0.6404549335213456,-0.13848296341631716,10.050679110745184,-0.006885117845502886,-0.031809122939447404,-0.00021912564770977657,0.9994702230852239,0.47865301674809735,0.6082970236095504,-0.0222584659830408
1729143975.251478,0.26312635610890117,-0.08189267721971218,9.473987714249846,-0.004321420833475302,-0.01388211655612236,-5.999680943942758e-05,0.9998942986947597,0.5485655077865459,0.6914824913071085,0.08157380411620857
1729143975.259429,-0.26661614068036243,-0.385760359749796,9.317593647837016,-0.020685154819172984,0.014287451536175276,0.00029563159528962643,0.9996839028916431,0.6092433651139444,0.7086156371930669,0.1655833593103218
1729143975.267477,-0.392686085775405,-0.2611443164358151,8.90030056370221,-0.014662096633032418,0.022032348913012006,0.00032315363415840067,0.9996496856876551,0.654589570801086,0.6980367117130024,0.19513027941515018
1729143975.275518,-0.6136560936039149,-0.6750312492853171,8.214180011072889,-0.04095634891297905,0.03711963342001513,0.0015226142187066093,0.99847002556132,0.7273461307898084,0.6989260874698182,0.1383626707221917
1729143975.283554,-0.9904466676369583,-1.0624665254500965,7.852785914358576,-0.06705497735224657,0.061991156706748006,0.004174293857769631,0.9958128849202736,0.8135690729292451,0.7041423035999901,0.06769276022068187
1729143975.291554,-1.4851504383263157,-1.6720144526235734,8.387010517121006,-0.09785254147916679,0.08545164674467223,0.008433432064695106,0.9914896738838493,0.9598060318574781,0.6617231967016558,-0.04324528597561111
1729143975.299569,-1.4427143254957893,-2.008294528507738,9.755008505096821,-0.10107115969578258,0.07149614842866399,0.0072824178391178475,0.9922801458398895,1.1275779387692797,0.5719925332818885,-0.165147821683451
1729143975.307631,-1.7589052347017704,-2.304872959780424,10.707488389190907,-0.1054640074117668,0.07908492539897485,0.008414342411314201,0.9912376690567578,1.256762317034317,0.49431549178815426,-0.27064178777926934
1729143975.315562,-2.2189251476569996,-2.0894526857803637,11.235880689764542,-0.09136264424064347,0.09533453442306068,0.008787301127564328,0.9912048108855149,1.358111587435213,0.4362156352324389,-0.45866535544513565
1729143975.323528,-2.257671710908653,-2.1160630494564994,11.681245279093101,-0.08907267816880779,0.09345237023833053,0.008394602765718332,0.9915958063369771,1.4210495999830606,0.40178141136047174,-0.634481625141036
1729143975.331485,-2.4576117313791763,-2.2548518128281962,11.304184365942188,-0.09772024253034776,0.10433053929511467,0.010301552661377063,0.9896765990882909,1.4196489218572625,0.37218138574658877,-0.817872668206128
1729143975.339802,-2.2735121328216463,-1.9696574353531677,10.528239116879766,-0.09181558455656802,0.10394229646364027,0.009637105133944626,0.9902893635917926,1.3315420523820674,0.3288799666905371,-0.9513202474255951
1729143975.347458,-2.132646012603144,-1.820567464141588,10.193155957920826,-0.08778306443236014,0.10099177323241051,0.008946181962681928,0.9909665792379317,1.2327034040590505,0.2816146121838045,-1.0207465434207244
1729143975.355464,-2.1640057008236053,-1.5589703820494059,9.938954785689996,-0.07726133179114612,0.10541805240132911,0.008215490680462402,0.9913880302639568,1.0733630506216632,0.18982758032192226,-1.0160021043184406
1729143975.363445,-2.178990791099632,-1.5880416017882373,9.680370948806575,-0.08070558857568041,0.10871050304459888,0.008855437130486173,0.9907523483361881,0.9356155224744895,0.09601756561174803,-1.0037902595049055
1729143975.371551,-1.8276544954117324,-1.1486706568737235,9.363372614449961,-0.060705221980544066,0.09536056535679838,0.005826330152682817,0.9935729930287339,0.8269999118370013,-0.015608151204420634,-1.0079567842762593
1729143975.379574,-1.505522340801727,-0.7196087552082184,9.150668118230522,-0.03909439053870423,0.08113403624227358,0.003184844516512075,0.9959310987999372,0.7848178087734582,-0.11663878621108435,-0.9355352483217542
1729143975.387563,-1.08862461297713,-0.7753331913573529,9.139403621182453,-0.04222635544692653,0.05897999921455752,0.002497096374213141,0.997362551486679,0.7548259562592501,-0.17938561752239274,-0.8324857181443667
1729143975.395523,-1.0774273019659655,-0.6940855935253492,9.12234985581494,-0.0378930327351338,0.0585383072975743,0.0022236123794254223,0.997563251226134,0.6772342361460406,-0.21575664612479167,-0.6399691511690904
1729143975.403551,-1.1351129400174698,-0.43009830557810014,9.040291546789746,-0.023719593605780548,0.06232603371254357,0.0014816480499157193,0.9977728454512559,0.5910900283621461,-0.24353892414669948,-0.46103139182608194
1729143975.411519,-1.0631823489714194,-0.3301244533175632,8.845967940769158,-0.018615222089819382,0.059720132240151956,0.001113885682242583,0.9980409503474557,0.4742729242881185,-0.2691477822505468,-0.22127912710558506
1729143975.419521,-0.913482020466836,-0.21794654576983477,8.842858935848215,-0.012303540626880816,0.051426154362464685,0.0006336103225053397,0.9986008071664522,0.38630367926229664,-0.29728379895671614,0.0030276533430370345
1729143975.427528,-0.6079442537840078,-0.12813430563572897,8.452893443784319,-0.007573585634074201,0.035886058527065334,0.00027196913108588547,0.9993271524565052,0.3041495180059233,-0.3520518244505386,0.26829857048105404
1729143975.435521,-0.3932575520262641,-0.15612865833260925,8.148285199571372,-0.009576247286361585,0.024104737993060798,0.00023091062276196485,0.9996635452863532,0.21143663498297216,-0.4185421546023326,0.5074908523187261
1729143975.443482,-0.002519869350524079,-0.3182533107222218,7.62482535680337,-0.020855928354910108,0.00016506145253206936,3.4432588132617236e-06,0.9997824778397127,0.13878130271072017,-0.4639703234924154,0.6914467772602224
1729143975.451511,-0.030242341532189444,0.1384901620041669,8.664431069794912,0.007991100381700748,0.0017449140780371073,-1.3944250016164012e-05,0.9999665481380403,0.09646517353175509,-0.48313911365868645,0.9073914674677039
1729143975.459799,-0.19675284876696994,0.9825956609232033,10.507800823273431,0.04660097101033906,0.009310219773344853,-0.00043435605980644777,0.9988701019869796,0.07958929725361666,-0.5001743585574555,1.0539858840506742
1729143975.46752,0.5405931674488025,0.7636158572472813,11.087337730292184,0.0343647680214588,-0.024285330602025007,0.0008352999106532391,0.9991139012697405,-0.005031989269121927,-0.5167808564186473,1.0772376446582275
1729143975.475593,0.688513972979047,2.1628410963796187,11.676874242179215,0.09140650832708548,-0.028831096048306443,0.0026475478931455307,0.9953926906634674,-0.15797037593365268,-0.43437001179810164,1.1273723562470321
1729143975.483586,0.47870950927570954,3.0696533065094123,13.036879107075109,0.11534694253871365,-0.017743285703487058,0.0020607195058488246,0.9931646450083356,-0.2965593146931946,-0.30191394304067803,1.2127928911903791
1729143975.49187,-0.41619074218848057,3.6247539602240066,13.739636287487253,0.12859858310179414,0.014518274900104903,-0.001882867007944346,0.9915886641798435,-0.47506725171641484,-0.09175345291738018,1.2768159140002482
1729143975.499574,-0.9722845063482446,4.548942742345341,13.128192579377115,0.16589998037950826,0.034440826251329965,-0.005797659737738047,0.9855239282426226,-0.6081391076795308,0.09010823920812466,1.2479706979751686
1729143975.507614,-1.1709077912112904,4.340423942526345,11.632699691913379,0.1774101017200907,0.046249355561166654,-0.008346881050385243,0.983014233108847,-0.7360851982026101,0.2928770680050745,1.0522994326075297
1729143975.515567,-0.5720606842482585,3.954584101843932,10.14212078804842,0.1847568782231313,0.025796107030459856,-0.004851226433738445,0.982433673289655,-0.8664898002606736,0.4038961137466936,0.7114093911193797
1729143975.523851,-0.19335938662317387,3.7879630624247183,9.08041874968452,0.19631119702284985,0.009633717591295212,-0.0019288335067227077,0.9804924196596985,-0.9511179124174423,0.4517771784873357,0.42982546510186204
1729143975.531511,-0.5998837874914824,3.361421332327878,8.733814188043134,0.18257083988197514,0.03146306344402027,-0.0058455306587696446,0.9826717630189773,-1.0023204697729653,0.48731685831511345,0.1906362493501162
1729143975.539497,-1.1761136184421552,2.6228252395822738,8.409253830208693,0.15024763249350595,0.06556061423996559,-0.009985919051224798,0.9864216827560499,-1.0206969924038802,0.5222627481785652,0.03137218762497354
1729143975.547439,-1.7964664474324805,2.830890435497411,8.91601870193381,0.15239761742649496,0.0936063803728842,-0.014500742832607869,0.9837695564579731,-0.9636124961485042,0.5551496038175731,-0.17188583496000603
1729143975.555503,-1.8107449966333165,2.5427297666695403,9.765955603484505,0.1264909461898663,0.08793696086056284,-0.01125835020624131,0.9879981685191698,-0.8995634940929363,0.5595568749883446,-0.4611368426655722
1729143975.563437,-1.923220478204599,2.054038166398209,10.201936913116093,0.09874684353104046,0.09079562313752786,-0.009047932288239231,0.9909204562592457,-0.8577285723678993,0.5592214072605733,-0.6887500850945899
1729143975.571489,-1.8721927849696343,1.7938631891455656,10.151561222576687,0.0869732664577105,0.08936277042836221,-0.007833559055117637,0.9921635860761944,-0.8198569174890162,0.550932015456132,-0.8555420249158048
1729143975.579486,-1.7757356233743586,1.9552293429306988,10.187415774073356,0.09431420806186454,0.08428797418059941,-0.008014183495570476,0.9919355525582765,-0.7915999537626799,0.5382959592671507,-0.9479547677022171
1729143975.587598,-1.8129111323253966,1.9814200862271694,9.085329665860028,0.10664105061193302,0.09557049921206787,-0.010298427137040524,0.9896402924311654,-0.8197689220418536,0.5511474485039393,-0.9250754420650507
1729143975.595548,-1.9223653781257066,1.8381595419706767,9.766267451615628,0.0924442278850709,0.09498282672706196,-0.008859126752233513,0.9911376510005347,-0.8634887768814657,0.63377979286333,-0.8091822319318633
1729143975.608714,-1.7275487849808926,1.7577098792351402,10.413532028586564,0.08322453443177198,0.08070073965802008,-0.006762028045160447,0.9932347871797381,-0.8782270581257582,0.6625003864673249,-0.7307068145612482
1729143975.611587,-1.4966948300705667,1.5995462253926467,10.346034778675374,0.07641908551443556,0.07073327928182396,-0.0054349995918274285,0.9945488360812724,-0.9241050622195304,0.60183146138217,-0.7117171081953733
1729143975.619579,-1.7853080332962463,1.3190974044250412,10.461398956804834,0.06244461234838879,0.08359977103023768,-0.005249082886208692,0.9945271217021711,-0.982707239162522,0.5816063286666344,-0.682018611732981
1729143975.627771,-1.833259208405482,1.2109225735143998,10.635962336729385,0.05643954366063635,0.08456859273675474,-0.0047979314699102445,0.9948063685398854,-1.047241159569197,0.5532950267017558,-0.5173364426511446
1729143975.635532,-2.187401919086258,1.0698820621750462,10.468719056090366,0.050622225521418436,0.10216087933409693,-0.0052056279121688465,0.9934653725495332,-1.0868128919361264,0.4030672562852127,-0.22143264274512214
1729143975.643812,-2.3953385623404264,0.9038548989261216,10.416735961242109,0.04297757077380906,0.11225910776590536,-0.00485992024548392,0.992737227220372,-1.098636609635347,0.27844969905686234,-0.00472687714700179
1729143975.651484,-2.317072247511678,0.8063933824709072,10.50621386800503,0.038059261212563734,0.10793534586410171,-0.004135146585042265,0.9934205324593763,-1.0559251030638217,0.1943139833676874,0.15935178712883297
1729143975.659481,-1.9583874024620844,0.5927722050196537,10.2000521025413,0.028885280219044775,0.09450750761940639,-0.00274331472498959,0.9951012239036563,-1.0043311053717225,0.12084529063523276,0.31058455331562573
1729143975.667499,-1.672308126291704,0.6039420351699952,9.385004065479858,0.03199672293292047,0.08783219411929641,-0.0028227135721819925,0.9956172696803895,-0.9171836186434749,-0.000711516190329789,0.5383964128184756
1729143975.675579,-1.5076037454039284,0.4995529762289503,8.361350012530101,0.029709855952560867,0.08888218664253128,-0.0026523594834112706,0.9955954230238762,-0.8031700676945317,-0.1392018697508202,0.7683096519803704
1729143975.683586,-1.2794942272228258,0.5465739768994795,8.244912105906733,0.03299013151942793,0.07669544322117125,-0.002539065776634169,0.996505400565607,-0.7083691533145198,-0.270399058832324,0.8943382737565704
1729143975.691611,-1.179738642046586,0.29897454605179713,8.127883589227634,0.018332996922549583,0.07194779648801639,-0.0013226705964498996,0.9972390216727633,-0.6072168382944614,-0.4508572969706519,0.9099331481561439
1729143975.699658,-1.331293297532639,0.09822129135178138,8.413205425753377,0.005818343441197048,0.0783815672922039,-0.0004574661187479909,0.9969063484165241,-0.5180042151644703,-0.5974443453852314,0.9022624703374067
1729143975.707639,-1.1277392866250522,0.03259655654935008,8.032774465168822,0.002023828450209747,0.06968308771075808,-0.00014137055353015166,0.997567116248258,-0.4095626233578735,-0.7935218500453352,0.8580708879301955
1729143975.715996,-0.9100782338402656,-0.08028027529890558,7.5083531434567625,-0.005335724881749181,0.06026935874334954,0.00032217098684457496,0.9981678369104601,-0.32747006581543414,-1.0763360966886657,0.8183595465805459
1729143975.723506,-0.947315138546347,0.05502192637339102,7.40247473519515,0.003708551294114774,0.06359534711657994,-0.00023632662201625415,0.9979688485229128,-0.27651177104412245,-1.309452463832507,0.7889987709717496
1729143975.731504,-0.7005490147684331,0.17546815460333146,7.394732588919824,0.011848147402512317,0.047193088762268236,-0.0005598138507525069,0.9988153585045925,-0.2510450749188798,-1.5285006355507493,0.6981636150350025
1729143975.73949,-0.22089241057004425,0.02076557415848325,7.484897686896816,0.0013870038941035392,0.014750986210592221,-2.0461921296659414e-05,0.9998902360796021,-0.22725125601449356,-1.6778085211631,0.5878971234214281
1729143975.747516,0.8002455204548484,0.25594965333298053,7.069493800126371,0.018063666115998703,-0.05628302537468202,0.0010184591507739482,0.9982509142305259,-0.174662859140279,-1.6375577837845907,0.3714686367571862
1729143975.755482,0.5488608999193935,0.4657736884841633,8.231633346726213,0.02824156301390785,-0.033216848338284324,0.0009389890375693688,0.9990486341538085,-0.11756841732802834,-1.248165268623062,0.1500881815443043
1729143975.763528,0.6953899737895266,-0.1529286067337208,9.6304181611119,-0.00793376166369384,-0.0360278161023914,-0.00028603082074806293,0.9993192533315495,-0.07352088082705123,-0.8859713609646114,0.03215906056774629
1729143975.771593,0.8477114427698097,0.6803728713601581,8.818408164733546,0.03844537917904571,-0.047722955774628005,0.0018381851661566629,0.9981187771939807,-0.04028131794307245,-0.6333227412681923,-0.0002863064866056794
1729143975.779545,1.161525658386495,0.694091401038751,8.237588881994423,0.04191142605136256,-0.06967748064777925,0.00292999712472807,0.9966844516564751,-0.02416879076584347,-0.46428027693039764,-0.012942485735824355
1729143975.78757,0.984937854748694,0.01877794487129747,10.595502868991575,0.0008851372769887082,-0.04632918328608667,4.1051783573422405e-05,0.9989258338949876,0.005931848490671436,-0.3428473654390054,-0.049908807526235735
1729143975.795545,1.6444114433179662,-0.4158588092490965,12.91406238789885,-0.01606122043438977,-0.06324377390912868,-0.001017942099251892,0.997868341041929,0.1814975547855321,-0.37811289415552607,-0.18659922713376906
1729143975.803558,2.2507853425532796,0.602820505466167,12.069492588989313,0.02483959067088612,-0.09191303436462805,0.0022935072106598153,0.9954545337050127,0.3438794467983607,-0.3558518251163112,-0.3286357775644355
1729143975.811563,1.7155869587057957,0.04086928081876272,13.247789838061557,0.0015391630917936194,-0.06434670611401772,9.924587023580527e-05,0.9979264113848828,0.4383287515758236,-0.04493783073082222,-0.4313110003427787
1729143975.819524,1.3585549034949616,0.4918697325537576,12.440914477788105,0.01972631514350731,-0.054305326034177315,0.0010730370953277476,0.9983289300859577,0.476693661799434,0.2088695956114722,-0.4686518005064488
1729143975.827502,1.0808893263743207,0.13423148796975456,10.97756078262013,0.006105905664234529,-0.04904932849057647,0.00029985710340263904,0.9987776486167281,0.5031181284252966,0.3185850452706457,-0.4731772980232455
1729143975.835508,1.067040046019905,0.08460903560411838,10.402175655363093,0.00406126646497747,-0.05108615650919643,0.00020774748058432078,0.998685970447569,0.544939902149998,0.4095300286924096,-0.46482465493531067
1729143975.843446,0.9342319914791304,-0.003822376489091473,10.49699884414559,-0.00018188345969414184,-0.044368444077381775,-8.07784101346272e-06,0.9990152191149582,0.586209188720376,0.4921925628019621,-0.41766975299780873
1729143975.851796,0.7757779241355252,-0.415293212270408,10.026689551848682,-0.02068006510147087,-0.03855795741487653,-0.0007981456674929548,0.9990420320441402,0.6420461351493312,0.5741425279388079,-0.2855084368385718
1729143975.85951,0.5744029300184245,-0.3638581868837291,9.60587970034749,-0.018920400938019298,-0.029831823270047627,-0.0005647826587018504,0.999375686000654,0.6772510632525524,0.6186299163448331,-0.18833266456162434
1729143975.867471,0.48278719380207025,-0.38973975099742497,9.232007765276853,-0.021086507647885184,-0.02609169256611004,-0.000550492612437434,0.9994369813710792,0.7132731722656562,0.6470251096342963,-0.14748049371539915
1729143975.875506,0.22191640929882028,-0.9307959538699393,8.4258936008165,-0.05497856980396349,-0.013065936382709541,-0.0007194964067890541,0.9984017830982046,0.7399947184110629,0.7057798516312533,-0.08848829622923948
1729143975.883731,-0.11584712707695782,-1.06652716460712,8.068160109464511,-0.06566480814357281,0.0071014609584660535,0.0004673365672436781,0.9978163577634194,0.771778178372402,0.773810831562004,-0.030105714418593978
1729143975.89157,-1.093508326295003,-1.6031036266451313,8.808327636723629,-0.08971990717120983,0.06048502903248125,0.005458843437340032,0.9941137261643941,0.8406539915402633,0.8993417417513987,0.034722138970135534
1729143975.899799,-1.8354887335699703,-2.167103291709735,9.862231315920898,-0.10748538981694655,0.08926094363777595,0.009689747798457831,0.9901441731911546,0.9113520936818602,0.9797685686025799,0.07149040069606308
1729143975.907556,-2.1183501053763574,-2.1456545812270127,10.258984080079882,-0.10237362909229551,0.09902031205229175,0.010242025366853253,0.9897523522497558,1.0227327449236674,0.9407582021135721,0.03736026961863144
1729143975.915975,-2.2253388449640954,-2.5402784774959737,11.177707270557693,-0.11096804500407212,0.09513231051855305,0.010671873580037503,0.9892027333148992,1.132130141814955,0.8692490052749579,-0.08570911384017718
1729143975.92351,-2.2593651477987695,-2.547688296214381,11.668128462676414,-0.1067914060521924,0.09280988001533463,0.010012526966209996,0.9898897267214596,1.2011741004414236,0.7859029313328962,-0.2038225103075136
1729143975.931495,-2.371718273249574,-2.2947575089786283,11.325284116180068,-0.09925972480642051,0.10054093951691451,0.010081307013623083,0.9899178722304729,1.2030112999013358,0.6665078069493482,-0.3321587064852898
1729143975.939464,-2.7151815999360727,-2.317296917496552,11.00896539158304,-0.10279036423451433,0.11749705956447375,0.012228422357693853,0.9876634283504073,1.1700584146603208,0.6055129838557701,-0.4253366465275126
1729143975.947642,-2.7266110009772686,-2.2532484288182437,10.592443259608027,-0.1037795487647389,0.12233857789532263,0.012863938938187002,0.9869638274484692,1.0813248935588626,0.5616793589547688,-0.49401411239670723
1729143975.955458,-2.378408535400814,-2.0740402779940714,9.851479219924972,-0.10283928067828702,0.11511505591828043,0.011982840931745946,0.9879418089005587,0.9540147102035943,0.414057516497489,-0.5305380012421417
1729143975.963436,-2.3289408866213477,-1.423749871142146,9.612323298556545,-0.07292920875884852,0.11702966329720209,0.00861752648526448,0.9904095752039292,0.8588982374861038,0.28717230549153827,-0.5490468140577061
1729143975.971537,-2.201098029287262,-1.2933465071579437,9.09605254724916,-0.07005444084423394,0.1170082836948934,0.008274544296914654,0.9906225157856324,0.8256669972974833,0.17954011433977748,-0.550361230333418
1729143975.97956,-2.020483962836029,-0.9469539028299224,8.84925760012684,-0.052931409700117726,0.1112313688256244,0.005932923987772297,0.9923661868832954,0.832972417117881,0.08133128479322053,-0.5239057161652751
1729143975.987538,-1.6444437773598204,-0.8707994315417034,8.70213831251751,-0.04962309462447457,0.09268141665742631,0.004624816878288949,0.9944477435014397,0.8394841193174298,-0.0848679084231456,-0.38671074014771045
1729143975.995517,-1.2739704656346422,-1.0956515363664283,9.132450819541758,-0.05951896401160542,0.06863842744150905,0.004102287441074559,0.9958561293877207,0.7429282861321196,-0.27525940744437805,-0.18732898763511296
1729143976.003581,-0.9626221768417228,-1.0011982802182944,9.095193838893023,-0.05471352926089244,0.05230608294887616,0.00287009616922712,0.9971270059277013,0.6309321484152555,-0.4133329502989912,-0.00725194739994596
1729143976.011532,-0.7406184391616742,-0.8145211763829298,8.600224242788938,-0.047151396810393695,0.042701038462575704,0.0020175039099181767,0.9979725931963361,0.4913671553365916,-0.5068193275483099,0.27745565224789737
1729143976.01952,-0.6655952968954421,-0.3888744966012422,8.738987187274926,-0.022216233516825223,0.037952627546321824,0.0008439812462272781,0.9990321940389669,0.38336382598605756,-0.5624854638364392,0.5457632361114086
1729143976.02749,-0.4663948246216402,-0.23931020211113593,8.906281432238002,-0.013426499461300648,0.02614482178686467,0.0003511851709156701,0.9995679336968171,0.29344611474947724,-0.6410082921242921,0.8659558694163151
1729143976.035709,-0.20130708031985914,0.08769375910441221,8.140196398405301,0.0053858021645710255,0.01236127049524441,-6.658141032515618e-05,0.9999090897145116,0.22289357561050982,-0.7753884516967202,1.1585343039042986
1729143976.043475,0.05638667465964701,-0.0778677350158683,7.647505395195525,-0.005090820706376502,-0.0036862917430513756,-1.87666210318165e-05,0.9999802470276773,0.1580004788696417,-0.8790038107591268,1.365582429145279
1729143976.051441,0.21148176797938195,-0.036186153704833475,8.11037387920716,-0.0022306423306447465,-0.013034247439354774,-2.9077286544102946e-05,0.999912562068801,0.07904975504768985,-0.8594405343958607,1.515352707977589
1729143976.059427,0.3356634455532541,-0.25299157259399385,8.526719245737185,-0.01482734682770238,-0.019660803614492427,-0.0002916059944733515,0.9996967127850463,0.03082794063159468,-0.753625064994792,1.592018483371652
1729143976.067617,-0.2446417019551569,1.3438628335432132,10.540813669024342,0.06335680495980041,0.011485909581911235,-0.0007292239828553921,0.9979245749948965,0.05510610966469153,-0.6007408704471242,1.599280153015045
1729143976.075485,1.4487109651550312,1.4364715770790528,12.027955396238823,0.059287978052598306,-0.059374919278419834,0.003532698885823088,0.9964672973347886,0.08840337378887902,-0.5984052666255502,1.4644365047029964
1729143976.083507,1.2800715839758312,2.1758208173411817,12.811064836864388,0.08391242717623223,-0.04890265714524886,0.004123067909324767,0.9952639021890339,0.07815773789958728,-0.5629486994156432,1.340961309569564
1729143976.091584,0.35528258417456116,3.914214619310959,14.200543358905742,0.13406468346087616,-0.011948239208012947,0.0016165487432088317,0.9908992315056683,-0.0058909248815395485,-0.177709756539662,1.3417976433068222
1729143976.099541,-0.8038873147296383,4.232765478129544,14.809654356407897,0.13869650932949096,0.025816976037625085,-0.003616923505417924,0.9899917574972243,-0.09037532746717818,0.2002966803903276,1.3852941397568426
1729143976.107567,-1.346639188154189,4.591490109631632,13.445070835280285,0.16360934586283393,0.046595364978641404,-0.0077364368919223755,0.9853938306347672,-0.24408296389237302,0.42837761273270747,1.258569305561985
1729143976.115585,-1.225292862257748,4.405217270124682,11.379659918160359,0.18338666616885166,0.04916735533305014,-0.009184085610034008,0.9817675663885701,-0.3899444934917059,0.5311709672211729,1.053124626360613
1729143976.123522,-1.1668502766808204,3.9948966193990283,10.324766895720433,0.1832815389310619,0.051590534743637215,-0.009632262233965553,0.9816585525202657,-0.5430176807164584,0.6379701264292275,0.7663928352383699
1729143976.131522,-1.064747078850289,3.944549924764417,9.354248648174446,0.19792672923382648,0.051189840483745204,-0.010351025495995881,0.9788245329767892,-0.688498540795526,0.6841706393726549,0.44834206948354705
1729143976.139533,-1.2168085280718923,3.6363750952395097,8.727405548767948,0.19569567620975445,0.06271241217257457,-0.012541217587141835,0.9785770657100727,-0.8153762325589354,0.682518332897831,0.1864213697664941
1729143976.147488,-1.444036051901729,3.0832419821925336,8.790156853430691,0.16736066408263767,0.07573170743144139,-0.012895037441513482,0.9828981812053164,-0.9153414910588549,0.6713103875378481,-0.09375547782626478
1729143976.155492,-1.611018347449631,2.9017179786221607,8.751672023435367,0.15877407106912228,0.08527873007313802,-0.013766807641297481,0.9835287527879486,-0.9672325349910279,0.6633085501374721,-0.3346545868919275
1729143976.163511,-1.6865474476787627,2.883304399233843,9.598155168406922,0.14486967426150665,0.08238112206028556,-0.012104706704009217,0.9859409740360034,-0.9732514477240719,0.6261550030261321,-0.5834881173895229
1729143976.171544,-1.8142254449256172,2.431483725966087,9.813473612518761,0.12064428530057243,0.08800826403732728,-0.010738735035548019,0.9887285681395509,-0.9530241519220246,0.5455433363390298,-0.7357680661183144
1729143976.179558,-1.9765446627073235,2.278664884017152,9.663979605743679,0.11494130440613579,0.09743520707093208,-0.011329421752901518,0.9885173347833641,-0.925988622289625,0.4699321723931985,-0.8156424036961144
1729143976.187575,-2.0373049079759564,2.264545712636854,10.018168189471599,0.11037194150935539,0.09714806214192695,-0.01084089311630959,0.9890716675681113,-0.878691930023457,0.4037066610140601,-0.8495192342145474
1729143976.19556,-2.0160607951273706,2.5752212911075034,9.755192890001318,0.12803930692340426,0.09763324594990481,-0.01266720826108521,0.9868704205734053,-0.861381856261769,0.3648227343095012,-0.8557975604973602
1729143976.203553,-2.1914985779065,2.0175087622133296,9.602196113639462,0.10271422359707762,0.10906473180447893,-0.011331122064825271,0.9886487132546214,-0.9093153504250546,0.3742705130193422,-0.7893256961258126
1729143976.211573,-2.0776917956696814,2.308964979007685,9.954043615449303,0.11312400975231444,0.09948028703386194,-0.011384270215853084,0.9885226498674025,-0.9189193941572344,0.40207506344127253,-0.7017652906191364
1729143976.219659,-1.8803602568451678,1.9865630242698455,10.281749737384816,0.09489441315131437,0.08831417642050886,-0.008452143665755816,0.9915262063421665,-0.9285130309497006,0.4051357117276457,-0.6556143982370612
1729143976.227548,-1.586466351861007,1.732787969591204,10.42330677236253,0.08203684917718682,0.07419371564435583,-0.006124314256025231,0.9938449278991454,-0.984074950216238,0.46656870930415395,-0.5968484883210878
1729143976.235486,-1.3837937906087916,1.290824535905113,10.364828313905798,0.061771213281976364,0.06568520764351875,-0.004074084340315987,0.9959182559544174,-1.0318855638658695,0.5694104673766738,-0.5113575151189841
1729143976.243499,-1.5964208056152749,0.8669109056250991,10.531333018616916,0.04093451649941222,0.07483806226140903,-0.0030746811635407765,0.9963504283793224,-1.0780252245755917,0.6524000252932873,-0.31490262023916904
1729143976.251548,-1.7132231071484616,0.9293156070957624,9.992223418347885,0.04617964324077075,0.08435297297411383,-0.003913558603590857,0.9953575742212644,-1.1082631613701972,0.521701173983354,0.0047474058217229775
1729143976.259516,-2.1103524348457174,0.7280565224605825,10.412875534163026,0.034715009641284655,0.09951662088761892,-0.003474091728468283,0.9944240750099415,-1.1212976427094161,0.37985404403955136,0.2825268138735886
1729143976.267491,-1.911927648651571,0.7088152220700995,10.326247848573988,0.03411197517679523,0.09114889275942047,-0.003124114700097911,0.9952479552380955,-1.0720758632770353,0.2560079704802249,0.518156248661557
1729143976.275524,-1.7042873155093021,0.751379399355341,9.828470888099472,0.03799582367392719,0.08543628122299704,-0.0032605240231451237,0.9956135436087735,-1.0067848304547962,0.14934788167351462,0.6735816815625851
1729143976.283555,-1.4894417130360502,0.6730095536757046,8.516099728904607,0.03926906484575101,0.0861350780952274,-0.0033977219505207743,0.9955034627530013,-0.9080136021567682,0.017241418555563395,0.8302647604610447
1729143976.291751,-1.4151221494036612,0.696616595242532,8.472794909364248,0.04086021969322615,0.08231002345529072,-0.0033775159343361234,0.9957630716548611,-0.7785120050367162,-0.13864667037837303,0.9498160114878423
1729143976.299666,-1.2654249583433685,0.584127552360363,8.103962339905658,0.03585801434066557,0.07712505888628905,-0.002775619937972277,0.9963725327573473,-0.6710127424623429,-0.30071562363412196,0.9862144870025723
1729143976.307552,-1.3075271551818024,0.2867907672560615,8.156559468152379,0.017514584147565165,0.07933171769312501,-0.0013940716538549329,0.9966934205031255,-0.5660726290788258,-0.49501432960091457,0.9165302090970735
1729143976.315624,-1.2434847513610345,0.09043218374230876,8.099292863508616,0.0055656194745550315,0.07609077373271163,-0.0004247302657452578,0.9970852709958277,-0.4852295784673103,-0.6358578866843259,0.8670572212474575
1729143976.323647,-1.1478378893908394,0.12416999872194776,7.985205985439153,0.0077537026757915645,0.0713125423332812,-0.0005543644436499726,0.9974237284528793,-0.4026685431834384,-0.7910285711370699,0.8054466739280357
1729143976.331536,-0.864676555655988,0.3409766440085593,7.671108768265445,0.022171980751263844,0.05602432029728186,-0.0012444320143295134,0.9981824132861462,-0.3292932785712416,-0.9935333276044584,0.5777711980013924
1729143976.339588,-0.8209541829053115,0.2931714478309168,7.84058358615458,0.018659571058704482,0.05209394097662032,-0.0009735426716575517,0.9984673724945127,-0.2737744881444486,-1.160159327999867,0.3313378765882023
1729143976.347496,-0.4468432580342026,0.2333637085423001,7.288172583333372,0.015995810314561317,0.03059270745606341,-0.0004896470669100326,0.999403812554584,-0.22513837167573966,-1.325691197702265,0.032357911921267024
1729143976.355461,0.04098547950565031,0.4888534070101457,6.741966092724632,0.03618310388664286,-0.003029593205848036,0.00010969241920326285,0.9993405788447243,-0.1810575496433432,-1.4628967349938247,-0.19598442394702778
1729143976.363476,1.161837076277609,0.8157268464521812,7.1851751329297,0.05630607076449408,-0.07944158827434575,0.004494446734652175,0.9952378913586754,-0.12438506206010108,-1.5550109287823872,-0.4164250775145628
1729143976.371865,1.330608005043909,0.3041248993752149,8.513168413498054,0.017797760901817932,-0.07738431690215479,0.0013816314373011577,0.9968415111235286,-0.0942127800633141,-1.2952687995736212,-0.5721024230354956
1729143976.379516,0.9946893391591579,0.7147059686778633,9.935329855471878,0.03585210745759305,-0.04971160480192868,0.0017856257614015975,0.9981183267927236,-0.08462321209448254,-0.9955402812741949,-0.675299701761682
1729143976.387557,0.9758157262982291,0.4266687997125773,10.24155164131047,0.020792360613361923,-0.04742764455636388,0.0009874580946137594,0.998657759794851,-0.08057223155903173,-0.8025067783892161,-0.7431777298578623
1729143976.396029,1.759845350085578,0.5950202349056714,9.184609412520658,0.03219132131273495,-0.09427368579706306,0.0030499802118340033,0.9950210493346783,-0.08665544446700188,-0.715633600837647,-0.8005064591125897
1729143976.403853,2.49937139095955,1.7343963560312934,10.817753047414737,0.0788847421315632,-0.11155772076190826,0.008883868286233335,0.99058222742058,0.02761077481319879,-0.6520160626472307,-0.7816924389826722
1729143976.411545,2.2832450379448703,0.9070413609820572,12.000906949298452,0.03753754003897019,-0.09353960657209051,0.0035292408721790563,0.9949014119745873,0.2260059751272388,-0.44314382508670624,-0.667812722092372
1729143976.419549,1.5645956177376252,-0.3603045706177969,13.089322572899384,-0.013734094295666051,-0.05942090478056405,-0.00081761454581589,0.9981381979642856,0.3177989313820928,-0.12328012446224312,-0.5986335118352679
1729143976.427555,1.3270968799199188,-0.5171338910523188,13.493614394569711,-0.01912773298548687,-0.04895306736345313,-0.0009376575427045693,0.9986174682153711,0.3315827691731882,0.2789289862746783,-0.6184253545315379
1729143976.435521,1.5679093230203107,-0.8427507838501411,12.218983895530888,-0.03435142845589159,-0.06357976086002332,-0.0021897863326749015,0.9973829746931914,0.35815774449071275,0.504503920442736,-0.5949681850479513
1729143976.443523,1.5325922442028115,-0.8228821902807878,10.909285298256032,-0.037539806280597325,-0.06948530718239265,-0.002616647318934953,0.9968729649192981,0.46434902271117817,0.6504911324801214,-0.37996817434772046
1729143976.451448,0.9676787998908275,-0.934022999471207,9.793305730955572,-0.04746569576984478,-0.0489492319590989,-0.0023288353893534458,0.9976700641702287,0.602985240460775,0.7742671149268253,-0.09984819610856077
1729143976.459442,0.4829238522001214,-0.7490768905030366,9.468483029637795,-0.03945062262386862,-0.025377827795224257,-0.0010022749143242995,0.9988986984053894,0.6925523220324635,0.8417216634114552,0.09333950446119493
1729143976.467502,0.2095485557048385,-0.9802406423584626,9.056674738436975,-0.053877370482789684,-0.011482578146289035,-0.0006195920637370744,0.9984813445701672,0.7173456467960586,0.8030160410702951,0.15178396650567405
1729143976.4755,-0.027260352661081285,-0.9343459454736713,8.534495992964528,-0.05449515900660025,0.0015852178712674665,8.651536797197729e-05,0.998512772699597,0.7173224895030444,0.7487172931788708,0.1596064797987915
1729143976.483571,-0.4013438385497738,-1.2575596705556873,7.921195277663482,-0.07861557010968934,0.024919323732852286,0.001965746954985892,0.996591568938818,0.7296536069096349,0.7340170270254216,0.16089446728296572
1729143976.491552,-1.325619075346661,-1.8716702969623185,8.51233203354145,-0.107685594959953,0.07495703045188017,0.008142454078723278,0.9913218229543485,0.7932433654665774,0.8669516578002086,0.18933711376850232
1729143976.499542,-2.0458629723076065,-2.214758135208641,9.380091502839713,-0.11501524626720477,0.10369179377614073,0.012072660331064654,0.9878632273255803,0.8726891565625599,1.0092888752999993,0.22896427491731192
1729143976.507532,-2.274981009702923,-2.75795385207245,9.852144890717499,-0.13520323531293532,0.10816922046061714,0.014850802664368213,0.9847837115661903,0.9859129006853022,1.0695754921736143,0.256146092098294
1729143976.515552,-2.361455336778785,-2.645014117884095,10.202414569928546,-0.12569521140709727,0.109100617195482,0.013908794957928168,0.9859535052829359,1.0687462993101189,1.065732596520352,0.23116324644506614
1729143976.524096,-2.6307334437664895,-2.7314368642851443,10.960848557630957,-0.12097966028774106,0.11330648868044575,0.013901439784508357,0.9860691210009005,1.1461161924800407,1.0106412915071026,0.10421705288861513
1729143976.531689,-3.0487193057618467,-2.724632571451946,11.256215699519979,-0.11744403820362048,0.12744463451213936,0.015199394187509528,0.9847505985988668,1.192963818443456,0.8839346949775062,-0.0971035413150928
1729143976.53949,-3.2092494203711706,-2.382249301171949,10.77479110794441,-0.10745127180990409,0.14020395033758692,0.015307629023275704,0.9841558580783103,1.205747551808872,0.776409672511558,-0.26685025490545117
1729143976.547467,-3.111876574830124,-2.161257028212935,9.335043614961958,-0.11205486250420017,0.15535532286669645,0.01773965272684035,0.9813224425066821,1.1542468732848992,0.7148744894622233,-0.421058160619496
1729143976.555953,-2.9198564148687773,-1.7226826922695575,8.072560542756472,-0.10335161237660644,0.1682494566671085,0.017740995098237313,0.9801509177893488,1.0790746997784642,0.6673111280960717,-0.5518950095795059
1729143976.56349,-2.732339428755251,-1.1901904039359532,9.238093472870679,-0.06334300042064675,0.14189479250892226,0.009098948200185525,0.9878110858348423,1.0114098224171155,0.5063835021616889,-0.7074470200801395
1729143976.571642,-2.5068229187277598,-1.0643859452424311,10.448814705548578,-0.05037432477023809,0.11672975417192856,0.005928394291691881,0.9918676555045164,1.020190943129902,0.2012387964846637,-0.8012039164419816
1729143976.579691,-2.4414237011878277,-1.224492713385693,10.880521220790083,-0.05565437345558412,0.10930256181145685,0.006129564345531058,0.9924303346520867,1.0190742646356434,-0.0052609803019631335,-0.8693773759800238
1729143976.587775,-2.4871783295994154,-1.0306189532267285,10.389920590140065,-0.04906383209136905,0.11651940335366973,0.005763230295957979,0.991959048650281,0.987754573113822,-0.027420921684513683,-0.933694405083261
1729143976.595661,-2.6879713068416806,-0.8640164622680684,9.973455927082085,-0.04280802075356208,0.13066209454437652,0.005647110887212331,0.9904862445016925,0.9374616936525388,-0.023263593994100717,-0.9501487393491775
1729143976.603583,-1.9898695455796176,-0.7784201776538098,9.409697291600814,-0.04102555258196523,0.10358047152663999,0.004276105815883396,0.993765417426424,0.8081001816551154,-0.1552872568018549,-0.8646667661412324
1729143976.6116,-1.6203290430215986,-0.7584264486333014,8.761392995321817,-0.04297495879033935,0.09089281761300018,0.003926038792616971,0.9949252408310573,0.6393856013037867,-0.3928581573503832,-0.6967385053758687
1729143976.619611,-1.46085398465085,-0.8678162353909182,7.995323656079807,-0.05380545939093619,0.08959190196460051,0.00484713292242951,0.9945123271958614,0.5011218177457928,-0.5520026100765194,-0.5568180632621436
1729143976.62755,-1.33619910954051,-0.19388121462322286,8.345161633833431,-0.0115759943582583,0.07927479697982318,0.0009206443267349571,0.9967851600683314,0.3811285122637996,-0.6113056264879284,-0.4243371309872368
1729143976.635472,-1.1661169584000872,0.14870939500536315,8.7173912930442,0.008508935318466549,0.06642886283044058,-0.00056651087207055,0.9977547209952116,0.2899764762088123,-0.6383736351055331,-0.2963199046156212
1729143976.643517,-0.7880162162998179,0.0018372764075147614,8.849988845650739,0.0001036946309535683,0.044389052209244065,-4.607447880182791e-06,0.99901431484747,0.20335849996616756,-0.6980348265452232,-0.08286305906333966
1729143976.651531,-0.45988104081504694,0.012833953979274483,8.185429501238099,0.0007836294255406547,0.028058215218426257,-2.1995909827457086e-05,0.9996059833753796,0.13563718194648555,-0.8210980040087538,0.1371601015438281
1729143976.659524,-0.18399128073902812,-0.17162533195813845,7.791003457578797,-0.01101152637935785,0.011801885731639617,0.00012997370982057008,0.9998697139561777,0.08351075947520148,-0.9247342147892144,0.29726954196462285
1729143976.667509,0.42087857994525496,-0.6893151857471487,6.8674513750843875,-0.04997461722316892,-0.030409295454530826,-0.0015223017006514938,0.9982862790707328,0.04159265445588025,-0.9549891866478384,0.450803364514474
1729143976.675733,0.6995245979183249,-0.23139036511039857,7.583444106300632,-0.01523420190144035,-0.045948867862280245,-0.0007008161231046065,0.9988273772235934,0.03517215414861691,-0.9263162630021892,0.5842155940062017
1729143976.683552,0.5825204716416199,0.3941150704845422,11.437705799717877,0.017215308814217123,-0.025421359029633495,0.00043784299492028285,0.9995284868081696,0.08921370232309521,-0.8312112275672479,0.63318755721451
1729143976.691611,1.6457330617935657,0.7208160381403347,11.859561764742834,0.030272917509141798,-0.06873256637305392,0.002086633136992542,0.9971735208816016,0.04331165991876836,-0.7332819604059281,0.6174475886245196
1729143976.699567,2.386850707437467,0.9508342823080288,11.51005478589648,0.04097679488240632,-0.101636314909203,0.004190002371750114,0.9939685134112485,-0.020838910809562457,-0.6076910604595973,0.6595121049074313
1729143976.707894,1.1211036288081837,1.569840342334036,13.726634560991013,0.056855654125896604,-0.04040700124609816,0.002302981778541843,0.9975617299792239,-0.10445239976153631,-0.18497343033878103,0.830762505758655
1729143976.715609,0.30682816361303517,2.4418715454883118,14.414696960959843,0.08380100370410017,-0.01045475338781241,0.0008792601811283377,0.9964272762280844,-0.19718949927892376,0.1461327389197985,0.9884267641979914
1729143976.723501,-0.17742755251577264,2.9804131580058777,13.672571520081764,0.10710558174462906,0.006302727574363442,-0.0006789767351440012,0.9942274432818986,-0.33754408122030055,0.34139091998325,1.010658008813048
1729143976.731516,-0.39759145338446356,2.511296796170714,11.59852086615062,0.10639628018147544,0.016649467240740897,-0.0017818064952711346,0.9941828061125166,-0.5515922991310462,0.5441095309751891,0.8379701987231739
1729143976.73952,-0.6410201711029437,2.6480940090989127,9.740217168127872,0.1322693782442857,0.031426502170525845,-0.004195756716442794,0.990706607510908,-0.7234416161466208,0.6853224403976061,0.6573076115446218
1729143976.747464,-0.7597835028082507,2.3181302311429413,8.873513661472426,0.1273047480366783,0.04097887333121277,-0.0052641679908843955,0.9910027858705474,-0.8550724404739217,0.752171203469651,0.4458930643636789
1729143976.755523,-0.7922554349369035,2.072507351332249,9.07534335801627,0.11191769990687724,0.042171134518054564,-0.0047538725834162885,0.9928108704866577,-0.9498014673443974,0.7637592271949218,0.30669932427271424
1729143976.763461,-1.1550671122805016,1.941893035066927,9.59938531534687,0.09945575953877425,0.05837239375402024,-0.005844564122864769,0.9933111580024685,-0.9998278424832904,0.7089869825180897,0.2065811678211162
1729143976.77159,-1.5106601343116601,1.8192317145948438,9.309513990721793,0.09603001621347923,0.07851705890601784,-0.007598903164201195,0.9922477332387759,-0.9706727490234037,0.6237637581521605,-0.02717127112635151
1729143976.781978,-1.8695834084678553,1.7291149308565157,9.054427759667451,0.09371800660237387,0.0994407633952225,-0.009408055690204573,0.9905755692030683,-0.9318951898743701,0.5543251508897357,-0.2615002380779411
1729143976.787549,-1.9760011974244633,1.7693764060236747,9.182455295937189,0.09449933078594919,0.10346311722597844,-0.00987510987174078,0.990084714587551,-0.8656339581772848,0.5058509455488882,-0.4740392386359782
1729143976.795554,-2.0403307111304594,1.7590567872177207,9.507071689525205,0.0908371124548835,0.10336811091808688,-0.00948028079378453,0.9904412031625885,-0.8118294471307865,0.4920912645570129,-0.6053938495239588
1729143976.803534,-2.216355594647026,2.029155887516179,8.493248527631138,0.11605015764029505,0.12311110030594373,-0.014497604542646708,0.9854774666909678,-0.7808238106872737,0.5476889651811925,-0.6782469551962786
1729143976.811537,-2.566657934424934,1.690348360390567,9.93439125158845,0.08348801673157058,0.12393475582197702,-0.010465150008193914,0.9887165458294312,-0.7571121480836216,0.6653342177251825,-0.6942889646046384
1729143976.819547,-2.6298353563580856,1.7990283204335589,11.223329420142521,0.07885348393657025,0.11307973953135336,-0.009003061341082974,0.9904110487393984,-0.7279859983702592,0.7350699891286525,-0.7017857199423443
1729143976.82758,-2.2427710148402418,1.8723765821038854,10.661685475571842,0.08634167913051094,0.10158603033716775,-0.008850467654131855,0.9910333304725745,-0.7130644489110141,0.6930505098627142,-0.7147975743742083
1729143976.835533,-1.9703098220389104,1.7794372041451436,9.889433247013027,0.08846317556991425,0.09628039504978651,-0.008591343176672928,0.991378101896327,-0.7156051508949417,0.6444258689227396,-0.7098339851894658
1729143976.843509,-2.091024843418659,1.2955903205339612,10.808733368617972,0.059333489045421337,0.09457457818026278,-0.0056468340208877844,0.9937320058774713,-0.7281975136833112,0.5995005520846596,-0.6008590063745745
1729143976.851471,-2.132329234664476,1.259067566343814,11.328470559500861,0.055069576618597654,0.0921959100931639,-0.005106789759277674,0.9942037902721435,-0.7532062238762762,0.5401929173106972,-0.44522772605568894
1729143976.859529,-2.5265371855740764,1.1064305031851946,10.95652887988997,0.049967369157912306,0.11238212058461758,-0.005658489777238312,0.992391808957421,-0.8078006257080241,0.45012000857917966,-0.17603896248053857
1729143976.867511,-2.584215092106165,0.9856390050361168,10.747250241752342,0.04538326434760854,0.11711908266216763,-0.0053577551884023715,0.9920659122522397,-0.8069277519515724,0.36968347952962316,0.0672067874652617
1729143976.875911,-2.326729233486355,0.98211711395917,10.461989808137343,0.04649432964126438,0.10862003447987532,-0.005085906411735943,0.9929824263181959,-0.7774571035182831,0.2835351466297685,0.2667911851769578
1729143976.883565,-1.9977004172890789,0.8205501487465957,9.540969588007405,0.042646876212721216,0.10255532972687027,-0.0044009373322887605,0.9938029382349939,-0.7082662170214038,0.13649157312236057,0.5798051117077379
1729143976.891568,-1.7102611451488379,0.8835426405174887,8.806398129757568,0.049739916026135894,0.0951780494194383,-0.004761740499860762,0.9942054141322285,-0.6412102814355544,-0.004520138603376078,0.8416835383205994
1729143976.900367,-1.5849633545697714,0.8487938252772901,8.162866374192431,0.0515367789792484,0.09511643817486677,-0.004930994220140274,0.9941189611396475,-0.5635159946753858,-0.18575880959069924,1.022223547668728
1729143976.907566,-1.427902983444988,0.7958622338870771,7.682415775443194,0.051366453783451414,0.09115767198863312,-0.004708343779973052,0.9944996720774597,-0.45985695438337254,-0.37027484312333475,1.0841473365782437
1729143976.915636,-1.3707768865025396,0.8292255642091994,7.733882631769823,0.053169304410884174,0.08698615463701567,-0.004649268194199244,0.9947787785609353,-0.3648833954755881,-0.5231277793276572,1.0736243230402058
1729143976.923566,-1.5364170669601176,0.5631364640138008,7.969466987509159,0.03509943976329322,0.09479271457410424,-0.003344319349367277,0.9948724471609739,-0.2683100844149485,-0.6769902900237073,0.9566310989372546
1729143976.931586,-1.6719536203030236,0.3745131638086711,7.942505224243776,0.023425332681146275,0.10341298069335572,-0.002436224684610806,0.9943596301249259,-0.20185229654932416,-0.7931464398832111,0.8511028893741353
1729143976.939599,-1.1331773223282986,0.37602144320707764,8.162157029809936,0.02295930897637743,0.06883073004735045,-0.0015844844932446055,0.9973628678376625,-0.14835554186316452,-0.9237138085879839,0.7396829866910541
1729143976.947836,-0.5716884783579167,0.5617587790101841,7.943676410268775,0.035269203002486316,0.03580277468491353,-0.0012643340489790697,0.9987355236016406,-0.092844535671057,-1.1340181488640773,0.544698336581134
1729143976.955503,-0.1679969456573281,0.6037693323475167,7.4264033107608745,0.040547175683947036,0.011262172437991087,-0.00045705421247253894,0.9991140481033579,-0.04846999035777966,-1.3291625429865825,0.33873832366961726
1729143976.963489,0.00789858797669691,0.7245043105901505,6.83879089881004,0.05274885918891755,-0.0005734708315126337,3.0292109519427802e-05,0.9986076447073001,0.004547520640832702,-1.5288330513837198,0.1015030695123448
1729143976.971606,0.5577997362821119,0.5728480221451059,6.673210601297742,0.04276500402617367,-0.0414949272717619,0.0017776923557482373,0.9982215010964455,0.05168286945263326,-1.6912043625682052,-0.08127863882091167
1729143976.980077,1.2258016996794234,1.069870176812454,7.540401632995442,0.07018064480093686,-0.07950948293774839,0.005611762856089326,0.994344722586661,0.08294390916994782,-1.6851844643436227,-0.1981843948657201
1729143976.987577,0.5525640129717165,1.1564360428550506,8.665731011535545,0.06624978244893641,-0.03148536969354933,0.002091537683490883,0.9973039974304964,0.07786188955846277,-1.3142020023671401,-0.319836345929511
1729143976.995538,0.575986397284983,1.2136428061329523,9.87052604588617,0.061106342740761266,-0.02886855973986602,0.0017680972820773172,0.9977121303098382,0.0756640579144958,-1.0094543433190784,-0.4490186046807737
1729143977.003574,1.6214619030682556,1.299202779627037,9.797331014494592,0.06564509584337341,-0.08104180416608134,0.005349245509300264,0.9945322181516807,0.08839313095636267,-0.8687490639749825,-0.6023007908717729
1729143977.012958,2.4857731708936877,1.1094426565457534,9.319584654839334,0.05869256053903503,-0.1288678200571232,0.007640801212020894,0.9898938763564179,0.11390955736288812,-0.7979479783353101,-0.6793709504352013
1729143977.019592,3.209303593698322,2.5139892755680773,11.05268535955399,0.11048702165704088,-0.13666013309275257,0.015339733511326299,0.9843176919288961,0.26373747262880537,-0.6997019288999804,-0.6319612326516115
1729143977.027575,2.716626384734618,1.246707323885768,12.26085815909177,0.05033516609937477,-0.10812983712219017,0.005481948193419894,0.9928465428361433,0.3885408068282423,-0.43514599955262134,-0.5924474603834448
1729143977.035584,2.4478351179501456,0.46072019511271073,13.380326272408187,0.017135518609800903,-0.09028204259966902,0.0015536050994080098,0.9957675999434807,0.4229822515090115,-0.10783917760524142,-0.5823612789893297
1729143977.043524,2.0516891750181343,0.6228730972922358,12.641104102067958,0.02453177234362815,-0.08024341497874765,0.001975483847984683,0.9964714165302461,0.4125717438307447,0.22050883461641635,-0.5477883360349045
1729143977.051493,1.9088119950011149,0.1417257175062009,11.14867105254937,0.006332030847257152,-0.08467511159224793,0.0005381088802675233,0.9963883486377301,0.43654943358758885,0.4000643494294677,-0.4695764119648752
1729143977.059484,1.553019739725278,0.49204971273028303,10.017861199644853,0.024461161013390027,-0.07671065438179452,0.00188254709382989,0.9967515152346814,0.5028702349400632,0.5486639042176535,-0.3255919235095143
1729143977.06748,1.153993757897667,0.4166158518080917,9.5838232774041,0.021679511696482103,-0.05981098260208307,0.0012993060380793993,0.9979734249651114,0.559264628148567,0.6527227892417362,-0.2034432652734872
1729143977.075526,0.8870448497093032,0.29019209897548,9.358116448131913,0.015481268102514502,-0.04720743037881354,0.0007317346780203461,0.9987648639291075,0.5799048721683464,0.6955763774289323,-0.11951181879532012
1729143977.083572,0.7141862359974569,0.1310196295024755,9.07497010813696,0.0072123853212576845,-0.03925311255208406,0.0002833343251408972,0.9992032297659027,0.5850522875353594,0.6940443664076799,-0.05297672857286269
1729143977.091581,0.4821418587859742,-0.2051011190270303,8.623763609071629,-0.011884284721869469,-0.027911711174309194,-0.0003318634830591858,0.9995396890682231,0.6060197193369725,0.6990848206553968,-0.0024134229028374282
1729143977.100037,0.11690259574033453,-0.5255259704884838,7.826315344398056,-0.03351671849816279,-0.0074469709012796705,-0.0002497452819028005,0.9994103810911734,0.7016097404030366,0.7570231111326291,0.04537785301912102
1729143977.107595,-0.6864261671651742,-1.1954241125665277,8.345031377048988,-0.07101992134398337,0.04050873311718666,0.002886603448683681,0.9966478218679179,0.8538926367487081,0.8918232498625458,0.038720343470947466
1729143977.115567,-1.7837332515686357,-1.990012070078979,9.397026990291891,-0.10369768408901978,0.09117717756656263,0.009546750927074538,0.9903748644590622,0.9784661993501493,1.0344283920124906,0.015569784976251909
1729143977.123564,-2.0334272788220407,-2.544815818707544,10.953822720054042,-0.11341468135450065,0.08874365881254331,0.010171386822372811,0.9895242371786199,1.1017390039176858,1.1348906294536287,-0.03322713516045202
1729143977.132276,-2.267998433943615,-2.5334118691542136,10.916811964551956,-0.11317758150287696,0.0990263844757058,0.011337234827083697,0.9885626319709363,1.195284429485461,1.1508962055262602,-0.08208703006972783
1729143977.13951,-2.7410563174462466,-2.6946424559651847,11.502732732930392,-0.1140259570020583,0.11299225401146842,0.0130544762215248,0.9869449895073961,1.2663108369772973,1.1311269369289587,-0.1654656048209713
1729143977.147454,-3.0157930812392326,-2.4284198363720795,11.556685927600032,-0.1025333246824458,0.12402456131695566,0.012885667148144365,0.9868833695537929,1.2829595877232152,1.0162483808967662,-0.3163812942382189
1729143977.155452,-3.0106468216439297,-2.2631796007978573,11.238307301188925,-0.09834707840750921,0.12742616353746833,0.01269861580700151,0.986878498180711,1.2601707034381895,0.895387059779083,-0.4584392053254733
1729143977.163501,-3.1370853757012016,-2.3160672648732454,10.605310498877417,-0.10619426908721506,0.13939158301830884,0.015036986361529399,0.9844118309111514,1.1502914189767548,0.7969031733592891,-0.5798576072020986
1729143977.171487,-3.203850541826971,-1.8701566321173069,10.38712102955106,-0.08794599595013308,0.14624719496210856,0.013054479827510528,0.9852445586342953,1.030726900555678,0.7054603968362984,-0.6446205371602951
1729143977.179536,-3.038008298728995,-1.5686125888895246,9.832194233941573,-0.07811877760807132,0.14707547143145738,0.011652883634373522,0.985966770530954,0.8657620660428471,0.5254418528526665,-0.6749644939059725
1729143977.187579,-2.8642827014053656,-1.2794682479137929,9.313926948079787,-0.0674298263455054,0.1469848327896567,0.010043875473879277,0.9867866020646393,0.7629519547819903,0.3254816731866887,-0.6867855170314484
1729143977.19557,-2.8105649980404848,-0.8359156960627289,9.144463894677951,-0.04504097596491109,0.14781175313335912,0.006738676226637534,0.9879663892878562,0.7285100519590463,0.18251830206815225,-0.6862157098004174
1729143977.20358,-2.4424278831016344,-0.8388924315536529,8.736328250136848,-0.04738837418031485,0.13514077010933842,0.0064709372299453305,0.9896713804178474,0.736791834444698,0.035866600607959875,-0.635642398209279
1729143977.211556,-2.1320024720484803,-0.5129122655728168,8.969329514779375,-0.02835600683389157,0.11618994374790073,0.0033185210697206455,0.9928166100877874,0.7221791611088355,-0.09895032702897902,-0.5703918262147094
1729143977.219661,-1.736494000318932,-0.6496393564140026,9.095722744268015,-0.03547907690463273,0.09388914876860933,0.0033480257768215274,0.9949446484950301,0.6380644162285385,-0.2930740399600428,-0.4495089912172576
1729143977.227484,-1.504935001265578,-0.6675110064265264,8.496154393631121,-0.039036890225881665,0.08721437797792041,0.0034202478181831397,0.9954185428151714,0.49990341663918175,-0.476807297429682,-0.26332004380842405
1729143977.235489,-1.2309666282007528,-0.5788746275375565,8.05405284613961,-0.035760750038668083,0.07551938089843495,0.002710117293524088,0.9964991957496224,0.3842286821529913,-0.5836417314197693,-0.09073299657405344
1729143977.24345,-0.8465584717934986,-0.11532663565339323,8.18024388908025,-0.007038827646436398,0.05153133734457374,0.0003632118069041862,0.9986465061542181,0.2892824377735551,-0.65370205267429,0.14648591106564687
1729143977.251504,-0.6975558545604741,-0.02346672968305156,8.14678291914151,-0.001438874713111701,0.04269436984081832,6.148797897022546e-05,0.9990871416661731,0.22082105948641856,-0.7217053391761865,0.3535221449916958
1729143977.259437,-0.557397209025347,0.1920607251296222,7.690722214863811,0.012475111954380108,0.0361531003727747,-0.0004513442264214543,0.9992682929041384,0.17335888159220617,-0.8161442588215403,0.5394689442593198
1729143977.267464,-0.21137636008317692,-0.1155646049612892,7.894250183166333,-0.007318273020999075,0.01338260535419747,9.79489548201948e-05,0.9998836628127925,0.1257255220898873,-0.8689764000555944,0.6740242871388439
1729143977.275509,0.2648655755516564,-0.514660271765836,7.5291469263060495,-0.03411269566253977,-0.017530087372960454,-0.0005984389505646337,0.9992640601473435,0.09373998589679974,-0.8666204798790643,0.7611428437884888
1729143977.283836,0.16562310997943133,0.3986904275166703,8.639585154074645,0.023053971045281677,-0.009571080133158672,0.00022072018475252468,0.9996883815103225,0.12818561192516317,-0.7796432254192778,0.829590200113833
1729143977.292606,0.2739111670130494,0.8856487047521896,12.194452393714316,0.036239641556738596,-0.011192006076653545,0.0004058863755627322,0.9992803723860834,0.15353557821826358,-0.727882562804868,0.8434144499754694
1729143977.299805,0.45212973975861087,2.4182595512204546,15.161752016062575,0.07899126086134085,-0.01467330873178604,0.001162822990106911,0.996766633952547,0.003577814146855568,-0.7151308378790895,0.7082514491797467
1729143977.307614,-0.486247561418271,4.1281520271189915,16.605746456219578,0.12151534784284491,0.01409889507779306,-0.0017261994967412452,0.9924879151060305,-0.2085698919355923,-0.28434388183036297,0.5615973792371601
1729143977.315662,-1.8348115068216657,5.050897421105379,17.178374576612605,0.1423037467792225,0.0505147379423105,-0.0072720176986472325,0.9885064606070135,-0.3584200888425487,0.17335124056310375,0.5068087620656467
1729143977.323605,-2.3501813303625307,4.796262177028462,13.733127321651157,0.1666546295119895,0.07887751675599533,-0.013375845464860663,0.982764294513557,-0.5279342484801225,0.5360861567218244,0.41646743346536436
1729143977.331509,-1.8609369708249404,4.519700804752233,10.674300641037568,0.19827298769739188,0.07791823214737893,-0.015814120784798196,0.9769168260565384,-0.659015358503547,0.7277600126678728,0.2741447935825544
1729143977.339918,-1.778798361694183,3.7736489191306366,9.389192174173322,0.18916837681499185,0.08531305439800226,-0.016500007460384672,0.9780924075547627,-0.7836385511555011,0.8482982970345083,0.003576032916884714
1729143977.348364,-1.3545832162352598,3.172070621009632,8.41749299493368,0.17869787300581233,0.07345395819788035,-0.013379377020768227,0.9810670611527016,-0.9422734088546938,0.9150872968554831,-0.2690189494011833
1729143977.355498,-0.8098768877489684,2.3775337214827323,7.288356088708255,0.15678418680200107,0.051948485850312705,-0.008258409955139497,0.9862311454480172,-1.0566103762400008,0.9440927551500551,-0.44704940088173317
1729143977.363459,-1.649029299153287,2.315726729471671,7.830001430324564,0.14254163029690686,0.09844740773650415,-0.014249769587478754,0.9847776071829447,-1.0962656324917668,0.8997709712148038,-0.5581245723846835
1729143977.371566,-2.2968911061033004,2.167312157067768,8.536624379923254,0.12294565714127485,0.12622711548800983,-0.01576778355467799,0.9842268324463876,-1.1119706750750478,0.7825059177622402,-0.6243439852249916
1729143977.379562,-2.455285990566277,2.0823335564476917,9.176794559594578,0.11039252229006039,0.12647834726027823,-0.014164736229570896,0.9857058785176711,-1.0830815950934336,0.4882339133616735,-0.6491764807780054
1729143977.38753,-2.4794545521034377,1.7119598946108028,9.289394199135653,0.09021759303292472,0.1274676536100182,-0.011643476294436296,0.9876624993641719,-1.0278617316343444,0.20226836492559136,-0.6602447675566554
1729143977.395511,-2.663465166564797,1.3400980937489035,9.429977133495065,0.06984215031626573,0.13557593781574545,-0.009581441839243898,0.9882557538900861,-0.98621601232965,0.03111472592540411,-0.6605003887019149
1729143977.403769,-2.69031389730216,1.644902479296217,9.576097296942741,0.08414714985820136,0.13416249093307817,-0.011434448633764013,0.9873140010056654,-0.9459037385342002,-0.01751481966903022,-0.6070168136448545
1729143977.411535,-2.599641741701608,2.0454180415328085,8.864345460685175,0.11200559297681281,0.1378323247133249,-0.01568938138823495,0.9839770529426424,-0.9344870761007913,-0.007954751432645943,-0.5506623351072826
1729143977.419498,-2.462877911231902,1.7396099801931224,9.431366888227512,0.09032486617568937,0.12483525211399155,-0.011412777065171988,0.9879915621601435,-0.9318939792553663,0.09185879309229361,-0.4632127002405234
1729143977.427433,-2.418887419346563,1.6087975799127485,10.728063307985334,0.07389211064643758,0.10917250193817624,-0.00813828473419271,0.9912391684787071,-0.9082022379520858,0.17473418312620703,-0.36136287219087226
1729143977.435495,-2.0192370853970005,1.5475483916976491,10.769145888843934,0.07098971587847804,0.09139196314007417,-0.006531915012461381,0.9932599374781841,-0.9237854974724596,0.19380973272128882,-0.2734345014889735
1729143977.443435,-1.6065855251639813,1.4162279131924176,10.419581717876671,0.06729292031663926,0.07556065771841819,-0.005110994266533775,0.9948548274085148,-1.016570705231242,0.22355973512120525,-0.1006328817355414
1729143977.451428,-1.58500722574292,1.1248305186674037,10.682219202845145,0.05228598400245265,0.07308635815858053,-0.0038369444234641215,0.9959467043901005,-1.0969318534513093,0.3120742867638524,0.0830778216713798
1729143977.459448,-1.7006288752406737,1.1362609711125518,10.945385987039117,0.051539588557979805,0.07648777990670941,-0.003959055097342985,0.9957296903371683,-1.17239270631692,0.47841657409834104,0.30440934975712275
1729143977.4675,-1.8758255783182323,1.1675400995132341,10.553098516051595,0.0548465555136527,0.08719053764884063,-0.004807730355758268,0.9946690661831302,-1.1985131652704948,0.4858472031617734,0.4848855534923161
1729143977.475487,-2.101371943670627,1.0560630062411436,10.136006127453223,0.05160508513019935,0.10136387483418875,-0.005265135149540257,0.9934961290408538,-1.1963064580612344,0.39197117640210344,0.6238209601586984
1729143977.483568,-1.9168344210851886,0.8127240879243736,9.869709543171153,0.040873223333955176,0.09537117721055417,-0.003919313000810384,0.9945945692378213,-1.1264463338402908,0.2036816412930717,0.7574136314110473
1729143977.491539,-1.754875992006582,0.7581792403522803,9.690777979320659,0.038867276962521756,0.08911920857951935,-0.0034803308070246236,0.9952562427541726,-1.0257850308259644,0.06601789666285485,0.8516170061907038
1729143977.499526,-1.8741367646375429,0.31508616725824323,8.469636428705677,0.018476812448654303,0.1085778052510593,-0.0020184557056306144,0.993914178108535,-0.8989805994292916,-0.05957504632294046,0.9426199260369224
1729143977.50755,-1.7417072467708068,0.24387891837252407,8.296715846481218,0.01461083967285061,0.10322249533946223,-0.0015164321614828257,0.9945498178841765,-0.7862885953055533,-0.24773867840185598,1.0014785785592737
1729143977.515541,-1.5841985619296715,0.17146646845515506,8.048353716873105,0.010598180390628372,0.09699551557937415,-0.00103290514521471,0.9952278541303293,-0.6939833692665125,-0.4206591563153518,1.0167863371839692
1729143977.523496,-1.309170545849209,0.0822897467957493,7.65728265126644,0.005353040009655014,0.08455957554835894,-0.000454284423987487,0.9964039425711836,-0.5858146660217961,-0.5955016833276086,0.900392424227487
1729143977.531471,-0.8293162178903848,-0.001143806951847303,7.616330926209082,-7.497427435480437e-05,0.05420306502893995,4.069818384229406e-06,0.9985299304997138,-0.490689449711162,-0.7255229131612224,0.7569116958206662
1729143977.539495,-0.3268831523650903,-0.14122592162228026,7.990633887756699,-0.008834011614163919,0.020437335991047325,0.00018058843305362134,0.9997520907326014,-0.38678841316395807,-0.8890993534152591,0.5971788781436423
1729143977.547435,-0.17506091680967917,-0.08186251098118064,8.367726310437222,-0.004891108650073807,0.010458141117493595,5.1155314054685965e-05,0.999933348640635,-0.31806244031370523,-1.0451390659265174,0.4540875907151425
1729143977.555507,-0.046857449744010626,0.0282152070343385,8.580813654914676,0.0016440738837189097,0.002730312708920166,-4.488858617209268e-06,0.999994921183816,-0.2653332249440787,-1.2524221398436348,0.2158357762546353
1729143977.563459,0.4746678787864061,0.06337663642763436,7.303030266923415,0.004336565795331166,-0.03244514249482252,0.00014077593699804046,0.9994640999594377,-0.20176894111265037,-1.3899883760992284,-0.00799642409945503
1729143977.571468,0.6125669345472343,0.19843749308704936,7.318067076169674,0.0135420370705135,-0.041724489619428005,0.0005655791153110654,0.9990372166832642,-0.13510913669583724,-1.426553591214685,-0.15719489646308032
1729143977.579686,0.3127129427107624,0.21099983960222965,7.600028150975242,0.013874458026631363,-0.020550208277177417,0.0002852107026949217,0.9996925062283337,-0.042753376485919495,-1.394855772539743,-0.2875802257816105
1729143977.587682,0.38395230175926987,0.21734014668125964,8.18914776704999,0.01326272350147629,-0.023413161272327794,0.0003106347811960271,0.9996378481983322,0.022450951053657874,-1.3966958943464174,-0.3943326574906848
1729143977.595831,1.0982694828622026,0.44763580797945884,8.7427747954839,0.025523415311151328,-0.06234104531939137,0.0015947809765391365,0.9977272202425757,0.06157354757740429,-1.452288295297562,-0.5005274326008704
1729143977.60357,2.1455215005083375,1.2253044681861127,8.278400120210263,0.0728053367745511,-0.12481966456406045,0.00918432194589739,0.9894620167068838,0.06248553223416446,-1.3128135709146638,-0.5778663796337669
1729143977.611648,2.356323941564768,-0.5244068124965355,11.30137940440155,-0.023055223708952792,-0.10246178086153869,-0.0023754227521575965,0.994466891097517,0.06856669382722698,-1.122280530857955,-0.5978769640428587
1729143977.619558,3.3394507602025327,-0.09485637509557751,12.06171824444757,-0.0038947416458311062,-0.1346338656236372,-0.0005291862703823061,0.990887618843146,0.1803406663944205,-1.0181772682990187,-0.5098461502447365
1729143977.627504,3.683202920721129,-0.7644004156335183,11.875796663221278,-0.03175684423835579,-0.1494363109463897,-0.0048020517761339495,0.9882495798701327,0.3087044187852692,-0.9127206145559916,-0.4242495272332867
1729143977.635451,2.824273898428771,-1.3962096194972984,13.340107247200345,-0.0518259623909687,-0.10343878247817472,-0.005397137003436371,0.9932700331802268,0.4006218223709495,-0.40545188820527645,-0.3196802957436628
1729143977.643439,2.4786653827584346,-1.398926640839004,12.861420676445206,-0.05389289237259083,-0.09436867807117666,-0.005116168793747953,0.99406435081824,0.4115004981303064,0.05811743059195254,-0.24544512519041367
1729143977.651513,2.4099245494792796,-1.1558694439760586,11.513577398542905,-0.04973332147552714,-0.10235636611473656,-0.005123875559318991,0.9934905721495552,0.4027028613732874,0.33157643119420754,-0.18685625083021712
1729143977.659444,2.2681235797852235,-0.5829095496864164,10.81668064933082,-0.02676657173904948,-0.1029805578302841,-0.002772184437040893,0.994319299993593,0.46127778853838075,0.528429966288137,-0.12531014240345326
1729143977.667477,2.152636636884806,-0.49411608991927175,9.95896717499888,-0.02463906141211506,-0.10607824653606646,-0.002629315494589727,0.9940489972655239,0.5338834702460955,0.6691036606019823,-0.0730576351347618
