Time,Accel_x,Accel_y,Accel_z,Orientation_x,Orientation_y,Orientation_z,Orientation_w,Gyro_x,Gyro_y,Gyro_z
1731740782.838584,-0.2555772666268998,0.04815064246278644,9.767301898074901,0.0024646478812497406,0.01307975309195779,-3.2239841603990356e-05,0.9999114183418787,-5e-324,5e-324,6.67457733247849e-158
1731740782.846539,-0.24815674571832735,0.052832402079234356,9.774900853200409,0.002702196143900678,0.012690270186633743,-3.429448595460324e-05,0.999915823458394,-5e-324,5e-324,4.004746399487094e-158
1731740782.8545704,-0.23532472736263702,0.05396551668699374,9.769404579303057,0.0027617256451629517,0.012041115510226285,-3.325679536893099e-05,0.9999236887396536,-5e-324,5e-324,2.4028478396922564e-158
1731740782.862514,-0.24558202880039467,0.04482915864500874,9.769458697288865,0.0022941457201586736,0.012565723243410046,-2.8829952262282314e-05,0.999918416003835,-5e-324,5e-324,1.4417087038153538e-158
1731740782.8706713,-0.2517364096630493,0.051078931954583365,9.768533487416287,0.0026142102409502078,0.012881639099588732,-3.367822230451803e-05,0.9999136103407641,-5e-324,5e-324,8.650252222892122e-159
1731740782.8786023,-0.2489646936982202,0.03759054398720314,9.769175462322819,0.001923763322781011,0.012739139651279291,-2.4509123809076657e-05,0.9999170029832106,-5e-324,5e-324,5.190151333735273e-159
1731740782.8866322,-0.2441892019611196,0.02518794821849376,9.766687605274551,0.0012893746782385114,0.012498145651562268,-1.6116064670757786e-05,0.9999210636887713,-5e-324,5e-324,3.1140908002411636e-159
1731740782.8946655,-0.24994303289542175,0.02540783606976813,9.771898655694027,0.0012999322143199506,0.012785677225786768,-1.662188643003172e-05,0.9999174147687543,-5e-324,5e-324,1.868454480144698e-159
1731740782.9030085,-0.24118490298920617,0.03631367625123588,9.755153412166417,0.0018610985180893198,0.012358983056648667,-2.3003081762495906e-05,0.9999218926101027,-5e-324,5e-324,1.1210726880868187e-159
1731740782.9109309,-0.24790103334625807,0.04477254168824153,9.755880173520552,0.0022944332449752296,0.012701968846839308,-2.9146247659427578e-05,0.9999166938870431,-5e-324,5e-324,6.726436128520912e-160
1731740782.9191194,-0.24019912342572358,0.048890180286382416,9.761822894151393,0.002503931619174429,0.012300000113290797,-3.080078579063574e-05,0.9999212165840723,-5e-324,5e-324,4.035861677112547e-160
1731740782.9269378,-0.2453942042800435,0.05303670460737632,9.76802214835607,0.0027145602260668926,0.012557896967124019,-3.4091981541048766e-05,0.9999174612058133,-5e-324,5e-324,2.4215170062675283e-160
1731740782.935233,-0.23821618565396357,0.06103128301833204,9.785867490673798,0.0031180523066920525,0.012168440007511354,-3.794482629713841e-05,0.9999210995762547,-5e-324,5e-324,1.452910203760517e-160
1731740782.9429936,-0.2370218366365188,0.05625122342428048,9.770477897968732,0.002878376228400793,0.012126563517711856,-3.490752353092791e-05,0.9999223270779602,-5e-324,5e-324,8.7174612225631e-161
1731740782.9509513,-0.24947333635691124,0.056735069992068295,9.771299789318348,0.0029028659726752165,0.012762228807296045,-3.705021327296123e-05,0.9999143450877662,-5e-324,5e-324,5.23047673353786e-161
1731740782.9589708,-0.23491758091570922,0.0610955207550066,9.764370898981634,0.003128211190065735,0.0120264207092256,-3.762408894314432e-05,0.9999227860610553,-5e-324,5e-324,3.138286040122716e-161
1731740782.9670107,-0.2271418083150505,0.030671808302613332,9.764523127767886,0.0015704575431846417,0.01162854191712072,-1.8263388753136376e-05,0.9999311528012494,-5e-324,5e-324,1.8829716240736294e-161
1731740782.9749706,-0.23301083205934278,0.03612017726672425,9.774430691846279,0.0018475411012060779,0.011916765971713329,-2.2018315971433047e-05,0.9999272857542435,-5e-324,5e-324,1.1297829744441776e-161
1731740782.9830008,-0.23150442281959005,0.04657180362565955,9.766728280830423,0.0023840125854194703,0.011849022991917058,-2.825028346542122e-05,0.9999269555022762,-5e-324,5e-324,6.778697846665065e-162
1731740782.9909904,-0.24496578723667592,0.041350611472270725,9.763782775383019,0.0021173633231680337,0.012541514266948332,-2.655709052962191e-05,0.999919109971987,-5e-324,5e-324,4.067218707999039e-162
1731740782.9989862,-0.24370521941231804,0.051386005311096807,9.768479816596999,0.002629954564871515,0.012470934734274278,-3.280065594207556e-05,0.9999187757262873,-5e-324,5e-324,2.440331224799423e-162
1731740783.0069747,-0.2563564080145783,0.04830927530579871,9.788296873112497,0.002467463392772082,0.013091480590725874,-3.2305615982335414e-05,0.9999112579207693,-5e-324,5e-324,1.4641987348796538e-162
1731740783.015266,-0.26203175984780946,0.04837859863074485,9.786061317226872,0.0024715586233290242,0.01338420714010128,-3.308291696601507e-05,0.9999073723614218,-5e-324,5e-324,8.785192409277923e-163
1731740783.023,-0.24987466015673254,0.04387120947141566,9.77801621904706,0.0022431521153808386,0.012774081486916916,-2.8656618171509063e-05,0.9999158916076647,-5e-324,5e-324,5.2711154455667536e-163
1731740783.0310085,-0.24784764399443018,0.06008096909105252,9.763851773664564,0.003076402993877297,0.012688738249072245,-3.9038999966178364e-05,0.9999147614383049,-5e-324,5e-324,3.162669267340052e-163
1731740783.0392172,-0.25237751828142374,0.05783581656205338,9.761578030751473,0.0029621251693054134,0.012923563659078038,-3.8284578442021334e-05,0.9999120990622736,-5e-324,5e-324,1.897601560404031e-163
1731740783.047009,-0.24743399754111983,0.05170032172434141,9.746566835540728,0.002651982358444445,0.012690102957732258,-3.365675768330221e-05,0.9999159600405002,-5e-324,5e-324,1.1385609362424185e-163
1731740783.0549912,-0.23441223812428127,0.046582503825620465,9.753601269537326,0.002387764669575079,0.01201392883904784,-2.8688587076286413e-05,0.9999249788212603,-5e-324,5e-324,6.831365617454511e-164
1731740783.0629873,-0.24599221592144374,0.04973673740279414,9.764525694583725,0.0025465728381107106,0.012593018637822263,-3.2071686361669884e-05,0.9999174615035856,-5e-324,5e-324,4.098819370472706e-164
1731740783.0709977,-0.25509498409388187,0.050911017051051485,9.754081517824453,0.002609470319766539,0.013072745188325774,-3.4115972027843355e-05,0.9999111424691656,-5e-324,5e-324,2.4592916222836238e-164
1731740783.0790026,-0.2543317206809385,0.030067769898599644,9.766729204884124,0.0015391546655535468,0.013016925287435529,-2.003678261848794e-05,0.9999140914386117,-5e-324,5e-324,1.4755749733701742e-164
1731740783.0870082,-0.24716999798473496,0.030490510571972287,9.76378332981524,0.001561272868510652,0.012654373270976765,-1.9758535804972875e-05,0.9999187111329346,-5e-324,5e-324,8.853449840221046e-165
1731740783.0949466,-0.24981614918146597,0.04846124726115212,9.761776384607893,0.002481959916781402,0.012792291430728318,-3.1752650550513636e-05,0.9999150944688714,-5e-324,5e-324,5.312069904132627e-165
1731740783.1030135,-0.2487702180733327,0.04870920196997252,9.768951923294033,0.0024928284943770756,0.012729404641170805,-3.173489246280857e-05,0.9999158699893084,-5e-324,5e-324,3.1872419424795763e-165
1731740783.1109562,-0.24838207957446834,0.03377450433628039,9.771102465011577,0.0017281323795237517,0.012706860084450409,-2.1960942180096393e-05,0.9999177710106917,-5e-324,5e-324,1.9123451654877458e-165
1731740783.1190002,-0.242881952822806,0.026968467250205734,9.766886126223742,0.0013804923400697034,0.012431008718443232,-1.716225476516721e-05,0.9999217789250308,-5e-324,5e-324,1.1474070992926475e-165
1731740783.1269426,-0.24820100274837112,0.03270107180520156,9.7775244320819,0.001672110189335274,0.012689271114778798,-2.1219597631071317e-05,0.9999180896432563,-5e-324,5e-324,6.884442595755885e-166
1731740783.1349394,-0.24971649154160075,0.02488788673546469,9.770978726631952,0.0012734504175458026,0.012775298578598852,-1.627005026222291e-05,0.9999175815063696,-5e-324,5e-324,4.130665557453531e-166
1731740783.1430004,-0.2525411461456636,0.031452723496356944,9.756037975725265,0.0016118152904369808,0.012939477973095394,-2.085782173448631e-05,0.9999149821490848,-5e-324,5e-324,2.4783993344721186e-166
1731740783.1510532,-0.2525599977459919,0.033955104556798545,9.768860760288675,0.0017377666882898365,0.012923452415679042,-2.2459854678317454e-05,0.9999149784057402,-5e-324,5e-324,1.4870396006832712e-166
1731740783.1589792,-0.25137420787611076,0.03713247435517287,9.767935305050159,0.0019005591515875691,0.01286400496089272,-2.4450869706034534e-05,0.9999154487522595,-5e-324,5e-324,8.922237604099627e-167
1731740783.167037,-0.2544934566104321,0.0344899130799006,9.767619452073063,0.0017653589828538253,0.013023987985238015,-2.2994000274661005e-05,0.9999136256276828,-5e-324,5e-324,5.353342562459776e-167
1731740783.1749802,-0.2431968967201655,0.03505915780887786,9.76838762095087,0.0017943680193670505,0.01244516723651479,-2.2332975603662752e-05,0.9999209456537573,-5e-324,5e-324,3.2120055374758655e-167
1731740783.1830807,-0.2481505489207712,0.03827374663845171,9.773158085265834,0.00195793006955901,0.012692325280771983,-2.4852734875557774e-05,0.9999175319850889,-5e-324,5e-324,1.9272033224855192e-167
1731740783.1909926,-0.25902360571965016,0.04930046624478977,9.780329926843095,0.0025201349923053527,0.013238377297479124,-3.336552771009522e-05,0.9999091924634415,-5e-324,5e-324,1.1563219934913115e-167
1731740783.198981,-0.2677022212931182,0.04873389302812386,9.781041729299215,0.0024909768018701213,0.013680695509811863,-3.408159044463354e-05,0.9999033115473643,-5e-324,5e-324,6.937931960947869e-168
1731740783.206971,-0.2599807016723553,0.05102757092429619,9.766624760479921,0.0026120769334851373,0.013305887407848908,-3.475919732510272e-05,0.9999080603766435,-5e-324,5e-324,4.162759176568721e-168
1731740783.2152412,-0.24768634458739752,0.06341710529871834,9.747440091883655,0.003252688782698341,0.012701788671568905,-4.131851736527739e-05,0.999914037741748,-5e-324,5e-324,2.4976555059412327e-168
1731740783.2229376,-0.2462952344868135,0.055767355464387255,9.760828987991522,0.0028564202436185356,0.0126132437521459,-3.603173814985224e-05,0.9999163693265325,-5e-324,5e-324,1.4985933035647395e-168
1731740783.2309718,-0.2401933247741193,0.0530928668919136,9.772453628146474,0.0027162119924952982,0.012286295401803288,-3.337482516932211e-05,0.9999208308780413,-5e-324,5e-324,8.991559821388437e-169
1731740783.23898,-0.24275710326290909,0.04598150993007003,9.778949571907416,0.002350837698181255,0.012409189317809623,-2.917431701948246e-05,0.9999202391848315,-5e-324,5e-324,5.394935892833062e-169
1731740783.2472682,-0.24645015185032357,0.04219353608499515,9.76704540720695,0.002159801057371469,0.012613254591159124,-2.724435145727556e-05,0.9999181168104498,-5e-324,5e-324,3.2369615356998367e-169
1731740783.2549095,-0.242441056686366,0.042793793770137714,9.766367252869092,0.002190684510314978,0.01240902272092263,-2.718641232789071e-05,0.9999206050069109,-5e-324,5e-324,1.942176921419902e-169
1731740783.262995,-0.23692313742978835,0.03932322572497325,9.78056499039333,0.0020101082566692493,0.012109148633491967,-2.4342533595017098e-05,0.9999246608578116,-5e-324,5e-324,1.1653061528519412e-169
1731740783.2709339,-0.2611457049676386,0.039395666392015194,9.77064828012467,0.002015821690888039,0.013360071964691085,-2.6933981447530977e-05,0.9999087179410776,-5e-324,5e-324,6.991836917111647e-170
1731740783.2789707,-0.2584409935372238,0.0444669542785685,9.763261732967381,0.002277034102648556,0.013231734143262206,-3.013182585426748e-05,0.9999098636473842,-5e-324,5e-324,4.195102150266988e-170
1731740783.28694,-0.2458048390422561,0.042960743856203604,9.749731838364411,0.0022029776570879596,0.01260256677169132,-2.7765445417195145e-05,0.9999181573655354,-5e-324,5e-324,2.5170612901601928e-170
1731740783.2949903,-0.23104054136480678,0.044930059594972156,9.746402304922944,0.002304769454235141,0.011849952346445246,-2.731339852123318e-05,0.9999271303055678,-5e-324,5e-324,1.5102367740961156e-170
1731740783.3029716,-0.2415749962056028,0.04108382555190517,9.759248635151032,0.0021046846397250346,0.01237374132238938,-2.604487493081656e-05,0.9999212269723643,-5e-324,5e-324,9.061420644576693e-171
1731740783.3110003,-0.2383188624694554,0.05002883292879936,9.761210349303509,0.0025624109721048313,0.01220451624986519,-3.127541837433308e-05,0.9999222384040496,-5e-324,5e-324,5.436852386746016e-171
1731740783.3190475,-0.23756228305784508,0.05850829951313898,9.758317234972731,0.0029975970020874082,0.012169320061413379,-3.648158269624073e-05,0.9999214572807957,-5e-324,5e-324,3.26211143204761e-171
1731740783.3269892,-0.24093905806712893,0.05976525680749276,9.76065150919653,0.003061254898644008,0.01233925739478583,-3.777666518963965e-05,0.9999191817433618,-5e-324,5e-324,1.9572668592285657e-171
1731740783.334985,-0.2465564255629336,0.0621953723462144,9.774262502197605,0.003181277650853439,0.012609206194403932,-4.0116778163465556e-05,0.999915439315895,-5e-324,5e-324,1.1743601155371393e-171
1731740783.3429148,-0.24489902257408827,0.04426040822218177,9.763036064550985,0.00226653102465111,0.012539035738208946,-2.842242102223612e-05,0.9999188140104357,-5e-324,5e-324,7.046160693222836e-172
1731740783.3509998,-0.24917182443312483,0.04235797589034031,9.761328025449341,0.0021694840230562858,0.01275994587299317,-2.7684817734452395e-05,0.999916234668656,-5e-324,5e-324,4.2276964159337014e-172
1731740783.358969,-0.248383623224328,0.04935680213576668,9.766049285972729,0.002526721880882147,0.012713402719124725,-3.212593177895282e-05,0.9999159884889143,-5e-324,5e-324,2.5366178495602207e-172
1731740783.36701,-0.26012113096584677,0.03679668626192876,9.768403201954731,0.0018832709588562106,0.013310757299091777,-2.507002813696572e-05,0.9999096341180607,-5e-324,5e-324,1.5219707097361323e-172
1731740783.3749714,-0.25375610631388307,0.039316263710282254,9.787532643829088,0.0020082993976213853,0.012959834825602434,-2.6029466990233143e-05,0.9999140006707025,-5e-324,5e-324,9.131824258416794e-173
1731740783.3830788,-0.26430230148364237,0.05040481681991936,9.784884519158782,0.002575377194885976,0.013501725072228693,-3.477532005462978e-05,0.999905530359271,-5e-324,5e-324,5.479094555050076e-173
1731740783.3909318,-0.2646445144351073,0.05322722602945162,9.76773333356558,0.0027243555266476677,0.013542895853564368,-3.6899184133736796e-05,0.9999045786960444,-5e-324,5e-324,3.2874567330300456e-173
1731740783.3990161,-0.25144231290911123,0.03959778093017097,9.772765512834662,0.002025738314052446,0.012861116062743134,-2.6055464028107077e-05,0.9999152401073885,-5e-324,5e-324,1.9724740398180274e-173
1731740783.4069781,-0.2552525801282792,0.05057372715185257,9.76094077010314,0.002590361188091865,0.013071633050550535,-3.386325774940506e-05,0.9999112067036686,-5e-324,5e-324,1.1834844238908165e-173
1731740783.4149742,-0.24868019431720192,0.06218711837118966,9.761028529444697,0.0031851626563725107,0.01273499946970442,-4.0566540247915296e-05,0.999913832728458,-5e-324,5e-324,7.100906543344898e-174
1731740783.4230978,-0.23707531751805552,0.05622646413794817,9.77257335301838,0.002876492421462046,0.012126699198137244,-3.488506783421075e-05,0.9999223308542214,-5e-324,5e-324,4.260543926006939e-174
1731740783.4312258,-0.23777383675106767,0.05312891193003452,9.773275322846183,0.002717831795844991,0.012161567297777549,-3.305566101915403e-05,0.999922351274595,-5e-324,5e-324,2.556326355604163e-174
1731740783.439243,-0.23124976347642184,0.06156544774395821,9.75765535361982,0.003154448130962072,0.01184686875308646,-3.73731416975326e-05,0.9999248470565097,-5e-324,5e-324,1.5337958133624978e-174
1731740783.4471807,-0.22949010100577497,0.052740999603406176,9.74995931324611,0.0027044535383931347,0.011766112972979317,-3.182322516832222e-05,0.999927119096111,-5e-324,5e-324,9.202774880174987e-175
1731740783.4549642,-0.23250444634565245,0.05031937271126245,9.757312697322666,0.0025783307164300557,0.011911635017307754,-3.071441562760421e-05,0.9999257293512133,-5e-324,5e-324,5.521664928104992e-175
1731740783.4632294,-0.2386226165378602,0.055330741058398095,9.749035458969772,0.0028374994392149073,0.01223527330511142,-3.4720319893635825e-05,0.999921119628234,-5e-324,5e-324,3.312998956862995e-175
1731740783.4712672,-0.23654743466880987,0.05330973858035136,9.739759552969753,0.0027364666125367135,0.012140479662184114,-3.3224590277615014e-05,0.9999225567013563,-5e-324,5e-324,1.987799374117797e-175
1731740783.4792438,-0.23578116587941092,0.053773078255632684,9.74089777401818,0.002759928862367459,0.012099751951591723,-3.3397026681491705e-05,0.9999229858744239,-5e-324,5e-324,1.1926796244706781e-175
1731740783.4872675,-0.24202516925420903,0.043756014922129605,9.744453748639422,0.00224497841096458,0.012415583330564087,-2.7874935294390843e-05,0.9999204031249108,-5e-324,5e-324,7.156077746824068e-176
1731740783.495093,-0.24050432762674417,0.04923794489077776,9.744193131752013,0.002526303363494733,0.012337890260529177,-3.117172578416762e-05,0.9999206934970184,-5e-324,5e-324,4.293646648094441e-176
1731740783.5029762,-0.22690255385143712,0.05324536337001353,9.761035593406676,0.0027272224287092526,0.0116203025518496,-3.16934075109159e-05,0.9999287623735782,-5e-324,5e-324,2.5761879888566646e-176
1731740783.511021,-0.21826264925422165,0.05684691528763312,9.762282524256896,0.002911332448661728,0.011176542225840932,-3.254080045972718e-05,0.9999333017698449,-5e-324,5e-324,1.5457127933139987e-176
1731740783.5200253,-0.22457087446464236,0.056853064944064245,9.764946044095154,0.002910842240199191,0.011496304912110402,-3.346628336193795e-05,0.9999296779528191,-5e-324,5e-324,9.274276759883991e-177
1731740783.527123,-0.23673551540144167,0.05398371274573542,9.775881542472717,0.0027608242540546495,0.012105249242573744,-3.342304206311593e-05,0.9999229168656519,-5e-324,5e-324,5.5645660559303945e-177
1731740783.5354927,-0.24092183780531812,0.03622095030369125,9.765922850044177,0.0018542998722208188,0.012331901932220609,-2.2868822465972503e-05,0.9999222395985274,-5e-324,5e-324,3.3387396335582364e-177
1731740783.5437508,-0.247264353903894,0.035618939811121,9.775270525212052,0.0018217296891217503,0.012644304800802808,-2.3036385272868504e-05,0.9999183978337277,-5e-324,5e-324,2.0032437801349416e-177
1731740783.5510478,-0.24292957791850825,0.022329044550735103,9.772738844668247,0.0011423209131621263,0.01242602104544647,-1.4195608957558789e-05,0.9999221414202178,-5e-324,5e-324,1.2019462680809649e-177
1731740783.559395,-0.23889219133118306,0.027044376193331686,9.769543895179854,0.001384005098824831,0.012223574875425074,-1.6918770173656627e-05,0.9999243313675823,-5e-324,5e-324,7.211677608485789e-178
1731740783.5670593,-0.23335729722058485,0.04399936497381151,9.777203732127443,0.0022499159764248996,0.011931044899988589,-2.684582731646288e-05,0.9999262909459852,-5e-324,5e-324,4.3270065650914733e-178
1731740783.575351,-0.22596621793196028,0.03669468612295878,9.768392104999123,0.00187809518118316,0.01156377097565581,-2.1719353071279576e-05,0.9999313733889854,-5e-324,5e-324,2.596203939054884e-178
1731740783.5832365,-0.226319973679098,0.04763476943744714,9.773160775694786,0.0024368280983353328,0.011576148378319707,-2.8211057722150293e-05,0.9999300244825527,-5e-324,5e-324,1.5577223634329302e-178
1731740783.590969,-0.23275715144378692,0.04964983627184329,9.768839373131716,0.002541023080179524,0.011910517404276916,-3.026714428764213e-05,0.9999258381803964,-5e-324,5e-324,9.346334180597581e-179
1731740783.599385,-0.2263243909639284,0.05253481753459035,9.774865657570436,0.0026870235620578657,0.01157431886066551,-3.110266319994295e-05,0.9999294045480975,-5e-324,5e-324,5.607800508358549e-179
1731740783.606952,-0.23754820513499766,0.06910985658520734,9.767228680430934,0.0035375053438536203,0.012157394520541947,-4.301029588501624e-05,0.9999198377692726,-5e-324,5e-324,3.364680305015129e-179
1731740783.6152384,-0.24164887181146735,0.06875981287690565,9.76647721680348,0.003519849766987466,0.01236812058378599,-4.35375262222087e-05,0.9999173157593214,-5e-324,5e-324,2.0188081830090773e-179
1731740783.6229496,-0.2395602886630523,0.05681819851715901,9.762674456302792,0.0029097063261926035,0.012266164860942771,-3.5693773949372355e-05,0.9999205336098734,-5e-324,5e-324,1.2112849098054463e-179
1731740783.6311228,-0.2409407606001751,0.07096162467670165,9.759674539504331,0.0036350903911988456,0.012340460657521422,-4.4862402540794404e-05,0.9999172451438033,-5e-324,5e-324,7.267709458832677e-180
1731740783.6395288,-0.24224788409448006,0.06604015107555224,9.766733135567833,0.003380543868125449,0.012398470282012863,-4.191703416781882e-05,0.9999174206407166,-5e-324,5e-324,4.360625675299606e-180
1731740783.6473114,-0.23441303221450052,0.07601595587970635,9.777911478020387,0.003886748016925624,0.011983831089891622,-4.658182863208878e-05,0.9999206362568958,-5e-324,5e-324,2.6163754051797634e-180
1731740783.6552289,-0.2594002216724503,0.06332666581298006,9.770013853364967,0.0032405208822807335,0.013271469085664423,-4.30104865229207e-05,0.9999066782869378,-5e-324,5e-324,1.569825243107858e-180
1731740783.6632583,-0.25523892206597015,0.052840049780756786,9.764796438239683,0.0027053702026791186,0.01306575561561924,-3.535085288930202e-05,0.9999109789139115,-5e-324,5e-324,9.418951458647148e-181
1731740783.6711059,-0.2513056213059883,0.045829819663375945,9.775791778959434,0.002343825829790662,0.012850105950960762,-3.0120979968550714e-05,0.9999146865359341,-5e-324,5e-324,5.651370875188289e-181
1731740783.6788356,-0.25876186765663983,0.04856686640740057,9.762277689445973,0.002487226010207944,0.013249455258177596,-3.2957384637767705e-05,0.9999091281491267,-5e-324,5e-324,3.390822525112973e-181
1731740783.6870172,-0.2562924306525777,0.051166775117877844,9.763506622212505,0.0026200456954926974,0.013121404432691282,-3.438175714509492e-05,0.999910477454938,-5e-324,5e-324,2.0344935150677837e-181
1731740783.6948752,-0.25002236512982784,0.05105077918205483,9.765441082702502,0.0026135996997204603,0.012798022256846906,-3.345176104233625e-05,0.9999146856626833,-5e-324,5e-324,1.2206961090406702e-181
1731740783.7027893,-0.2426690233259436,0.05457248411079539,9.770432481652753,0.0027924798288672305,0.01241542688937351,-3.4672636746583536e-05,0.9999190257362685,-5e-324,5e-324,7.324176654244021e-182
1731740783.7109993,-0.24711556438619114,0.05405188524186786,9.761695732888136,0.0027683081076680634,0.012654126796793279,-3.503346109200802e-05,0.9999161006393928,-5e-324,5e-324,4.394505992546412e-182
1731740783.7187977,-0.24834696802624592,0.043444458781839466,9.766030490269989,0.0022240605258136044,0.012711597586308215,-2.8273716748460258e-05,0.9999167305541888,-5e-324,5e-324,2.6367035955278473e-182
1731740783.727498,-0.23160813809113817,0.04761449021050993,9.75618149606629,0.0024400211256855407,0.011867130716046207,-2.8958175015144114e-05,0.9999266056400833,-5e-324,5e-324,1.5820221573167084e-182
1731740783.73494,-0.23233874760077666,0.06136925687044658,9.752187460872197,0.0031461566687395253,0.011909305818500833,-3.747138481919982e-05,0.9999241314865005,-5e-324,5e-324,9.492132943900251e-183
1731740783.7431343,-0.23565015529874725,0.0526232850792992,9.755537123740114,0.0026968643686488807,0.012074903027047487,-3.256686845005179e-05,0.9999234583601204,-5e-324,5e-324,5.69527976634015e-183
1731740783.750919,-0.24194656290581087,0.0591072901393764,9.751082576978442,0.0030305223462319623,0.01240299078142417,-3.759060485189193e-05,0.9999184868482687,-5e-324,5e-324,3.41716785980409e-183
1731740783.7589626,-0.2512310712884084,0.05246320587073521,9.74457912626519,0.0026916557291643563,0.012887366653300317,-3.469136095080263e-05,0.999913331027589,-5e-324,5e-324,2.050300715882454e-183
1731740783.7667956,-0.23429628071249817,0.04105473016306612,9.756718206960285,0.00210374944906234,0.012004192236860195,-2.525568845059053e-05,0.9999257337268335,-5e-324,5e-324,1.2301804295294724e-183
1731740783.7750375,-0.2382611961618739,0.04833543453338655,9.75490368906875,0.0024772793288469694,0.012209462449233623,-3.0248596457108323e-05,0.9999223925879698,-5e-324,5e-324,7.381082577176834e-184
1731740783.782801,-0.22962681779478059,0.0460000925071413,9.766504247132655,0.002354803942600492,0.011753235623620044,-2.7678554144681654e-05,0.9999281552114958,-5e-324,5e-324,4.4286495463061003e-184
1731740783.7907853,-0.23952966123350897,0.0527391729359254,9.768197338318656,0.0026992941418036514,0.012257702311179649,-3.3089750598863094e-05,0.9999212276225837,-5e-324,5e-324,2.6571897277836603e-184
1731740783.798921,-0.25049919078307414,0.05343073886897712,9.75700276456346,0.002737806020042356,0.012833480385330394,-3.5138605333995076e-05,0.9999138987756268,-5e-324,5e-324,1.594313836670196e-184
1731740783.8067768,-0.24056091705773508,0.06270422457138627,9.746694717820107,0.0032163871882916824,0.012337503827191672,-3.968541502124294e-05,0.9999187163354014,-5e-324,5e-324,9.565883020021176e-185
1731740783.8151646,-0.23723157464870356,0.06252223200845676,9.749847276248705,0.0032060224265374098,0.012162899884189214,-3.899761495036515e-05,0.9999208887536023,-5e-324,5e-324,5.739529812012705e-185
1731740783.8227937,-0.2452896161759409,0.06768028012304281,9.754372433132035,0.003468880123299184,0.012569957721596397,-4.360738412389118e-05,0.9999149769515224,-5e-324,5e-324,3.443717887207623e-185
1731740783.8310447,-0.23073140764501762,0.0561704788648413,9.76642491373664,0.0028754487282995587,0.011809764940224614,-3.3960882360346037e-05,0.9999261273180765,-5e-324,5e-324,2.0662307323245735e-185
1731740783.8387825,-0.24641733946005742,0.05932024508257666,9.761445973632611,0.0030382031412288144,0.01261866294346713,-3.834129106965479e-05,0.9999157650508053,-5e-324,5e-324,1.2397384393947441e-185
1731740783.8470173,-0.24864629356861256,0.049717936844467875,9.785513088329957,0.002540147052688266,0.012701536726935404,-3.226647806903023e-05,0.9999161052691368,-5e-324,5e-324,7.438430636368464e-186
1731740783.8550928,-0.243998161883355,0.05592756020238385,9.776011340546802,0.0028601821726334455,0.012476264058778672,-3.568731164990464e-05,0.999918077104065,-5e-324,5e-324,4.463058381821078e-186
1731740783.8627903,-0.24360348453235675,0.040020880603852185,9.75762102307808,0.0020505708690942924,0.012479681795453028,-2.559251876267322e-05,0.9999200228250348,-5e-324,5e-324,2.6778350290926467e-186
1731740783.870774,-0.24791566127605466,0.04244788114551444,9.772444210526535,0.002171617975573369,0.012681214997064356,-2.754103396632896e-05,0.999917231626227,-5e-324,5e-324,1.606701017455588e-186
1731740783.8792515,-0.24308094217578904,0.057790451099418036,9.77846508100342,0.002954709826637945,0.012426251420685984,-3.671896253102779e-05,0.9999184249813522,-5e-324,5e-324,9.640206104733526e-187
1731740783.886788,-0.24592619470000468,0.047363539458478945,9.76459993117041,0.0024250464989203913,0.012589563780197684,-3.053278714420424e-05,0.9999178071726952,-5e-324,5e-324,5.784123662840116e-187
1731740783.8951416,-0.24643624538445594,0.03488246815750924,9.765857647911231,0.0017857835014362681,0.012614122980293584,-2.25279209816744e-05,0.9999188438924516,-5e-324,5e-324,3.470474197704069e-187
1731740783.9028265,-0.2524883597795017,0.042716716001927425,9.767569958619786,0.0021864548143971296,0.012921438200483115,-2.825456715615152e-05,0.99991412383857,-5e-324,5e-324,2.0822845186224414e-187
1731740783.9118805,-0.25635904858254477,0.05436044952303145,9.756386916578123,0.0027856080550580607,0.01313435678229921,-3.65904683229931e-05,0.9999098597977802,-5e-324,5e-324,1.2493707111734647e-187
1731740783.918784,-0.24599219306554246,0.05057278216499074,9.76739418363828,0.0025886180400196126,0.012589314114553525,-3.259161769045775e-05,0.9999174001709114,-5e-324,5e-324,7.496224267040788e-188
1731740783.9270911,-0.24264512174752859,0.05404626573454132,9.760591014577498,0.002768341800527975,0.01242672004498309,-3.4404196915378166e-05,0.999918952580133,-5e-324,5e-324,4.497734560224473e-188
1731740783.9350033,-0.24542528227703278,0.06331296085674042,9.750284188824622,0.0032464052450191815,0.012582224597106003,-4.085044893599481e-05,0.9999155698399811,-5e-324,5e-324,2.6986407361346837e-188
1731740783.9433293,-0.24206555510840716,0.052352986474981746,9.755113421009616,0.002683117559336517,0.012404024336429374,-3.328413598370482e-05,0.9999194667334917,-5e-324,5e-324,1.6191844416808103e-188
1731740783.9510648,-0.23861319781113802,0.054635547988504674,9.750349515008114,0.0028014715158489216,0.012233148648537157,-3.427351662248308e-05,0.9999212472274077,-5e-324,5e-324,9.715106650084862e-189
1731740783.9590013,-0.23797830442887027,0.05361088323646218,9.754673776387682,0.0027477151456340738,0.012195216638256819,-3.351160006563683e-05,0.9999218597618501,-5e-324,5e-324,5.829063990050917e-189
1731740783.9670987,-0.23472432640732216,0.04437695840867418,9.765648039025969,0.0022719067454470177,0.012015099529148681,-2.7299226701163725e-05,0.9999252347439767,-5e-324,5e-324,3.4974383940305498e-189
1731740783.9754438,-0.24761598988736203,0.04434326733036076,9.769359554616752,0.0022693003987010185,0.012669877356779258,-2.8754139776265096e-05,0.9999171583969664,-5e-324,5e-324,2.0984630364183296e-189
1731740783.9841495,-0.24864722332694847,0.04145001069118521,9.7620096573306,0.002122833188328644,0.012732212148263167,-2.703061447451554e-05,0.9999166883407897,-5e-324,5e-324,1.2590778218509977e-189
1731740783.9910452,-0.24471698023640345,0.042347678533851754,9.76621884493547,0.00216787712654806,0.012525651630349589,-2.715626787613441e-05,0.9999192005469923,-5e-324,5e-324,7.554466931105986e-190
1731740783.9992418,-0.2495414393625452,0.037140195255076676,9.754857987869485,0.0019035046567130649,0.012787370594471159,-2.4342853900367632e-05,0.9999164261230671,-5e-324,5e-324,4.532680158663591e-190
1731740784.0070813,-0.25267553500424583,0.037607007778046,9.772222910397472,0.0019240009291164005,0.012924893303841835,-2.4869630126112562e-05,0.999914618722524,-5e-324,5e-324,2.7196080951981544e-190
1731740784.015399,-0.25072526973301623,0.025437246659015107,9.769234334617389,0.0013017911095536449,0.012829168348990956,-1.6702286006348213e-05,0.9999168552936859,-5e-324,5e-324,1.6317648571188925e-190
1731740784.0230913,-0.25673771555074726,0.03633132260478406,9.769595970643481,0.0018592311344813731,0.013136113294227023,-2.4425220517568223e-05,0.9999119887222667,-5e-324,5e-324,9.790589142713355e-191
1731740784.031093,-0.25651446038513587,0.039276465682011055,9.77891091856773,0.0020080311995671306,0.013112181837352969,-2.6331987042846968e-05,0.9999120150317188,-5e-324,5e-324,5.874353485628012e-191
1731740784.0393658,-0.25709876778381585,0.03721282887209726,9.76582511437306,0.0019050758408289277,0.013159648162747823,-2.5072344360638044e-05,0.9999115929509224,-5e-324,5e-324,3.524612091376807e-191
1731740784.047375,-0.2660684781995864,0.053691739071305235,9.763959136006648,0.0027491896073668144,0.013620980756584033,-3.7450274559993626e-05,0.9999034500576586,-5e-324,5e-324,2.114767254826084e-191
1731740784.0552971,-0.25469089282795493,0.051129236558017516,9.761881868322739,0.0026185621263701696,0.013041621860640633,-3.415331878154035e-05,0.9999115251186903,-5e-324,5e-324,1.2688603528956503e-191
1731740784.062895,-0.2567228877475542,0.044324491397701136,9.767578692526847,0.0022687388507490543,0.01313801091872856,-2.9809365298389657e-05,0.9999111183522905,-5e-324,5e-324,7.613162117373901e-192
1731740784.0709743,-0.26009686619345435,0.03760802247533943,9.761898820740717,0.0019260773336498129,0.013318374320831994,-2.565454189001326e-05,0.9999094511371515,-5e-324,5e-324,4.567897270424341e-192
1731740784.0794995,-0.25589632894458825,0.029507998299656783,9.764236981653413,0.0015108842510616809,0.013100306233199403,-1.97947676134477e-05,0.9999130456262402,-5e-324,5e-324,2.7407383622546044e-192
1731740784.0869863,-0.2560096284214405,0.04571695840362219,9.758217853054548,0.002342256247778254,0.01311407850036727,-3.071925823672887e-05,0.9999112629814123,-5e-324,5e-324,1.6444430173527626e-192
1731740784.0955334,-0.2615842719259111,0.049696250481626444,9.758197678385464,0.0025461221770225907,0.013399481444839373,-3.4119890676642706e-05,0.9999069806710533,-5e-324,5e-324,9.866658104116576e-193
1731740784.1032286,-0.2670838395227342,0.043225279585850866,9.763452817236356,0.0022133951921085326,0.013673731109957515,-3.0268274637676396e-05,0.9999040599192943,-5e-324,5e-324,5.919994862469945e-193
1731740784.111279,-0.24979344580348423,0.030962991237838643,9.765887640048845,0.0015851217726663455,0.012785863815019059,-2.0268833410709974e-05,0.9999170008878957,-5e-324,5e-324,3.551996917481967e-193
1731740784.1191492,-0.2549815203629499,0.036294887027859435,9.774531138716807,0.001856431247689404,0.013039719338503872,-2.420944247378961e-05,0.9999132556359569,-5e-324,5e-324,2.13119815048918e-193
1731740784.1281462,-0.2521088609482387,0.04404300765616879,9.778041296755474,0.0022519268847325472,0.012888207234858288,-2.9025784760987717e-05,0.9999144073854926,-5e-324,5e-324,1.278718890293508e-193
1731740784.1353607,-0.2477516434732401,0.04964956069721689,9.780147391578675,0.0025380466617664263,0.012662797937047927,-3.2141452567549235e-05,0.9999166019396194,-5e-324,5e-324,7.672313341761049e-194
1731740784.1433034,-0.24561615332027217,0.035056980070673885,9.761299754527283,0.0017955562878690318,0.012578032059349145,-2.2586387703117844e-05,0.999919281030717,-5e-324,5e-324,4.603388005056629e-194
1731740784.1511018,-0.2491232625488039,0.03875128032756058,9.765314062921448,0.001983949218685079,0.012752279982572638,-2.530198311111941e-05,0.9999167178623195,-5e-324,5e-324,2.7620328030339774e-194
1731740784.1599646,-0.2438055029394386,0.03186989417309885,9.778735975594664,0.0016294126873368515,0.012463117747544073,-2.030916651380025e-05,0.9999210045287792,-5e-324,5e-324,1.6572196818203865e-194
1731740784.1676843,-0.24516383032811626,0.04402163376948431,9.76404420742711,0.0022540706967332813,0.012551294030795341,-2.8293804695834643e-05,0.9999186883856643,-5e-324,5e-324,9.943318090922318e-195
1731740784.175289,-0.2507672300816354,0.03383500540817496,9.758102188518766,0.0017335312085820056,0.012845903106515608,-2.2270645004820695e-05,0.9999159850442162,-5e-324,5e-324,5.965990854553391e-195
1731740784.1832852,-0.24096116080288746,0.03993345685818622,9.766747405640556,0.0020441835086129085,0.012332850181137828,-2.521257912367091e-05,0.999921857689149,-5e-324,5e-324,3.579594512732035e-195
1731740784.1910381,-0.24680910737040435,0.04550788905631798,9.757808746118709,0.0023316574420404173,0.012643543914443094,-2.9482850071467238e-05,0.999917348235152,-5e-324,5e-324,2.1477567076392206e-195
1731740784.1991694,-0.24912077448083633,0.033529657750197034,9.76226177721224,0.0017171569944516866,0.012756169330832954,-2.1906160049431773e-05,0.9999171620869299,-5e-324,5e-324,1.2886540245835324e-195
1731740784.207041,-0.2378185059482674,0.03160996261886822,9.77259504118086,0.0016171449815197713,0.012164842452079352,-1.9673795404473998e-05,0.9999246976963648,-5e-324,5e-324,7.731924147501194e-196
1731740784.2152584,-0.2382197498091948,0.032852347200227186,9.780470940724141,0.0016793504012466405,0.012175543307124627,-2.0448548121304832e-05,0.9999244649018559,-5e-324,5e-324,4.639154488500716e-196
1731740784.2230422,-0.24324889944606376,0.04413226525373006,9.766282287334874,0.0022592204723571995,0.012450450657731822,-2.8130565219399557e-05,0.999919937499972,-5e-324,5e-324,2.7834926931004294e-196
1731740784.231405,-0.24961827155240385,0.03174660280458178,9.770937204432176,0.0016243981590844895,0.012770297960408024,-2.0745767559322798e-05,0.99991713676196,-5e-324,5e-324,1.6700956158602577e-196
1731740784.2392676,-0.2433842478435517,0.04155345728821782,9.76798407070618,0.0021268371627903905,0.012455223861385463,-2.6492347904632508e-05,0.9999201684436619,-5e-324,5e-324,1.0020573695161546e-196
1731740784.2473102,-0.26310700988777164,0.04528278848425881,9.76094494681824,0.0023193527001547755,0.013473686240057337,-3.125315162726611e-05,0.9999065353348768,-5e-324,5e-324,6.012344217096927e-197
1731740784.2552874,-0.25818125549320986,0.05326647118625841,9.767495379956177,0.0027264431339520242,0.013212642284241852,-3.602679658174981e-05,0.999908991505615,-5e-324,5e-324,3.607406530258156e-197
1731740784.2629368,-0.2616901473388946,0.04824045400081755,9.762567093696363,0.002470431600331092,0.013398918259213261,-3.310418387030698e-05,0.9999071781227016,-5e-324,5e-324,2.1644439181548934e-197
1731740784.2709398,-0.2599647597900555,0.0478584655157249,9.775411852897506,0.0024476532655085177,0.013293146020007824,-3.253998492484742e-05,0.9999086459289829,-5e-324,5e-324,1.298666350892936e-197
1731740784.2791252,-0.25174692228028334,0.04619275142857557,9.757740170820535,0.0023667553758291377,0.012896458745507693,-3.052538715711469e-05,0.9999140357495824,-5e-324,5e-324,7.791998105357616e-198
1731740784.2868166,-0.2413095559560606,0.042320280984098464,9.750967884230603,0.00216986737457447,0.012370634509496612,-2.684475357621429e-05,0.9999211260678356,-5e-324,5e-324,4.675198863214569e-198
1731740784.2950318,-0.2510882872845739,0.046461143199834076,9.77276189020633,0.00237684928594573,0.012842971978216376,-3.05284128425881e-05,0.9999147002251015,-5e-324,5e-324,2.805119317928741e-198
1731740784.3030634,-0.2567161059156662,0.041763055548806695,9.764529899016376,0.002138301518750139,0.013141782781634954,-2.810358528733762e-05,0.9999113562822075,-5e-324,5e-324,1.6830715907572447e-198
1731740784.3110373,-0.2574591752681497,0.0506757910929559,9.764379107622716,0.0025946709421281714,0.013179934388802914,-3.420067857330762e-05,0.9999097738508822,-5e-324,5e-324,1.0098429544543467e-198
1731740784.3189163,-0.24593400857885858,0.05482633158936728,9.765006893284568,0.0028070213001883926,0.012589376269751163,-3.534158741075126e-05,0.9999168100334803,-5e-324,5e-324,6.05905772672608e-199
1731740784.3268108,-0.23470934557700265,0.050373471072760995,9.772805589828161,0.002577007858670553,0.012005493198400285,-3.0940582921954696e-05,0.9999246102613135,-5e-324,5e-324,3.635434636035648e-199
1731740784.3348122,-0.2368330939184672,0.0570391412374066,9.76048597596721,0.002921680697405042,0.012129302411167634,-3.544070714011266e-05,0.9999221682455476,-5e-324,5e-324,2.1812607816213886e-199
1731740784.3428032,-0.2402621244174866,0.058644341676037715,9.76386811512134,0.0030028536547062976,0.012300564334782427,-3.693975582108498e-05,0.9999198355980488,-5e-324,5e-324,1.3087564689728331e-199
1731740784.3508186,-0.23944650072471071,0.054819058618903876,9.759911894463428,0.0028081258907405636,0.012263827776153789,-3.444109821589469e-05,0.9999208527533914,-5e-324,5e-324,7.852538813836999e-200
1731740784.3587966,-0.23728118534693582,0.05922765343306107,9.762326565388994,0.003033205704009341,0.012149930721255378,-3.685612921571923e-05,0.9999215856697222,-5e-324,5e-324,4.711523288302199e-200
1731740784.3669128,-0.23598199612027088,0.05876034816335226,9.769760872094723,0.003006987430543233,0.012074249144663447,-3.630992646725912e-05,0.9999225816110837,-5e-324,5e-324,2.826913972981319e-200
1731740784.3748198,-0.24789175138310005,0.052973301183167606,9.77757333844238,0.0027086625595537234,0.012673261066090395,-3.4330470772254985e-05,0.9999160216850753,-5e-324,5e-324,1.6961483837887914e-200
1731740784.3828177,-0.24330601640603192,0.04423382934271307,9.766937927625975,0.002264267598842136,0.012452536473607003,-2.819813352803157e-05,0.9999199001082435,-5e-324,5e-324,1.0176890302732748e-200
1731740784.390913,-0.2383997939256504,0.0567072385235966,9.769175807112694,0.0029020940426970907,0.0121986522850973,-3.5404419562593356e-05,0.9999213816491382,-5e-324,5e-324,6.1061341816396484e-201
1731740784.398806,-0.23761084193156212,0.053656796727439206,9.754237963515664,0.002750191799107992,0.012176937752490931,-3.349152414808514e-05,0.9999220757190821,-5e-324,5e-324,3.663680508983789e-201
1731740784.406841,-0.23833457156518723,0.048474649325526024,9.756288584994163,0.0024840614917469384,0.012211486911360536,-3.0336439986554286e-05,0.999922351038129,-5e-324,5e-324,2.1982083053902734e-201
1731740784.4150248,-0.23685344801723734,0.04656246171445624,9.758716058711341,0.00238548286804677,0.0121326297578961,-2.8944393200509573e-05,0.9999235510422115,-5e-324,5e-324,1.318924983234164e-201
1731740784.4228146,-0.24625984102713927,0.04326036765367374,9.762087904269773,0.002215533824987243,0.012609908911215597,-2.7939969765031554e-05,0.9999180370542774,-5e-324,5e-324,7.913549899404983e-202
1731740784.4307942,-0.24567875251667418,0.04127911121720424,9.753576524300145,0.002115912591490693,0.012591154350355368,-2.664395380141424e-05,0.9999184891960596,-5e-324,5e-324,4.74812993964299e-202
1731740784.43879,-0.25394922538695763,0.0549344076482913,9.763074326445322,0.002813095762692797,0.013002041766684437,-3.657922541843415e-05,0.9999115121169911,-5e-324,5e-324,2.848877963785794e-202
1731740784.447019,-0.2486164419704558,0.043973972225693526,9.755126058269537,0.002253683116158871,0.012739597355665648,-2.8713418554244128e-05,0.9999163078713974,-5e-324,5e-324,1.7093267782714761e-202
1731740784.4549654,-0.24661387275063285,0.042904374790494235,9.758497383008596,0.0021981100956063857,0.012632675224773744,-2.7770293993354187e-05,0.9999177881493476,-5e-324,5e-324,1.0255960669628856e-202
1731740784.4629147,-0.23751146574022344,0.046332759151640285,9.768421043330548,0.0023713560637836986,0.012154241335217635,-2.8824244070902788e-05,0.9999233221888302,-5e-324,5e-324,6.153576401777314e-203
1731740784.4709775,-0.24138740800858718,0.05126283176051542,9.76551669338114,0.002624450588862006,0.012356128974860542,-3.243063742764032e-05,0.999920215459272,-5e-324,5e-324,3.6921458410663884e-203
1731740784.4793074,-0.24347355320358982,0.05589681648794988,9.77071726822595,0.002860159540269683,0.01245619428781173,-3.562961289136908e-05,0.9999183273856916,-5e-324,5e-324,2.215287504639833e-203
1731740784.4869976,-0.22269858504715387,0.0581983669923793,9.776231814792991,0.002976283207456148,0.011387328913658559,-3.389426360234324e-05,0.9999307322658205,-5e-324,5e-324,1.3291725027838996e-203
1731740784.494989,-0.23537272158493294,0.053833213310661945,9.762062870614075,0.0027570265366351626,0.01205262460119385,-3.323194601022323e-05,0.9999235630489647,-5e-324,5e-324,7.975035016703397e-204
1731740784.502996,-0.2353157581951004,0.055284263923897174,9.766969033403601,0.0028299173203217075,0.012043646515176766,-3.4085132491359216e-05,0.9999234675637838,-5e-324,5e-324,4.7850210100220384e-204
1731740784.5109656,-0.2295354961768258,0.04873286914535392,9.769433890745285,0.002493947915523544,0.011745021856480959,-2.9293584424834965e-05,0.9999279143154627,-5e-324,5e-324,2.871012606013223e-204
1731740784.519009,-0.24402385141703298,0.052224057424712346,9.76301193967178,0.002674341581307454,0.012494215194706585,-3.341652710061443e-05,0.9999183673516107,-5e-324,5e-324,1.722607563607934e-204
1731740784.526984,-0.24218237725646977,0.04737558557787428,9.756046306869473,0.002427795627049784,0.01240886218145689,-3.0128589840620506e-05,0.9999200593247557,-5e-324,5e-324,1.0335645381647604e-204
1731740784.534985,-0.24227459359020997,0.055240409940474564,9.75952837250059,0.0028298151682267896,0.012409092439294458,-3.511828261101798e-05,0.9999189993882769,-5e-324,5e-324,6.201387228988562e-205
1731740784.5429878,-0.2346684780779541,0.05181901891350349,9.75563210772887,0.0026556236354849582,0.012024512571937441,-3.19350012308939e-05,0.9999241759956949,-5e-324,5e-324,3.720832337393137e-205
1731740784.551005,-0.24111813640731933,0.049287343965289596,9.743478122059198,0.0025290224043256135,0.012370271128385095,-3.128718684079749e-05,0.9999202865523834,-5e-324,5e-324,2.232499402435882e-205
1731740784.558984,-0.2375659062584541,0.04896543982643938,9.749353839788252,0.002510997110770286,0.012180770655832479,-3.058824566757561e-05,0.999922658401188,-5e-324,5e-324,1.339499641461529e-205
1731740784.5670989,-0.24094123198749431,0.050208818339223,9.744260144449123,0.002576097558712332,0.012360200410979105,-3.1843620330241886e-05,0.9999202908998058,-5e-324,5e-324,8.036997848769174e-206
1731740784.5750098,-0.23985396526671535,0.044011660632440046,9.755569137206583,0.002255525382282884,0.01229023970458368,-2.7723112010303592e-05,0.999921927874713,-5e-324,5e-324,4.8221987092615043e-206
1731740784.583322,-0.23632856324206045,0.051306693645089024,9.75086236489231,0.002630651666499911,0.012115463660011538,-3.1874014372265896e-05,0.9999231441446685,-5e-324,5e-324,2.8933192255569025e-206
1731740784.590998,-0.24115650684172063,0.0631057385991628,9.762882351796714,0.0032316146172748418,0.012347534656647889,-3.990572406779087e-05,0.999918543413613,-5e-324,5e-324,1.7359915353341414e-206
1731740784.5989804,-0.23423704619487612,0.061566039595044544,9.7677001422792,0.0031512290937114303,0.011987506510599344,-3.777828136488904e-05,0.9999231810572544,-5e-324,5e-324,1.0415949212004848e-206
1731740784.6069736,-0.24061985711145692,0.0491500522238236,9.761253430094081,0.0025173869536567954,0.012322251456857234,-3.1022328649375294e-05,0.9999209088320808,-5e-324,5e-324,6.24956952720291e-207
1731740784.61498,-0.23750635884695226,0.054868568931950405,9.75906134394512,0.0028109104809463923,0.012165562288209008,-3.419897251266281e-05,0.9999220453149885,-5e-324,5e-324,3.749741716321746e-207
1731740784.6229823,-0.24473622619684324,0.04944113281424836,9.771393041718635,0.0025296612173549733,0.012519953026121262,-3.1673823501533254e-05,0.9999184219660712,-5e-324,5e-324,2.2498450297930473e-207
1731740784.630963,-0.2538625499270903,0.05001539379987714,9.763229749591728,0.0025611661824747425,0.012997443464032376,-3.329153402273372e-05,0.999912249041314,-5e-324,5e-324,1.3499070178758283e-207
1731740784.6389828,-0.2483250165285198,0.04676864790102004,9.76288075746988,0.002395005883734161,0.012714548160640445,-3.0453966707436738e-05,0.999916298139221,-5e-324,5e-324,8.09944210725497e-208
1731740784.6471195,-0.23566511001476811,0.039553356709362025,9.765544404188958,0.00202498286203852,0.012063395458448457,-2.442999681916761e-05,0.9999251838700717,-5e-324,5e-324,4.859665264352982e-208
1731740784.6550188,-0.23692771224909523,0.04384330797092972,9.764987810726266,0.0022447351430412714,0.012128660543031022,-2.7227701903266756e-05,0.9999239251144169,-5e-324,5e-324,2.915799158611789e-208
1731740784.6630118,-0.23888237441976964,0.05072684171615158,9.769442257968961,0.0025959715194888437,0.012223052528452369,-3.173317379967381e-05,0.9999219254080602,-5e-324,5e-324,1.7494794951670734e-208
1731740784.6709902,-0.23837923056006488,0.0519839199710972,9.77594564897083,0.002658533208849999,0.012189198741679204,-3.240791181361436e-05,0.9999221742640477,-5e-324,5e-324,1.049687697100244e-208
1731740784.6793249,-0.2395138652403358,0.05585062908226769,9.762130591286795,0.0028603169342586517,0.01226448058733194,-3.508308371493231e-05,0.9999206967915685,-5e-324,5e-324,6.298126182601463e-209
1731740784.6870196,-0.2502502930211546,0.05218515039857936,9.764615464147077,0.0026718992648065974,0.012810756263336972,-3.4231981578007296e-05,0.9999143684868478,-5e-324,5e-324,3.7788757095608776e-209
1731740784.6949825,-0.24615766238495837,0.04663398086414761,9.764430446701136,0.002387734296037814,0.012601631814567062,-3.0091823673705535e-05,0.9999177449645664,-5e-324,5e-324,2.2673254257365266e-209
1731740784.702983,-0.24633570582941253,0.049288783293879194,9.7693472597199,0.0025223916925876393,0.012604377442894969,-3.179580393149665e-05,0.9999173796861683,-5e-324,5e-324,1.360395255441916e-209
1731740784.7109766,-0.24668195206210064,0.054951807573983776,9.766551263546784,0.002812999105885911,0.012625648357992356,-3.551890920021912e-05,0.9999163358891471,-5e-324,5e-324,8.162371532651496e-210
1731740784.7193244,-0.24808680063179162,0.05308237848970276,9.769183228831196,0.0027165701258080985,0.012694114154796867,-3.4487357339152006e-05,0.9999157357113642,-5e-324,5e-324,4.897422919590897e-210
1731740784.726976,-0.2417471047931375,0.051242460541087276,9.769086466839731,0.002622448604279853,0.012370013225589364,-3.244231771263004e-05,0.9999200490457288,-5e-324,5e-324,2.938453751754538e-210
1731740784.7350183,-0.24321053094228873,0.04989908960590236,9.77094377097298,0.0025532121295879953,0.01244250759943282,-3.177092432402887e-05,0.9999193287976125,-5e-324,5e-324,1.7630722510527227e-210
1731740784.7430308,-0.250792351280217,0.05388147036510391,9.770382212290817,0.002757120537368451,0.012830902756379282,-3.537939241916619e-05,0.999913878776116,-5e-324,5e-324,1.0578433506316335e-210
1731740784.751065,-0.24049739319000515,0.05938336097882797,9.769566436749491,0.0030389200251702106,0.012305418737253885,-3.7398187731422994e-05,0.9999196668913743,-5e-324,5e-324,6.347060103789801e-211
1731740784.7590446,-0.25395287194915933,0.057177831528703024,9.766203929432507,0.0029270366183257314,0.01299804264269357,-3.804912413579637e-05,0.9999112370087446,-5e-324,5e-324,3.80823606227388e-211
1731740784.7673328,-0.24861862990777683,0.055375673526596815,9.777354534173176,0.002831561175134241,0.01271066682003049,-3.599408274687412e-05,0.9999152063623833,-5e-324,5e-324,2.284941637364328e-211
1731740784.7750635,-0.2509247485013067,0.05668858038548934,9.760102880416015,0.0029038113289286027,0.012851160301335244,-3.7320584175842745e-05,0.9999132033160926,-5e-324,5e-324,1.3709649824185968e-211
1731740784.7831013,-0.24847769700117464,0.059152265662934224,9.765074778786719,0.0030284701610994724,0.01271939549293353,-3.8523602781483714e-05,0.9999145182777924,-5e-324,5e-324,8.225789894511581e-212
1731740784.7910383,-0.2477277265991423,0.04937772902666678,9.750340825523985,0.0025318659779588904,0.012700264553387295,-3.2158064430797556e-05,0.9999161424343556,-5e-324,5e-324,4.935473936706948e-212
1731740784.7990334,-0.24368644186768848,0.04758314986717194,9.76472420966986,0.0024362631443489405,0.012474798724793462,-3.0394347673929554e-05,0.9999192182845827,-5e-324,5e-324,2.961284362024169e-212
1731740784.8070238,-0.2355155870444412,0.04650640237147503,9.761383231856602,0.0023819620359311748,0.012060834472882666,-2.8730621066665216e-05,0.9999244279960504,-5e-324,5e-324,1.7767706172145012e-212
1731740784.8153028,-0.24330234294932093,0.037001807731478764,9.758420964504587,0.0018957277754385415,0.012463259420676581,-2.362882476209387e-05,0.9999205332537646,-5e-324,5e-324,1.0660623703287007e-212
1731740784.8230698,-0.24701671582818632,0.038960496259981006,9.768854032560174,0.0019939404750369937,0.01263991958033839,-2.5205310946161567e-05,0.9999181246477518,-5e-324,5e-324,6.396374221972204e-213
1731740784.8310883,-0.24086563374495865,0.0482759950216136,9.775592713725556,0.0024689932613848596,0.012316754424067293,-3.041238329610148e-05,0.999921097241087,-5e-324,5e-324,3.837824533183323e-213
1731740784.8390386,-0.23549904333291266,0.05386529427859316,9.767186073791974,0.0027572225183887748,0.012052767624825213,-3.3234702738678874e-05,0.9999235607845335,-5e-324,5e-324,2.3026947199099936e-213
1731740784.84718,-0.2497567612048257,0.04859974785621839,9.77124005614042,0.002486642991343522,0.012776870493371773,-3.177420737449633e-05,0.9999152799999753,-5e-324,5e-324,1.381616831945996e-213
1731740784.8550189,-0.2583113919279736,0.046637520832871655,9.765053319572923,0.0023877433153289477,0.013222660052016244,-3.1575168585837966e-05,0.999909725398257,-5e-324,5e-324,8.289700991675976e-214
1731740784.8631852,-0.25314910322319034,0.04450250395480111,9.756792294478128,0.002280373643694466,0.012969525600940711,-2.957792901081657e-05,0.999913291454253,-5e-324,5e-324,4.9738205950055855e-214
1731740784.8709946,-0.2536430324905548,0.033884107353349416,9.761651906227893,0.0017354123043160287,0.012988423302627615,-2.2542205071846493e-05,0.9999141406621345,-5e-324,5e-324,2.984292357003351e-214
1731740784.8789983,-0.26399503702362975,0.030146691218650278,9.76744071526994,0.001543071664811811,0.013510252501323212,-2.08492155061872e-05,0.9999075415119629,-5e-324,5e-324,1.7905754142020106e-214
1731740784.8870075,-0.25488334911847477,0.033889745688221416,9.75319690841001,0.001737203971865787,0.013063213066986115,-2.2695436422884053e-05,0.9999131632655127,-5e-324,5e-324,1.0743452485212063e-214
1731740784.8949661,-0.2510922775374911,0.02248862890707348,9.76164945608116,0.0011517854028536452,0.012857928025631913,-1.4810807996132686e-05,0.9999166699570087,-5e-324,5e-324,6.446071491127237e-215
1731740784.902978,-0.2552819790713228,0.03647751328174409,9.766242144351821,0.0018673550881281842,0.01306615026134463,-2.4401267760874334e-05,0.999912890259397,-5e-324,5e-324,3.867642894676342e-215
1731740784.911169,-0.2580352201576374,0.04750446573271833,9.75846327000953,0.0024337708979646107,0.013217438474310663,-3.217112268942975e-05,0.9999096834436663,-5e-324,5e-324,2.320585736805805e-215
1731740784.9191387,-0.24771615650864495,0.041910208736506,9.762415071380717,0.0021463138164196614,0.012684029371796654,-2.722616043771973e-05,0.9999172505735827,-5e-324,5e-324,1.392351442083483e-215
1731740784.9269705,-0.24344007964737446,0.04142669653096609,9.764786152203431,0.0021210434383575516,0.012462158556720601,-2.6434891931790607e-05,0.9999200943475615,-5e-324,5e-324,8.354108652500898e-216
1731740784.9349585,-0.24614167718295593,0.04592499252795466,9.757110834388463,0.002353197276073379,0.01261026743006879,-2.9676888841253903e-05,0.999917717983437,-5e-324,5e-324,5.012465191500539e-216
1731740784.942968,-0.24105887105586726,0.04335672647380404,9.769983315818624,0.002218682216114401,0.012333741416126684,-2.7366801725021422e-05,0.999921474678368,-5e-324,5e-324,3.007479114900323e-216
1731740784.9510074,-0.24998019568039534,0.0324783803667043,9.772200140858363,0.0016616260267771853,0.012787148776275044,-2.1249225870667665e-05,0.9999168602306848,-5e-324,5e-324,1.8044874689401938e-216
1731740784.9589846,-0.24551676364847155,0.03361281801494445,9.780234000530642,0.0017182572860211488,0.012548623892503405,-2.1563494119067856e-05,0.999919786365546,-5e-324,5e-324,1.0826924813641163e-216
1731740784.9671774,-0.24714826741759854,0.045306808240607295,9.76374592155862,0.0023199431142752933,0.012653216594127877,-2.9357171924998052e-05,0.9999172531324405,-5e-324,5e-324,6.496154888184698e-217
1731740784.9749882,-0.2512396318372778,0.05040784104788,9.760796258989858,0.002581910126660867,0.012866422297169297,-3.3222806832229664e-05,0.9999138901993581,-5e-324,5e-324,3.897692932910818e-217
1731740784.9831576,-0.2639895176277573,0.05011657840802487,9.768363847923212,0.0025649806182249557,0.01350855242977249,-3.4652451036467045e-05,0.9999054648739989,-5e-324,5e-324,2.338615759746491e-217
1731740784.9909792,-0.24506381067431066,0.04371689650770555,9.772904401283224,0.002236438354709744,0.012534809269203593,-2.8035600931020695e-05,0.999918934771252,-5e-324,5e-324,1.4031694558478944e-217
1731740784.9989955,-0.2394544704866176,0.04346838985774833,9.77562873329923,0.0022231142168276136,0.012244616824897503,-2.7223289909380502e-05,0.9999225601919794,-5e-324,5e-324,8.419016735087367e-218
1731740785.0069685,-0.25093291666697054,0.03206653806503962,9.793065063465866,0.0016370601632105669,0.01280852716122408,-2.097007790045974e-05,0.999916627137602,-5e-324,5e-324,5.05141004105242e-218
1731740785.014966,-0.23842695092791671,0.03911179661832064,9.791316433099052,0.001997103717708095,0.012172601074514141,-2.431179658690778e-05,0.9999239164900288,-5e-324,5e-324,3.0308460246314515e-218
1731740785.0229926,-0.24073959829112504,0.057704161711226755,9.782845229732477,0.002948981959474792,0.012301110414364724,-3.627865537643685e-05,0.9999199892350565,-5e-324,5e-324,1.8185076147788709e-218
1731740785.0309718,-0.23494458172858126,0.0504242279837673,9.777762507712534,0.002578296513737149,0.012011430483959898,-3.097136657629063e-05,0.9999245356353602,-5e-324,5e-324,1.0911045688673225e-218
1731740785.0389636,-0.23769249610746127,0.058506116380104126,9.779740697986895,0.002990919808196665,0.012149327730140614,-3.634050968516553e-05,0.9999217203930385,-5e-324,5e-324,6.546627413203935e-219
1731740785.047189,-0.24101718589689863,0.05401786294329684,9.779251670989401,0.002761611172127796,0.01231984426306519,-3.402533158852787e-05,0.9999202937151264,-5e-324,5e-324,3.927976447922361e-219
1731740785.0549793,-0.23654765528813917,0.041987524406603104,9.775127532134658,0.002147493152156202,0.012096671027109195,-2.59794789639273e-05,0.9999245262259997,-5e-324,5e-324,2.3567858687534165e-219
1731740785.0629687,-0.22788043277249284,0.043149027095133734,9.773131889153841,0.002207361142572446,0.011655998113462839,-2.5730807995007726e-05,0.9999296298253646,-5e-324,5e-324,1.4140715212520499e-219
1731740785.0709684,-0.2332145865677926,0.03786042455786149,9.775046965523554,0.0019364311624410285,0.011926420387653172,-2.3096378074394874e-05,0.9999270024345014,-5e-324,5e-324,8.484429127512298e-220
1731740785.0790033,-0.2495831879758318,0.03420842270346689,9.774280650017259,0.001749763921786353,0.01276412495990881,-2.2336059150994562e-05,0.9999170040264973,-5e-324,5e-324,5.090657476507379e-220
1731740785.0869808,-0.24503913885971784,0.036805624911142636,9.769990138057228,0.001883442051423327,0.012537330329014346,-2.361523309899499e-05,0.9999196304886612,-5e-324,5e-324,3.054394485904427e-220
1731740785.0949748,-0.2245956171048932,0.05057437470254496,9.761430326730821,0.002590316414625733,0.011501761106084512,-2.9795271450441018e-05,0.9999304970169539,-5e-324,5e-324,1.8326366915426563e-220
1731740785.102983,-0.23028601650317027,0.04662519611058947,9.771138490227946,0.0023856704451007556,0.011781369770131306,-2.8108496475673472e-05,0.9999277509464267,-5e-324,5e-324,1.0995820149255938e-220
1731740785.11099,-0.22986953348588654,0.042340327627291174,9.769541363179737,0.0021667845886863464,0.01176202249772531,-2.548759202754499e-05,0.99992847705308,-5e-324,5e-324,6.597492089553563e-221
1731740785.1191647,-0.2379993494860632,0.048627952679890334,9.763315843298468,0.002490124573760128,0.012185544882909951,-3.034587193686288e-05,0.9999226524359981,-5e-324,5e-324,3.9584952537321376e-221
1731740785.1269727,-0.24670796174241916,0.06676573767238733,9.749046044065016,0.0034238738641085317,0.012649520397679408,-4.3314081718079514e-05,0.9999141287357438,-5e-324,5e-324,2.3750971522392824e-221
1731740785.1350276,-0.2418774821235765,0.05083335007413552,9.739047643528854,0.0026095342321788796,0.012414840203732704,-3.239955777940331e-05,0.9999195272741079,-5e-324,5e-324,1.4250582913435694e-221
1731740785.1429806,-0.24711947999680212,0.048695942661668816,9.73448512420325,0.002500975003323771,0.01268972720907578,-3.1739345419082025e-05,0.9999163539716739,-5e-324,5e-324,8.550349748061416e-222
1731740785.150994,-0.23781483008792498,0.055793204024735664,9.737972536924294,0.0028644665579517247,0.012207714994797335,-3.4971340813773885e-05,0.999921379560888,-5e-324,5e-324,5.1302098488368496e-222
1731740785.1589916,-0.2434847879453331,0.05406605669218515,9.75873975750614,0.002769879218707768,0.012472066479344885,-3.4548937510683847e-05,0.9999183837360025,-5e-324,5e-324,3.07812590930211e-222
1731740785.1670837,-0.2490415441539186,0.04584716331218609,9.766172266368917,0.002347025490711027,0.012746929174491243,-2.99198809810434e-05,0.999915999658355,-5e-324,5e-324,1.8468755455812657e-222
1731740785.1751177,-0.255488060037273,0.037085104627936655,9.762970326374084,0.0018990943704121147,0.013081068910179038,-2.484435484308258e-05,0.9999126354134632,-5e-324,5e-324,1.1081253273487594e-222
1731740785.1830926,-0.2502580032586919,0.041883516390043236,9.762725103539294,0.00214487505737775,0.012813711479831076,-2.7486129968980508e-05,0.9999156002151445,-5e-324,5e-324,6.6487519640925556e-223
1731740785.191071,-0.250471851515762,0.03781937863285407,9.767126952992717,0.0019358780934841226,0.012818905898531211,-2.4817924805471518e-05,0.999915960174475,-5e-324,5e-324,3.9892511784555335e-223
1731740785.1990378,-0.24772711847781656,0.03801451780471244,9.761388356854225,0.0019470140308559837,0.012685949800115387,-2.4701756835278746e-05,0.9999176342098662,-5e-324,5e-324,2.39355070707332e-223
1731740785.2070394,-0.24584085848903364,0.03932870213790558,9.755550997510971,0.002015530290758269,0.01259692261098227,-2.539154535628987e-05,0.9999186239557943,-5e-324,5e-324,1.436130424243992e-223
1731740785.2150288,-0.24877924531802958,0.046820977386258976,9.76138596837963,0.002398051970203889,0.012739743088200115,-3.055313338779148e-05,0.9999159701491426,-5e-324,5e-324,8.616782545463952e-224
1731740785.223074,-0.2558095210677709,0.04485199805284913,9.772548396213326,0.0022945729529760834,0.013084634835265993,-3.00262987345162e-05,0.9999117592890948,-5e-324,5e-324,5.17006952727837e-224
1731740785.2310586,-0.24757783788480314,0.04678307261100636,9.76512006311862,0.002395196481636749,0.012673404639162632,-3.0357819365372186e-05,0.9999168200040788,-5e-324,5e-324,3.102041716367022e-224
1731740785.2390275,-0.22563999618791314,0.048420557677931936,9.767606248076248,0.0024784349614107386,0.01154793649314554,-2.8622806022730647e-05,0.9999302484191721,-5e-324,5e-324,1.861225029820213e-224
1731740785.2473636,-0.22971554312290415,0.04676942689191541,9.761675933904343,0.0023953703754688734,0.011763582607073431,-2.8180168029053112e-05,0.9999279371689187,-5e-324,5e-324,1.1167350178921277e-224
1731740785.2549875,-0.22689362763155502,0.04601816858632112,9.760990787393387,0.002357063686677416,0.011619953580015099,-2.7390895995624036e-05,0.9999297076191477,-5e-324,5e-324,6.700410107352766e-225
1731740785.2629817,-0.2287917808269799,0.0546653799115583,9.762255640648924,0.0027996006970324966,0.011715539912397054,-3.28012133997417e-05,0.9999274510106114,-5e-324,5e-324,4.020246064411659e-225
1731740785.2709725,-0.2452535633692348,0.058417185710606855,9.770436577748729,0.0029892021373833294,0.012547554015496341,-3.751029585301322e-05,0.9999168076154075,-5e-324,5e-324,2.4121476386469956e-225
1731740785.2789938,-0.253694111898494,0.04917610122128598,9.764571232537909,0.0025178432885929474,0.01298704762045995,-3.27022123241658e-05,0.9999124941662861,-5e-324,5e-324,1.4472885831881974e-225
1731740785.286992,-0.2592372813480808,0.03908246737339659,9.76416448756962,0.0020011263125772993,0.01327129388184375,-2.6559927649102185e-05,0.9999099297170486,-5e-324,5e-324,8.683731499129184e-226
1731740785.2949655,-0.26112666202173906,0.03398396772872545,9.768469423742944,0.0017393030896189438,0.013362111088156995,-2.3242871319413337e-05,0.9999092100144888,-5e-324,5e-324,5.21023889947751e-226
1731740785.302974,-0.2586689879356997,0.027333565451688396,9.762912099802408,0.001399735632134357,0.013243981728751368,-1.8539717336728195e-05,0.999911314739666,-5e-324,5e-324,3.126143339686506e-226
1731740785.3109598,-0.2581520641481385,0.04153925670265366,9.77466117589707,0.002124636848031872,0.013201565487195258,-2.8051040307608403e-05,0.9999105979036778,-5e-324,5e-324,1.8756860038119035e-226
1731740785.3193023,-0.2556871283814613,0.03880992365049845,9.765908890596835,0.0019868215784876212,0.013087307745257489,-2.600442385486941e-05,0.9999123832815384,-5e-324,5e-324,1.1254116022871421e-226
1731740785.3269725,-0.25708120891364233,0.04243956747154907,9.76257288074482,0.0021733739284389344,0.013163095208508432,-2.861087430252113e-05,0.9999110003153865,-5e-324,5e-324,6.752469613722853e-227
1731740785.3349924,-0.24283418677396668,0.04461735376417944,9.762965476493767,0.002284829214602101,0.012433450909726066,-2.8410582142882982e-05,0.9999200908306495,-5e-324,5e-324,4.0514817682337115e-227
1731740785.3430111,-0.23691959531633314,0.04233272304952329,9.756497269294698,0.002169281620118624,0.01213880519408658,-2.6334489246457734e-05,0.999923968575715,-5e-324,5e-324,2.4308890609402267e-227
1731740785.3510058,-0.24917257139878426,0.0409619446207296,9.760277790287756,0.0020982089843555635,0.012761366150150404,-2.6778252609753743e-05,0.9999163686708828,-5e-324,5e-324,1.458533436564136e-227
1731740785.3589902,-0.23976494542716117,0.04037889772946901,9.7642220440457,0.0020675213445417832,0.01227482282185435,-2.5380424565615863e-05,0.9999225237167207,-5e-324,5e-324,8.751200619384816e-228
1731740785.3672829,-0.24202123532270292,0.03883196876463453,9.774010621446951,0.0019863209949238176,0.012377888310082068,-2.4588391632676517e-05,0.9999214178150697,-5e-324,5e-324,5.250720371630889e-228
1731740785.3750067,-0.24576921092018425,0.0441287357021401,9.759533053776373,0.0022605979600424566,0.012588084333857563,-2.84589253883088e-05,0.9999182111651714,-5e-324,5e-324,3.150432222978533e-228
1731740785.3830378,-0.24011713080015742,0.037969409390034056,9.765690563466995,0.0019438569672789732,0.012291012404134334,-2.389382012507296e-05,0.9999225729341535,-5e-324,5e-324,1.8902593337871198e-228
1731740785.3909783,-0.24726037003282883,0.04193525891527043,9.776807094427852,0.002144436516105315,0.012642074478945371,-2.7112355169165837e-05,0.9999177859253316,-5e-324,5e-324,1.1341556002722718e-228
1731740785.3989704,-0.2472367505841504,0.04814549128666226,9.771027164371555,0.002463458894601195,0.012648294916268071,-3.116114185810383e-05,0.999916972070666,-5e-324,5e-324,6.804933601633631e-229
1731740785.4069712,-0.2409976545985371,0.04373134506496611,9.761813122353402,0.002239724932523907,0.012340923267318067,-2.7642447910715215e-05,0.9999213391467511,-5e-324,5e-324,4.082960160980178e-229
1731740785.4151113,-0.23916955833529413,0.04611068081827653,9.769692226439386,0.0023596805111169333,0.01223746330220771,-2.8878746534307378e-05,0.9999223347669711,-5e-324,5e-324,2.449776096588107e-229
1731740785.422986,-0.24525530555781708,0.05687566874487217,9.762209260424179,0.0029127771570250536,0.012558227067351966,-3.658235695731362e-05,0.999916899209074,-5e-324,5e-324,1.4698656579528642e-229
1731740785.4309657,-0.2283166196139871,0.0609404598406733,9.762747304301381,0.0031208038280140958,0.011690574624440238,-3.648666114860025e-05,0.9999267921788779,-5e-324,5e-324,8.819193947717185e-230
1731740785.4389875,-0.22868789535237663,0.05835151101182585,9.767379693615984,0.0029868078861128313,0.011704050077772359,-3.496029964156556e-05,0.9999270438228011,-5e-324,5e-324,5.2915163686303105e-230
1731740785.4473064,-0.23585384560986347,0.04386945274967363,9.764891883552403,0.002246097324860608,0.012073830275093638,-2.7121043198279585e-05,0.9999245856232082,-5e-324,5e-324,3.174909821178186e-230
1731740785.4549897,-0.24087167626240244,0.038532100116601055,9.757892533695895,0.0019742389910578084,0.012339463224189324,-2.4362951766355295e-05,0.9999219166685925,-5e-324,5e-324,1.9049458927069115e-230
1731740785.463072,-0.2436429544879102,0.049694898497695005,9.75369292378199,0.002547260091259495,0.012486655999893504,-3.1809343622797825e-05,0.9999187936408304,-5e-324,5e-324,1.1429675356241468e-230
1731740785.4709532,-0.25105180540758987,0.0460975103876795,9.756200981319974,0.0023622493169237844,0.012862895756747827,-3.0387965532541705e-05,0.9999144787267995,-5e-324,5e-324,6.85780521374488e-231
1731740785.4789922,-0.24783567064689765,0.044896758185732695,9.760339437668938,0.002299747911874753,0.01269282174432488,-2.9192719199882203e-05,0.9999167978304464,-5e-324,5e-324,4.1146831282469283e-231
1731740785.487003,-0.2547645359330605,0.04393688669854899,9.764019612308392,0.002249722352559815,0.01304259470417543,-2.9344787137479805e-05,0.9999124104698384,-5e-324,5e-324,2.468809876948157e-231
1731740785.4949589,-0.2586824349387425,0.0483887872925669,9.774128582570581,0.0024751024161818744,0.013229340895871551,-3.2746939684152215e-05,0.9999094245656095,-5e-324,5e-324,1.4812859261688942e-231
1731740785.502989,-0.24666796438121424,0.04196196134038389,9.777560342901724,0.00214563754829128,0.012610828788415891,-2.7060481908823914e-05,0.9999181779048278,-5e-324,5e-324,8.887715557013366e-232
1731740785.5109615,-0.26100709698810354,0.03235978178469908,9.772915634451971,0.001655424585658879,0.013349932509687388,-2.2101806373213347e-05,0.9999095150977103,-5e-324,5e-324,5.332629334208019e-232
1731740785.5192235,-0.2564424674213777,0.03282339836769445,9.775635473200479,0.0016786798500080607,0.013112933383360293,-2.2014340824555423e-05,0.9999126124454144,-5e-324,5e-324,3.1995776005248114e-232
1731740785.526965,-0.25298542918329536,0.034298669147569794,9.766014628646849,0.001755860557706445,0.012948979445339853,-2.273854376619257e-05,0.9999146165388246,-5e-324,5e-324,1.9197465603148867e-232
1731740785.534958,-0.256657290224821,0.039732814769791874,9.767903567227172,0.002033650493932385,0.013134252226409744,-2.6712837976897166e-05,0.9999116735844951,-5e-324,5e-324,1.151847936188932e-232
1731740785.5429702,-0.2504807010391895,0.034134756000547,9.782923300004272,0.0017444526231970995,0.012798692065664799,-2.2328574787974517e-05,0.999916571453783,-5e-324,5e-324,6.9110876171335915e-233
1731740785.5511618,-0.2510843105160918,0.03652200472337508,9.770626744895141,0.0018687992266161499,0.01284564302728778,-2.4007950552226912e-05,0.9999157446846632,-5e-324,5e-324,4.146652570280155e-233
1731740785.5589628,-0.2550377786924676,0.027659286818400044,9.764685332825756,0.001416161960781193,0.01305578615665507,-1.8490702239686947e-05,0.9999137665775116,-5e-324,5e-324,2.487991542168093e-233
1731740785.5669947,-0.2576492797643087,0.03239730304807128,9.765908888904438,0.0016585368374062988,0.013187727425474728,-2.1874264056605013e-05,0.9999116624094485,-5e-324,5e-324,1.4927949253008557e-233
1731740785.5749946,-0.25347009642303836,0.030930549797592764,9.770952585539929,0.0015826363219577924,0.01296723995267121,-2.0524176290585017e-05,0.999914669123841,-5e-324,5e-324,8.956769551805134e-234
1731740785.5830219,-0.24904722509015112,0.04058498515199316,9.763923156548566,0.002078124259928273,0.012750192604326461,-2.6498695802203797e-05,0.9999165531612785,-5e-324,5e-324,5.37406173108308e-234
1731740785.5909748,-0.25549146859901256,0.04087098254627402,9.780056213265077,0.0020893075520016196,0.013058377174501605,-2.7285352080833286e-05,0.9999125525939913,-5e-324,5e-324,3.2244370386498484e-234
1731740785.598962,-0.24810526690159504,0.04559156413713941,9.76579403069342,0.0023340328326007325,0.012699523569976971,-2.964357625838919e-05,0.9999166332815403,-5e-324,5e-324,1.934662223189909e-234
1731740785.6069658,-0.23649094090267575,0.05345173657798677,9.76034918330863,0.0027379685257958946,0.012111988063423966,-3.3164799171020386e-05,0.9999228981144492,-5e-324,5e-324,1.1607973339139454e-234
1731740785.6152434,-0.2491547989166054,0.045239151077651425,9.764264879858224,0.0023163525348827377,0.012755217680190967,-2.954806386329404e-05,0.9999159654989899,-5e-324,5e-324,6.964784003483673e-235
1731740785.6230023,-0.24214848359801014,0.03648087712120023,9.76182589446767,0.001868388636737307,0.012399858462412316,-2.3169576403591006e-05,0.9999213729574866,-5e-324,5e-324,4.178870402090203e-235
1731740785.630973,-0.24464845905529045,0.04152097988600138,9.750785696592711,0.002128920807675406,0.012541961523871256,-2.670300366914802e-05,0.999919079818101,-5e-324,5e-324,2.5073222412541218e-235
1731740785.6389773,-0.2552464106382524,0.03975663822456958,9.754217224840392,0.0020377264662739514,0.013080406274963142,-2.6656625946209436e-05,0.9999123711265677,-5e-324,5e-324,1.504393344752473e-235
1731740785.6470976,-0.24795823212513893,0.033909629907398,9.762740486271422,0.0017365325923702957,0.01269604608759049,-2.2048908176951925e-05,0.9999178938203592,-5e-324,5e-324,9.026360068514838e-236
1731740785.6549864,-0.23568445953875522,0.04261185338389192,9.759235317153477,0.002182974277353958,0.012072161339631994,-2.6355201021506835e-05,0.999924745593036,-5e-324,5e-324,5.4158160411089025e-236
1731740785.662979,-0.2287990363189562,0.039214061493225774,9.763835980331148,0.002007972385998614,0.011714127204148444,-2.352330538272944e-05,0.9999293708644608,-5e-324,5e-324,3.2494896246653413e-236
1731740785.670995,-0.23328690836363936,0.044357991339294835,9.767075218569783,0.0022706060317728887,0.011939808362975684,-2.711260343581386e-05,0.9999261395670236,-5e-324,5e-324,1.9496937747992047e-236
1731740785.6789894,-0.23334600976427736,0.05199333240123315,9.762793837196556,0.0026626046041102304,0.011948009347049492,-3.181520846807336e-05,0.9999250744916628,-5e-324,5e-324,1.1698162648795227e-236
1731740785.6870248,-0.24247943691325388,0.06926380583722426,9.766449932689028,0.0035456564151207337,0.012410640122953566,-4.400753169507174e-05,0.9999166977281966,-5e-324,5e-324,7.018897589277136e-237
1731740785.6952949,-0.24700181253857736,0.06669740093397518,9.768404169818496,0.0034135920626482603,0.012639496599784306,-4.3149783608649434e-05,0.9999142906534689,-5e-324,5e-324,4.211338553566282e-237
1731740785.7029839,-0.2363077086168964,0.06994596131233823,9.770294972594222,0.0035791805913695774,0.012090132684401175,-4.32762084940285e-05,0.9999205049828399,-5e-324,5e-324,2.526803132139769e-237
1731740785.7111032,-0.23348254875412222,0.06495191272490294,9.76424684927919,0.0033257049988566468,0.011953100659540335,-3.97555466878434e-05,0.9999230277828289,-5e-324,5e-324,1.5160818792838614e-237
1731740785.7190545,-0.2289144108442702,0.06243432390447302,9.763012176950326,0.003197215420263132,0.011720838925935848,-3.747681287431236e-05,0.9999261964484765,-5e-324,5e-324,9.096491275703168e-238
1731740785.726974,-0.23646859523703084,0.05517768662784006,9.753891667742462,0.0028282460076669083,0.012118843295249405,-3.427772450593934e-05,0.9999225637451847,-5e-324,5e-324,5.457894765421901e-238
1731740785.7349765,-0.2393251647105779,0.05178138492592279,9.74746168155368,0.0026559109663448297,0.012273290883341132,-3.259933822345869e-05,0.9999211525941007,-5e-324,5e-324,3.27473685925314e-238
1731740785.7429702,-0.24798229120915924,0.0533349063950068,9.75341991664705,0.002733904045741233,0.012709263640491837,-3.474884370076079e-05,0.9999154960189901,-5e-324,5e-324,1.964842115551884e-238
1731740785.751001,-0.22779802951065178,0.05929484276278533,9.748854572058542,0.0030408604807945256,0.0116806614901425,-3.552184952630663e-05,0.999927154373201,-5e-324,5e-324,1.1789052693311304e-238
1731740785.7589874,-0.22502485896615668,0.04946327528657745,9.747791306467546,0.002536952771289112,0.011539859611952174,-2.9278122585385155e-05,0.9999301948904055,-5e-324,5e-324,7.073431615986782e-239
1731740785.7669632,-0.2324589229480534,0.04835273812116522,9.765349279730136,0.002475525030467531,0.011899522388749901,-2.9459741614635246e-05,0.9999261334092968,-5e-324,5e-324,4.244058969592069e-239
1731740785.775017,-0.22877907569266015,0.048165256153949135,9.76175827389277,0.002466839338281121,0.011715537552311117,-2.8902420413160582e-05,0.999928327455618,-5e-324,5e-324,2.5464353817552415e-239
1731740785.7830808,-0.22513464634333047,0.04757392664158823,9.763673813212616,0.0024360817955959633,0.011526728515913862,-2.8082002469576362e-05,0.99993059721493,-5e-324,5e-324,1.527861229053145e-239
1731740785.7909713,-0.22749697188802953,0.04578260793807794,9.76769617879671,0.0023433879706033613,0.011642847197504223,-2.728563242740411e-05,0.9999294734617282,-5e-324,5e-324,9.167167374318869e-240
1731740785.798965,-0.23370277053516147,0.04949622003628426,9.772743219973338,0.002532148070487982,0.011954111636997151,-3.0271840797264615e-05,0.9999253404753452,-5e-324,5e-324,5.500300424591321e-240
1731740785.806957,-0.2151601742839875,0.05196380746122368,9.750392907081658,0.0026645062533192316,0.011031200588391592,-2.9394595843648117e-05,0.999935604004559,-5e-324,5e-324,3.3001802547547926e-240
1731740785.814973,-0.23108909529304875,0.054402040580249826,9.751826769639619,0.0027890895324153434,0.01184577839777898,-3.30413833801863e-05,0.9999259459689992,-5e-324,5e-324,1.9801081528528754e-240
1731740785.8229945,-0.2418435487285636,0.05658324094971239,9.753165927506428,0.002900494385902566,0.012395089233078877,-3.595480013212422e-05,0.9999189705183484,-5e-324,5e-324,1.1880648917117252e-240
1731740785.8310676,-0.23776173348518503,0.053582398183108684,9.755884783554638,0.002745914787372972,0.012182611935870991,-3.345502314113843e-05,0.9999220183590127,-5e-324,5e-324,7.12838935027035e-241
1731740785.83899,-0.24057988799150165,0.052021312689162096,9.765177542496064,0.002663374831217717,0.012315233679669094,-3.2802687397478445e-05,0.9999206170381263,-5e-324,5e-324,4.27703361016221e-241
1731740785.847067,-0.24370730169138535,0.06305566969357537,9.7674013155367,0.0032275515957456537,0.012472308504549195,-4.0258360339884125e-05,0.999917007961425,-5e-324,5e-324,2.566220166097326e-241
1731740785.855007,-0.24893563223553436,0.0567475949313796,9.771848041519286,0.002903344986643889,0.012734020816443195,-3.697440929124356e-05,0.999914703329553,-5e-324,5e-324,1.5397320996583955e-241
1731740785.8629851,-0.26284653803272684,0.04745608625570275,9.763263329306103,0.0024300889490725427,0.013457142506557915,-3.270511137993281e-05,0.9999064950852322,-5e-324,5e-324,9.238392597950373e-242
1731740785.8709803,-0.24342034225322987,0.05026088686084352,9.762422064966474,0.0025739681444306253,0.012464098594233385,-3.208479138461772e-05,0.9999190066724359,-5e-324,5e-324,5.543035558770224e-242
1731740785.878991,-0.23942607009803166,0.04524000257549049,9.7573683232084,0.0023180481029570006,0.012266054112228078,-2.8435519108808037e-05,0.9999220818448453,-5e-324,5e-324,3.325821335262134e-242
1731740785.887015,-0.231762263152569,0.04869181648670055,9.758885061307852,0.002494536668352034,0.01187172802762539,-2.961664017663808e-05,0.9999264165343883,-5e-324,5e-324,1.99549280115728e-242
1731740785.894982,-0.2355436847958383,0.05124174516545782,9.751654818522992,0.0026271094883871535,0.012074263944810308,-3.172283535591317e-05,0.999923651805271,-5e-324,5e-324,1.197295680694368e-242
1731740785.9030101,-0.23709427728375296,0.033618089091462196,9.763357823975124,0.0017215062692548353,0.012139271840831354,-2.0899403498472882e-05,0.9999248342043288,-5e-324,5e-324,7.183774084166208e-243
1731740785.910973,-0.23970057393861113,0.03573316424589294,9.755535576953434,0.0018312772729795548,0.012282478874613534,-2.2494358951253e-05,0.9999228903421743,-5e-324,5e-324,4.310264450499725e-243
1731740785.9190364,-0.22857508313269792,0.03556568834245764,9.751321069072452,0.0018234950541590412,0.011717699689338537,-2.1368670021312567e-05,0.9999296824893028,-5e-324,5e-324,2.5861586702998347e-243
1731740785.9270194,-0.22620935163743125,0.04001418595469334,9.767945977625113,0.0020480838811988765,0.011576717480245937,-2.3711727190381232e-05,0.9999308898131671,-5e-324,5e-324,1.5516952021799008e-243
1731740785.934964,-0.24035222353128688,0.04531690634820662,9.769780637112177,0.002319037569356367,0.012297843332376426,-2.8521394246347875e-05,0.9999216890840273,-5e-324,5e-324,9.310171213079404e-244
1731740785.9429736,-0.23255737537853777,0.047540857920252096,9.758671004337618,0.00243562501406119,0.01191270917224707,-2.9017037547304414e-05,0.9999260743919922,-5e-324,5e-324,5.5861027278476424e-244
1731740785.9510396,-0.23721785296149764,0.03594653989863563,9.76421565313968,0.0018405779557813518,0.01214451669305656,-2.2354616176915955e-05,0.9999245583979584,-5e-324,5e-324,3.351661636708585e-244
1731740785.9589741,-0.24192950083939857,0.03449661290402513,9.76897896341701,0.0017654712162578094,0.012379594523779935,-2.1857526817096865e-05,0.9999218110797763,-5e-324,5e-324,2.010996982025151e-244
1731740785.966959,-0.24379880890207664,0.04320346334788382,9.769442747923254,0.002210957750673577,0.012474555819576846,-2.7582929544600425e-05,0.9999197449606199,-5e-324,5e-324,1.2065981892150906e-244
1731740785.9750319,-0.24300503241155846,0.05058235510833967,9.763496094310593,0.0025901467001371616,0.012441472215858923,-3.222784071005909e-05,0.9999192466747203,-5e-324,5e-324,7.239589135290543e-245
1731740785.9830308,-0.25066905216177887,0.040883900369691306,9.758491581146902,0.0020945924677201726,0.012840319797771452,-2.6897513589367304e-05,0.9999153654917045,-5e-324,5e-324,4.343753481174326e-245
1731740785.9909787,-0.22988892641425482,0.03817728968470541,9.772487705035797,0.0019531529201954334,0.011759495257280607,-2.2969724570898794e-05,0.9999289469444097,-5e-324,5e-324,2.6062520887045954e-245
1731740785.9989634,-0.229152439100506,0.051157953400666985,9.765083648412102,0.0026192180174864402,0.011730632051766079,-3.0727302477614996e-05,0.9999277629031388,-5e-324,5e-324,1.5637512532227572e-245
1731740786.0069475,-0.24331517683920983,0.05535504914000956,9.76207773543398,0.0028349453244690165,0.012459111492302041,-3.532378360492327e-05,0.9999183628567184,-5e-324,5e-324,9.382507519336543e-246
1731740786.0150194,-0.23720818935547902,0.058830987247677616,9.772963456445936,0.0030096134309728086,0.012132984881296672,-3.651844770824247e-05,0.9999218627329184,-5e-324,5e-324,5.629504511601926e-246
1731740786.023007,-0.23881124051758432,0.04990322247555969,9.767523880752327,0.0025543248345850237,0.01222181981815598,-3.1220931627305475e-05,0.9999220477468358,-5e-324,5e-324,3.377702706961155e-246
1731740786.0309863,-0.23690002922265996,0.05316568958885145,9.751331446371317,0.002725833892077654,0.012144147677272702,-3.310549364073567e-05,0.9999225412054734,-5e-324,5e-324,2.026621624176693e-246
1731740786.0389714,-0.2371898234417991,0.04794056487635774,9.753108153711462,0.002457495875147583,0.012156825004214599,-2.9877645408906815e-05,0.9999230827554522,-5e-324,5e-324,1.2159729745060158e-246
1731740786.0470862,-0.23257529665297008,0.042890128720736526,9.753455917617503,0.002198536035635798,0.011920026927540557,-2.6208534112483303e-05,0.9999265366567983,-5e-324,5e-324,7.295837847036095e-247
1731740786.0550253,-0.24105932838240707,0.04847899300392629,9.748636752474798,0.0024862292466445337,0.012360720760089473,-3.0734028450047684e-05,0.9999205119917501,-5e-324,5e-324,4.3775027082216565e-247
1731740786.0629854,-0.245670907088038,0.049916950245715144,9.765138286836441,0.0025556399908220305,0.01257578772276252,-3.21418327323067e-05,0.9999176552268151,-5e-324,5e-324,2.6265016249329937e-247
1731740786.0709827,-0.2405369888329009,0.045991321270475956,9.756364434504208,0.0023567849341188567,0.012324203626291028,-2.904778418154096e-05,0.9999212762642758,-5e-324,5e-324,1.5759009749597962e-247
1731740786.079003,-0.22668273040911552,0.056325212684160575,9.754930845761118,0.002886773725875113,0.011616285471967858,-3.353599017431396e-05,0.999928361096247,-5e-324,5e-324,9.455405849758777e-248
1731740786.0870547,-0.2353690071419537,0.052948740891746345,9.75431011268128,0.0027138848957451046,0.012062016731880842,-3.2737427213355236e-05,0.9999235678337587,-5e-324,5e-324,5.673243509855266e-248
1731740786.094997,-0.24704511766407844,0.059541983792860305,9.754416513165408,0.0030517555398087825,0.012659904835851,-3.863821114162835e-05,0.9999152024570689,-5e-324,5e-324,3.4039461059131596e-248
1731740786.1029997,-0.24136151517852522,0.06301908920149743,9.76405716009651,0.003226788827663448,0.012356541279801745,-3.9875201262994274e-05,0.9999184477403298,-5e-324,5e-324,2.042367663547896e-248
1731740786.1110055,-0.23723309318914637,0.061753470122460956,9.76337720377275,0.003162215532465595,0.012146138385099757,-3.841173307555004e-05,0.9999212320177,-5e-324,5e-324,1.2254205981287374e-248
1731740786.1190073,-0.23571372065958157,0.05405091386058595,9.753153003171851,0.002770703429504288,0.01208109771750969,-3.347571042761091e-05,0.9999231816293802,-5e-324,5e-324,7.352523588772424e-249
1731740786.1270013,-0.23240789548168644,0.05900618674408595,9.766650936424595,0.00302053578646257,0.011895237455212298,-3.5932696644007584e-05,0.9999246863630721,-5e-324,5e-324,4.411514153263454e-249
1731740786.1349695,-0.230663820540965,0.05264196399957657,9.757511444423116,0.0026972843930900795,0.01181711685738517,-3.187646661172243e-05,0.9999265369965799,-5e-324,5e-324,2.6469084919580723e-249
1731740786.1429615,-0.24494026620153211,0.049541690850917815,9.75418253071637,0.002539277490242198,0.012552483111928213,-3.1876852041437714e-05,0.9999179897478686,-5e-324,5e-324,1.5881450951748433e-249
1731740786.1510103,-0.2374649824748255,0.03451341783086319,9.755297644650526,0.0017688131928830962,0.012168279705048071,-2.152504099063514e-05,0.9999243990450383,-5e-324,5e-324,9.528870571049059e-250
1731740786.1589806,-0.2372893752270828,0.02789065567898666,9.750699469358675,0.0014300729805413776,0.012165049562421483,-1.7398213895563715e-05,0.9999249802648777,-5e-324,5e-324,5.717322342629435e-250
1731740786.166959,-0.2290437252339059,0.037324527684735744,9.764699975804659,0.0019110497324344089,0.011725623670371067,-2.2409831527596143e-05,0.999929426077791,-5e-324,5e-324,3.430393405577661e-250
1731740786.1750064,-0.23917980569698416,0.05495585918896644,9.764959994027716,0.0028136788207129165,0.012243843537731228,-3.4452962203525686e-05,0.9999210820459337,-5e-324,5e-324,2.0582360433465964e-250
1731740786.1830623,-0.2543594202834249,0.04733872547431737,9.767989046953739,0.0024229213077455883,0.013016550128854642,-3.154084136988601e-05,0.9999123450984365,-5e-324,5e-324,1.2349416260079578e-250
1731740786.1909804,-0.25604516388880494,0.04731742839982479,9.744906781443728,0.0024275637826718056,0.01313379092451721,-3.18859593812548e-05,0.9999108007484057,-5e-324,5e-324,7.409649756047747e-251
1731740786.1989696,-0.253225887395783,0.040122045174660496,9.737761186786157,0.002059932642612735,0.012998830555257098,-2.6779034723984622e-05,0.9999133894315981,-5e-324,5e-324,4.445789853628648e-251
1731740786.2071886,-0.24578823751559475,0.049930605034483794,9.74640251895646,0.002561252082219928,0.012605964852460594,-3.228972535038564e-05,0.9999172608747604,-5e-324,5e-324,2.667473912177189e-251
1731740786.2150018,-0.24826883240193495,0.05677342161444028,9.752066158590672,0.0029105585421488537,0.012725675679136893,-3.7041980451644744e-05,0.9999147885971953,-5e-324,5e-324,1.6004843473063132e-251
1731740786.2230427,-0.24999660949975472,0.0582454897362423,9.750675939050888,0.0029864460545195462,0.012816005762821412,-3.827762426296576e-05,0.9999134110867172,-5e-324,5e-324,9.60290608383788e-252
1731740786.2310033,-0.2551034185807122,0.05912873060932351,9.760376294631703,0.0030287084610259086,0.013064673029264917,-3.9572644678619644e-05,0.9999100657947705,-5e-324,5e-324,5.761743650302727e-252
1731740786.238976,-0.24595707556248983,0.06492591878551598,9.755662020675505,0.003327271790033772,0.012602510632761656,-4.193554059879646e-05,0.9999150485064203,-5e-324,5e-324,3.457046190181636e-252
1731740786.247097,-0.238793328589447,0.05691206372248146,9.74660853198538,0.002919317874279058,0.012247055556415814,-3.5755882210566555e-05,0.9999207398263443,-5e-324,5e-324,2.0742277141089815e-252
1731740786.2550375,-0.2313826182474182,0.04755476753036387,9.769906858693183,0.002433537986262978,0.011838932909857363,-2.8812597549050993e-05,0.9999269556973946,-5e-324,5e-324,1.244536628465389e-252
1731740786.2629702,-0.2326822760265759,0.057502700606108945,9.770478325420987,0.002942420728529157,0.01190462561436805,-3.503105124247077e-05,0.9999248075840821,-5e-324,5e-324,7.467219770792334e-253
1731740786.2709649,-0.23801105384836738,0.05796479663319662,9.773933667615873,0.002965007108302018,0.01217283263780346,-3.609536836308565e-05,0.999921511707566,-5e-324,5e-324,4.4803318624754e-253
1731740786.2791128,-0.22732195091253604,0.052256550099058593,9.784865419075384,0.0026700584971564695,0.011613440651216382,-3.1010767768452516e-05,0.999928996390341,-5e-324,5e-324,2.68819911748524e-253
1731740786.286993,-0.23359775794986537,0.05314116516685703,9.767961293681559,0.002719944544055235,0.011954560000655812,-3.2518184257086256e-05,0.9999248418453437,-5e-324,5e-324,1.612919470491144e-253
1731740786.2949896,-0.25244671263124735,0.052714253543473595,9.753748675622997,0.0027019912836476786,0.012937524190157788,-3.4960131171417814e-05,0.9999126554298238,-5e-324,5e-324,9.677516822946863e-254
1731740786.3029783,-0.24843319481507653,0.035219854616318526,9.777782247365986,0.0018008546276792876,0.012700787258970664,-2.2874153600050432e-05,0.9999177198161784,-5e-324,5e-324,5.806510093768117e-254
1731740786.3109818,-0.2302233531683428,0.04579218986940049,9.76203544949381,0.002345233359970167,0.011789149395574527,-2.765030404641989e-05,0.999927754926563,-5e-324,5e-324,3.4839060562608706e-254
1731740786.3190224,-0.23222613714514634,0.0619518178278903,9.757854614422847,0.003174177331334919,0.01189662039421728,-3.7764845579561706e-05,0.9999241939243603,-5e-324,5e-324,2.090343633756522e-254
1731740786.3270311,-0.2341460680292753,0.054888182981890424,9.767077701515035,0.002809613868081649,0.011983676858419404,-3.367205550703482e-05,0.999924245343145,-5e-324,5e-324,1.2542061802539132e-254
1731740786.3350003,-0.23625570722381514,0.06333927087311862,9.754415621153163,0.00324639853799022,0.012107210783433237,-3.9307919640190174e-05,0.9999214343129492,-5e-324,5e-324,7.525237081523479e-255
1731740786.3430216,-0.23033888576007033,0.0583542766351993,9.748973154430178,0.002992584894993971,0.011810758212836659,-3.534732039294742e-05,0.9999257718334151,-5e-324,5e-324,4.515142248914087e-255
1731740786.3510125,-0.2339713978622922,0.07044675055143208,9.756960422199121,0.0036097363593304926,0.01198699874273847,-4.327329623377176e-05,0.9999216368255962,-5e-324,5e-324,2.709085349348452e-255
1731740786.3590283,-0.23519322445956284,0.07028020975468736,9.759837421532364,0.0036001388600382348,0.012046020753698419,-4.337077535800411e-05,0.9999209621280902,-5e-324,5e-324,1.625451209609071e-255
1731740786.3670015,-0.23113791709761267,0.058209276975859287,9.758690579140122,0.0029821755540268896,0.011839916978994619,-3.5311343151225616e-05,0.9999254580957545,-5e-324,5e-324,9.752707257654426e-256
1731740786.37505,-0.23564791749489575,0.049530196312468695,9.769734061839541,0.002534663386593015,0.012057275101986875,-3.0563453648235356e-05,0.9999240954515033,-5e-324,5e-324,5.851624354592655e-256
1731740786.3832748,-0.22829827076060932,0.03809782359802809,9.750981613861537,0.0019533875243281655,0.011703907890110247,-2.2863877305819484e-05,0.9999295986690877,-5e-324,5e-324,3.5109746127555927e-256
1731740786.3910708,-0.23370470952667807,0.05254679474475435,9.758644338189969,0.0026920904902903234,0.011971449297361306,-3.2230651287459376e-05,0.9999247151719464,-5e-324,5e-324,2.1065847676533555e-256
1731740786.3989596,-0.23934277444647561,0.04852690863396198,9.776410081917888,0.0024816205799212637,0.012237892843726183,-3.0372174724682944e-05,0.9999220342684593,-5e-324,5e-324,1.2639508605920132e-256
1731740786.406957,-0.2501476385448385,0.04707265763154907,9.755466066240576,0.002412402680864476,0.012817550085416761,-3.092372252086463e-05,0.9999149412659242,-5e-324,5e-324,7.583705163552078e-257
1731740786.41497,-0.25926417883002806,0.045481846532054435,9.74720921982247,0.0023328366654163436,0.013295697933047766,-3.101951792696235e-05,0.9999088865128438,-5e-324,5e-324,4.550223098131247e-257
1731740786.423015,-0.2415103468976262,0.04883692286063891,9.760929884920825,0.0025014307044224915,0.012368245198123509,-3.0940771770812655e-05,0.9999203810293191,-5e-324,5e-324,2.7301338588787478e-257
1731740786.430986,-0.25599716516982574,0.05731431314021147,9.755275914350932,0.0029373050753468298,0.013117290033103007,-3.8532964055951656e-05,0.999909649646553,-5e-324,5e-324,1.6380803153272486e-257
1731740786.4389741,-0.26133737380892663,0.0710198732845175,9.75284121267306,0.0036405717036144688,0.01339396275578781,-4.876637956253911e-05,0.9999036681706932,-5e-324,5e-324,9.82848189196349e-258
1731740786.4471166,-0.2422754235529341,0.06320205824805425,9.756408215152662,0.0032386918473228613,0.01241302462523308,-4.02052701599808e-05,0.9999177096533033,-5e-324,5e-324,5.897089135178095e-258
1731740786.455069,-0.24113332053801045,0.05635658773203567,9.753041752822067,0.002888914410736546,0.01235886430587803,-3.570657727119716e-05,0.9999194524418638,-5e-324,5e-324,3.5382534811068566e-258
1731740786.4629767,-0.2505037057017125,0.061347271731018276,9.752697816585819,0.0031448273926021615,0.012839296879481866,-4.03809007438975e-05,0.9999126266257938,-5e-324,5e-324,2.122952088664114e-258
1731740786.4710171,-0.23409928152649623,0.06098979980618909,9.76446246314485,0.0031227705822392646,0.011984435281662004,-3.7427512364312353e-05,0.9999233071661304,-5e-324,5e-324,1.2737712531984684e-258
1731740786.479308,-0.2376641563182415,0.06053589648527595,9.747579234478708,0.0031048911368229326,0.012187921915170132,-3.784516415977619e-05,0.9999209032609339,-5e-324,5e-324,7.64262751919081e-259
1731740786.4869974,-0.23190221571477304,0.04254646220757182,9.75229334757199,0.0021811809149875315,0.011886963130485985,-2.5929510794260318e-05,0.9999269682756892,-5e-324,5e-324,4.585576511514486e-259
1731740786.4949791,-0.23131809334487943,0.04468149060579309,9.748896891111555,0.002291432057593549,0.011861149084850442,-2.7181000699227283e-05,0.9999270282089117,-5e-324,5e-324,2.751345906908691e-259
1731740786.5029817,-0.24030500639755265,0.05458163362128835,9.75954828603412,0.0027960665751597664,0.01230823867960874,-3.441739643096163e-05,0.9999203408710895,-5e-324,5e-324,1.6508075441452146e-259
1731740786.5109756,-0.23396556609439095,0.05501505561222614,9.76761506414977,0.002815953487700214,0.01197378312731473,-3.372016742281187e-05,0.9999243460315013,-5e-324,5e-324,9.904845264871287e-260
1731740786.5189927,-0.2430905908773377,0.06006351212710131,9.772455131019157,0.0030728118581712037,0.012434361071994597,-3.8211586717906366e-05,0.9999179681513329,-5e-324,5e-324,5.9429071589227724e-260
1731740786.5270119,-0.24497430325687136,0.06955693051844829,9.767697725828292,0.0035602004085507183,0.012536668843383154,-4.463684437336357e-05,0.9999150738512319,-5e-324,5e-324,3.565744295353663e-260
1731740786.5350313,-0.23772482487404467,0.057535889268100215,9.767237484373927,0.002945086150679265,0.012166535494310706,-3.583430290296471e-05,0.9999216472291884,-5e-324,5e-324,2.1394465772121977e-260
1731740786.5429842,-0.2393606419947393,0.052478046012032,9.754032650536466,0.0026898295206090913,0.012266838278908666,-3.299830593744935e-05,0.9999211410940869,-5e-324,5e-324,1.2836679463273186e-260
1731740786.5510073,-0.23052590546051546,0.05686536520487546,9.756883657704691,0.0029138666520839756,0.011810777998474362,-3.441757890388697e-05,0.9999260041221225,-5e-324,5e-324,7.7020076779639115e-261
1731740786.5589874,-0.23791433233880926,0.07553890784362839,9.767452808148205,0.0038664834942193304,0.012175770682783381,-4.708125839250125e-05,0.9999183960189073,-5e-324,5e-324,4.621204606778346e-261
1731740786.5669794,-0.24545985062398867,0.06399811765539579,9.761583869947517,0.0032777379653755557,0.012569429646665862,-4.120277309461076e-05,0.999915628527987,-5e-324,5e-324,2.772722764067008e-261
1731740786.5750432,-0.2619581698958776,0.05563712254636247,9.765005691841557,0.0028485002808924533,0.013409218900399837,-3.819975327078137e-05,0.9999060343029288,-5e-324,5e-324,1.6636336584402045e-261
1731740786.5832922,-0.25701311116604214,0.04750806332273936,9.76705878497798,0.002431815371750134,0.013153530215649932,-3.198981907009833e-05,0.9999105309444016,-5e-324,5e-324,9.981801950641226e-262
1731740786.590983,-0.25452491626017215,0.046221930278799866,9.760389775381318,0.002367603057726947,0.013035159405819997,-3.0864792109179594e-05,0.999912235209866,-5e-324,5e-324,5.989081170384736e-262
1731740786.5989733,-0.24896185649438457,0.036591704309858045,9.760937352777619,0.001874226671098075,0.012749746854403839,-2.3897900040926813e-05,0.9999169618815476,-5e-324,5e-324,3.5934487022308414e-262
1731740786.6069582,-0.234131852666162,0.0427845770292742,9.744745907760322,0.0021950833144604508,0.012010491114645435,-2.6365993919790064e-05,0.9999254617306542,-5e-324,5e-324,2.1560692213385048e-262
1731740786.6152675,-0.23624717800594716,0.06230203161795514,9.738143502908146,0.003198572226972339,0.012127004333447993,-3.8792150314063006e-05,0.9999213486053663,-5e-324,5e-324,1.293641532803103e-262
1731740786.6230733,-0.23320681022153703,0.04528208444928871,9.751899152281997,0.0023215146372117562,0.011954270237012852,-2.775407130062221e-05,0.9999258498621791,-5e-324,5e-324,7.761849196818618e-263
1731740786.6309774,-0.24670548017589095,0.038421998472307595,9.763265004064511,0.001967507154317396,0.012631227695837336,-2.485406176295287e-05,0.9999182868538655,-5e-324,5e-324,4.6571095180911705e-263
1731740786.6390536,-0.24187599318365954,0.028799283067759557,9.76290191015355,0.001474812115764064,0.01238458753842091,-1.8266360503015736e-05,0.9999222202686899,-5e-324,5e-324,2.7942657108547022e-263
1731740786.6469913,-0.23011975484574262,0.028771737809405735,9.76507825546713,0.0014730843442662994,0.011780274330208283,-1.7354560750604056e-05,0.9999295249456528,-5e-324,5e-324,1.676559426512821e-263
1731740786.6550157,-0.22881209582736742,0.031867672812596566,9.76183507950098,0.0016321352480050157,0.011717235835819576,-1.912545204220531e-05,0.9999300186278623,-5e-324,5e-324,1.0059356559076926e-263
1731740786.6629698,-0.2285063407483736,0.031091611988339186,9.758692073091213,0.0015929019016987325,0.01170535577521936,-1.8646784627525523e-05,0.999930221046451,-5e-324,5e-324,6.035613935446155e-264
1731740786.6709833,-0.23311129102128975,0.03397785781800351,9.76398887422582,0.0017398210511795178,0.011934657126585764,-2.0765678085951794e-05,0.9999272656302394,-5e-324,5e-324,3.621368361267693e-264
1731740786.6793187,-0.23898672334324259,0.02709047933923961,9.755195946605806,0.0013884030801567728,0.012246386790477931,-1.7004212676200437e-05,0.9999240461446668,-5e-324,5e-324,2.172821016760616e-264
1731740786.6870093,-0.23939952057821118,0.033253119390653146,9.750638450531842,0.0017050355074470177,0.012273231466961765,-2.092790213685992e-05,0.999923227155615,-5e-324,5e-324,1.3036926100563695e-264
1731740786.6950321,-0.23533763593091112,0.050358232718376264,9.76394510401051,0.002578564724328205,0.012048535371774683,-3.1070286880451434e-05,0.9999240885357222,-5e-324,5e-324,7.822155660338217e-265
1731740786.7030468,-0.23697064796479664,0.06133956121305701,9.75732446597076,0.0031429697298493145,0.01214023395236685,-3.815938851158534e-05,0.9999213644105821,-5e-324,5e-324,4.69329339620293e-265
1731740786.7109804,-0.2537521861421592,0.054520829012990456,9.750718461320737,0.0027954551389197096,0.013008416538747444,-3.6367664175886184e-05,0.9999114786855453,-5e-324,5e-324,2.815976037721758e-265
1731740786.7193174,-0.24466749576732677,0.03630379989802865,9.746036598032676,0.0018623282187731223,0.012549079459561923,-2.3372385744655662e-05,0.9999195226577261,-5e-324,5e-324,1.6895856226330546e-265
1731740786.7270315,-0.2430474041986773,0.051709800690770316,9.7487341438782,0.002651886795411216,0.012462464416002416,-3.3051727850051815e-05,0.9999188233975234,-5e-324,5e-324,1.0137513735798327e-265
1731740786.7350368,-0.24590607191373764,0.05377079618594656,9.752268032713637,0.002756576246918543,0.012604390835394861,-3.474785675218454e-05,0.9999167612414795,-5e-324,5e-324,6.082508241478996e-266
1731740786.7429788,-0.25743749934941446,0.04878246916664607,9.763486332323495,0.0024979604628819554,0.013180045997538267,-3.2926196542780846e-05,0.99991001870013,-5e-324,5e-324,3.6495049448873975e-266
1731740786.7510228,-0.24424506186550804,0.040761649468737636,9.762316446610894,0.0020875202981187955,0.012506513894999334,-2.610970054429415e-05,0.9999196111125547,-5e-324,5e-324,2.1897029669324386e-266
1731740786.7589674,-0.24494872535172668,0.04480770379257071,9.74150322123802,0.002299627993754671,0.012569283686307746,-2.8907036635715677e-05,0.9999183586588891,-5e-324,5e-324,1.313821780159463e-266
1731740786.7669747,-0.2472862847715829,0.04220751290054243,9.752717882449842,0.0021636886734582293,0.012674610363159663,-2.7426178135236404e-05,0.9999173325586826,-5e-324,5e-324,7.882930680956777e-267
1731740786.7750726,-0.25180128258169976,0.0564491293223567,9.758488998512874,0.002892022393309759,0.012898163724139758,-3.730503757897306e-05,0.9999126322771186,-5e-324,5e-324,4.729758408574066e-267
1731740786.7831361,-0.25163723927558235,0.049431788384429645,9.764585289976864,0.0025309343011846227,0.012881784658053022,-3.2605760526219804e-05,0.9999138227529666,-5e-324,5e-324,2.8378550451444397e-267
1731740786.791035,-0.2512993931258963,0.03732051834315779,9.756272056554478,0.0019124669718270535,0.012875542983814606,-2.4626137087816455e-05,0.9999152775393059,-5e-324,5e-324,1.7027130270866638e-267
1731740786.7990263,-0.24415350062163152,0.04394012594730092,9.743862091354561,0.002254558078517116,0.01252547167596485,-2.8241690618159604e-05,0.9999190110851839,-5e-324,5e-324,1.0216278162519983e-267
1731740786.807019,-0.2424995869452445,0.06155883997267743,9.740486255056878,0.003159645141599095,0.0124448199660082,-3.932445656171582e-05,0.9999175673785214,-5e-324,5e-324,6.12976689751199e-268
1731740786.8153045,-0.2304939111026936,0.05968021975509083,9.74707987925483,0.003061175489971852,0.011820986333131486,-3.618881174832227e-05,0.9999254433092006,-5e-324,5e-324,3.677860138507194e-268
1731740786.823056,-0.2242481862612255,0.0549617451343045,9.742656347963054,0.002820447699053683,0.011506060765254204,-3.245452011195713e-05,0.9999298248312966,-5e-324,5e-324,2.2067160831043161e-268
1731740786.83102,-0.22026133119032903,0.06434108882862957,9.749339615662597,0.003299493756725365,0.011293749201764847,-3.726623458000912e-05,0.9999307791948124,-5e-324,5e-324,1.3240296498625896e-268
1731740786.8390267,-0.2420506549153693,0.06805333371709962,9.758137979602635,0.003486661690203398,0.012399264868652353,-4.3235628358038455e-05,0.9999170463351725,-5e-324,5e-324,7.944177899175538e-269
1731740786.847106,-0.24363208118164345,0.05926735301346289,9.75240367032994,0.0030383138352848,0.012487663265772556,-3.7944573938669236e-05,0.9999174093270946,-5e-324,5e-324,4.766506739505323e-269
1731740786.8550053,-0.2642133905546892,0.05423518475729649,9.764046555225308,0.0027769939965209913,0.01352593837149919,-3.756503097738645e-05,0.9999046633976572,-5e-324,5e-324,2.8599040437031936e-269
1731740786.8629873,-0.2547749410710948,0.0631868921043779,9.770314025664481,0.0032332798210714703,0.013034552822251272,-4.214815761306647e-05,0.9999098182125503,-5e-324,5e-324,1.715942426221916e-269
1731740786.8709726,-0.2673078039981256,0.05419270655168924,9.756357415642828,0.0027769992227134987,0.013695041657120694,-3.80348336985021e-05,0.9999023615647071,-5e-324,5e-324,1.0295654557331496e-269
1731740786.8790221,-0.26429303444965657,0.052866338042341664,9.75827851676851,0.0027085062904470786,0.01353801915827918,-3.6671305273142683e-05,0.9999046878008724,-5e-324,5e-324,6.1773927343988976e-270
1731740786.8869946,-0.25985055089440334,0.056140659758998755,9.751769732131418,0.002878184381321242,0.013319429308798862,-3.8339333235435624e-05,0.9999071493832068,-5e-324,5e-324,3.706435640639338e-270
1731740786.8949692,-0.2581427414253139,0.052359168804618,9.747864461349163,0.0026854000407599203,0.013237270264210689,-3.555060914530876e-05,0.999908776858533,-5e-324,5e-324,2.223861384383603e-270
1731740786.9031866,-0.252808492755579,0.04649897174175517,9.754858685354419,0.0023831466433982297,0.012954634528288371,-3.087547240068643e-05,0.9999132447882765,-5e-324,5e-324,1.3343168306301618e-270
1731740786.9110403,-0.25798764936428487,0.054475021472787474,9.770307967560308,0.002787499199052861,0.0131989297061429,-3.6795354205656656e-05,0.99990900423435,-5e-324,5e-324,8.00590098378097e-271
1731740786.9191294,-0.2658835466498209,0.05830297064734436,9.766409427752981,0.0029845450069054444,0.013608059732752018,-4.0617808644063854e-05,0.9999029510665549,-5e-324,5e-324,4.803540590268581e-271
1731740786.927024,-0.24811558941567377,0.06083916031809411,9.771252908849053,0.0031128648150420485,0.012692825423722203,-3.951442432720537e-05,0.9999145967001464,-5e-324,5e-324,2.8821243541611486e-271
1731740786.9350047,-0.25229886536815427,0.057811890966247094,9.770807115182478,0.0029581038052032957,0.012907341704277797,-3.81846046174046e-05,0.9999123205031242,-5e-324,5e-324,1.7292746124966891e-271
1731740786.9430482,-0.23373985633026753,0.06581175616177949,9.767187756658316,0.003368714710254822,0.011962657708949899,-4.030189353341345e-05,0.9999227694964731,-5e-324,5e-324,1.0375647674980135e-271
1731740786.951019,-0.23984270286066048,0.060077187974411445,9.767170923037959,0.0030751805621682064,0.012274937328823992,-3.775067134635886e-05,0.9999199306709364,-5e-324,5e-324,6.225388604988081e-272
1731740786.9589896,-0.23081514198006817,0.059030648722146875,9.767160822865744,0.003021633278044886,0.011813133792950485,-3.569761207575047e-05,0.9999256564005162,-5e-324,5e-324,3.735233162992849e-272
1731740786.9670556,-0.24383395823491588,0.05864214533680375,9.76308461994015,0.003002975046887855,0.012484345943888938,-3.74932703843195e-05,0.9999175575223568,-5e-324,5e-324,2.241139897795709e-272
1731740786.9750957,-0.24326554217727764,0.05290237948723849,9.768539763663307,0.0027075456446865017,0.012448356703234948,-3.370722931885313e-05,0.9999188499452312,-5e-324,5e-324,1.3446839386774254e-272
1731740786.9830315,-0.24196681187863217,0.0614295282782806,9.75936300126439,0.0031469117876250794,0.012393486595374275,-3.900439785679836e-05,0.9999182451155034,-5e-324,5e-324,8.068103632064552e-273
1731740786.9909968,-0.2495672795099918,0.04906814543376523,9.772771136940273,0.002510215523077932,0.012765178881676878,-3.204606222848653e-05,0.9999153704185152,-5e-324,5e-324,4.8408621792387315e-273
1731740786.999014,-0.25508524075287003,0.06463565166455601,9.76190182523057,0.0033102594019515322,0.013061643816339607,-4.324135501100976e-05,0.9999092127656851,-5e-324,5e-324,2.9045173075432387e-273
1731740787.0070171,-0.25504413517437824,0.06344166809834298,9.763041683517248,0.0032487333440111028,0.013058029300168967,-4.2425896358709446e-05,0.9999094618026667,-5e-324,5e-324,1.7427103845259432e-273
1731740787.0150194,-0.25262527016712694,0.04285340417931828,9.747923867532224,0.0021978707650581,0.012954482687845372,-2.8474736964815425e-05,0.9999136712394624,-5e-324,5e-324,1.0456262307155659e-273
1731740787.0229871,-0.2509345309967605,0.039119571804465965,9.765907656700975,0.00200268022745092,0.012844167865334332,-2.572493466546596e-05,0.9999155044112384,-5e-324,5e-324,6.273757384293395e-274
1731740787.03097,-0.2549479109808688,0.04789260001627332,9.773346047878006,0.002449925228876736,0.013039498286793816,-3.1948607931874376e-05,0.9999119802913095,-5e-324,5e-324,3.7642544305760366e-274
1731740787.0390043,-0.24275130884438062,0.05171989594726399,9.75458532648071,0.0026508143044843,0.012439826205070233,-3.2978336928771275e-05,0.9999191081382234,-5e-324,5e-324,2.258552658345622e-274
1731740787.047035,-0.24141885171287836,0.05042497101562402,9.768468011073972,0.00258077648504688,0.0123540129001403,-3.188548549860612e-05,0.9999203552990175,-5e-324,5e-324,1.3551315950073731e-274
1731740787.0551538,-0.23798575560780513,0.04366251190624941,9.766023714359227,0.002235240085584105,0.012181508813634057,-2.7230685288845566e-05,0.9999233039604952,-5e-324,5e-324,8.130789570044238e-275
1731740787.0629683,-0.23999604076702682,0.04367517926289027,9.770303220314753,0.002234906461358279,0.012278982418730454,-2.744451473165778e-05,0.9999221124821013,-5e-324,5e-324,4.8784737420265426e-275
1731740787.071021,-0.25652510248755983,0.04152799818273416,9.781011209532602,0.00212268470602645,0.013109895764601538,-2.783062967197258e-05,0.9999118081451664,-5e-324,5e-324,2.9270842452159256e-275
1731740787.0790112,-0.2492042875667546,0.03521186604831237,9.777859196422686,0.0018004310566140335,0.012740088930705312,-2.2939550697070534e-05,0.9999172206016982,-5e-324,5e-324,1.7562505471295552e-275
1731740787.0870073,-0.23068600881934961,0.0362105900879718,9.767109442414158,0.001853556506132446,0.01180675765225518,-2.1886055573267732e-05,0.9999285796110741,-5e-324,5e-324,1.053750328277733e-275
1731740787.0950193,-0.23298257086778162,0.036570404345751824,9.77717958146412,0.0018700441007679163,0.011911970137555631,-2.227752903699428e-05,0.9999273010605395,-5e-324,5e-324,6.322501969666398e-276
1731740787.1029801,-0.24202195340934085,0.04899672136721672,9.773405438087456,0.0025064116937358687,0.012378618829261044,-3.102838980455978e-05,0.9999202401859563,-5e-324,5e-324,3.7935011817998386e-276
1731740787.1110883,-0.23954471745576075,0.04496034361134565,9.77257747305755,0.0023001340535879168,0.012253041714772355,-2.8185829033053695e-05,0.9999222827588305,-5e-324,5e-324,2.276100709079903e-276
1731740787.1191256,-0.23087577090314393,0.05115764293438552,9.761067366402889,0.0026202768086115466,0.011823675733854956,-3.098357552165801e-05,0.9999266642517365,-5e-324,5e-324,1.3656604254479417e-276
1731740787.1270087,-0.246025117082902,0.05248182086805318,9.752964201580015,0.002690305759489592,0.012609601481902774,-3.392650359586028e-05,0.9999168760723965,-5e-324,5e-324,8.19396255268765e-277
1731740787.1350145,-0.24386197698802245,0.04800908397591004,9.750735924512462,0.002461596023804856,0.012501677330622962,-3.077657763403451e-05,0.9999188205358167,-5e-324,5e-324,4.916377531612589e-277
1731740787.1430004,-0.23226902579242284,0.052268626655077276,9.751793159932086,0.002679723080105657,0.011906295570276367,-3.1907951340698206e-05,0.9999255263227806,-5e-324,5e-324,2.9498265189675535e-277
1731740787.1510055,-0.22627093573912557,0.05769739425476511,9.76344082882058,0.002954522526370352,0.011585077744248776,-3.423081980459534e-05,0.9999285252449557,-5e-324,5e-324,1.769895911380532e-277
1731740787.1589713,-0.23703729166808474,0.07268624294934344,9.76085262351305,0.0037229924658686063,0.012139138325155893,-4.5197564080718686e-05,0.9999193860531969,-5e-324,5e-324,1.0619375468283191e-277
1731740787.167008,-0.23104725659264772,0.058216375896559196,9.75068057435197,0.00298498908498806,0.011844992767857882,-3.535981233410037e-05,0.9999253895847308,-5e-324,5e-324,6.371625280969914e-278
1731740787.1750386,-0.22888975654347923,0.045703733008638635,9.745535025519384,0.00234466757350751,0.011740724370801961,-2.753006891145281e-05,0.9999283260150769,-5e-324,5e-324,3.8229751685819485e-278
1731740787.1830084,-0.23382018083038444,0.03795672710987068,9.765432032157333,0.00194326703704945,0.011969144008692967,-2.3260953189791777e-05,0.9999264786792327,-5e-324,5e-324,2.293785101149169e-278
1731740787.190989,-0.2355813345724494,0.03378736390264116,9.77210299248776,0.0017286279509770705,0.01205105248432852,-2.0833330141480362e-05,0.9999258890264815,-5e-324,5e-324,1.3762710606895014e-278
1731740787.1989563,-0.24645425362432904,0.04110197278494407,9.761500938559061,0.0021051217073103567,0.012620632718187783,-2.6570142917841893e-05,0.999918140342707,-5e-324,5e-324,8.257626364137008e-279
1731740787.2069566,-0.2510626437273318,0.04285711628815394,9.762801151514342,0.002194714565686785,0.012854783261831305,-2.821497932780713e-05,0.9999149648741044,-5e-324,5e-324,4.9545758184822046e-279
1731740787.2150242,-0.2533488374571022,0.05085338720453299,9.758792875967199,0.002605261560174663,0.012977042338267268,-3.381155145772472e-05,0.9999124000836938,-5e-324,5e-324,2.9727454910893226e-279
1731740787.2230158,-0.24059476390004256,0.061397233738735416,9.749205305658444,0.0031485367228733414,0.012336076118124772,-3.884373696158783e-05,0.9999189499322815,-5e-324,5e-324,1.7836472946535936e-279
1731740787.2310767,-0.24323738690447866,0.07011774331941312,9.748959427291549,0.003595804870900342,0.012471729480042243,-4.484968381656257e-05,0.9999157585214932,-5e-324,5e-324,1.070188376792156e-279
1731740787.2390301,-0.23740093556065595,0.06290020043500726,9.758867547244071,0.0032224222410243528,0.01216033059813604,-3.91888208956945e-05,0.9999208672784466,-5e-324,5e-324,6.421130260752936e-280
1731740787.247103,-0.2348567454184248,0.057372573874285605,9.75236257058277,0.0029412106692019704,0.012038139954168437,-3.5409424666146465e-05,0.99992321265806,-5e-324,5e-324,3.852678156451762e-280
1731740787.2551012,-0.24410413880378926,0.0645904852425401,9.74295292076763,0.00331440339179069,0.01252392380080884,-4.151281933583883e-05,0.9999160786483403,-5e-324,5e-324,2.311606893871057e-280
1731740787.2630367,-0.24630069251078918,0.06532992957325844,9.752630021503547,0.0033490153920602626,0.012624025713252976,-4.228166285886176e-05,0.9999147045038171,-5e-324,5e-324,1.386964136322634e-280
1731740787.2710786,-0.23445051560412974,0.06361881467754882,9.757957441613065,0.0032595463129201975,0.012010380118998775,-3.915142214724175e-05,0.9999225592986675,-5e-324,5e-324,8.321784817935804e-281
1731740787.27908,-0.2340441741085716,0.04894519627723241,9.764505776002995,0.002506070570608826,0.011981666173989953,-3.002915087802423e-05,0.9999250763853461,-5e-324,5e-324,4.9930708907614824e-281
1731740787.2871273,-0.2589394866428773,0.05426681503196444,9.76580115481078,0.002778124836102794,0.013253713284683243,-3.6823846584654636e-05,0.9999083056713585,-5e-324,5e-324,2.995842534456889e-281
1731740787.295076,-0.25568074154627324,0.060332828276991164,9.751016071304436,0.0030933480120969737,0.01310677442738799,-4.0547491592307134e-05,0.9999093168973308,-5e-324,5e-324,1.7975055206741333e-281
1731740787.302994,-0.23959970469338895,0.05870519257166344,9.75962269331977,0.003007278064148295,0.01227199889146313,-3.690825933432848e-05,0.9999201732936651,-5e-324,5e-324,1.07850331240448e-281
1731740787.311029,-0.24934411602892398,0.05964397247659181,9.762631885034832,0.003054405967440968,0.01276691248477358,-3.899869404847668e-05,0.9999138338021403,-5e-324,5e-324,6.4710198744268794e-282
1731740787.319309,-0.2535148216681356,0.04919391278283009,9.750551030434961,0.0025223765291699876,0.012996524618367162,-3.278500194868989e-05,0.999912359604397,-5e-324,5e-324,3.882611924656127e-282
1731740787.3270717,-0.25027116106728764,0.047951700452901175,9.75862540830004,0.0024566558369657075,0.012819719680475145,-3.149632248877604e-05,0.999914805689662,-5e-324,5e-324,2.3295671547936764e-282
1731740787.3350954,-0.24545192271459132,0.04289681006666258,9.75173844688432,0.0021992472248449713,0.012581893380668974,-2.7672951496145737e-05,0.9999184259252397,-5e-324,5e-324,1.3977402928762059e-282
1731740787.343085,-0.23896907721273916,0.04393401865718505,9.751676412857154,0.0022524463516999725,0.012249804234705867,-2.75941673094212e-05,0.9999224310016283,-5e-324,5e-324,8.386441757257235e-283
1731740787.351064,-0.23891009256787787,0.045035184143529784,9.761455419247495,0.002306588375093202,0.012234511142552515,-2.8222168541408218e-05,0.9999224947918113,-5e-324,5e-324,5.031865054354341e-283
1731740787.359101,-0.24342368493525798,0.04330168177518037,9.768759344077795,0.002216139601386914,0.012456240867845072,-2.760697828421256e-05,0.9999199618102261,-5e-324,5e-324,3.0191190326126043e-283
1731740787.3670902,-0.22649938674240475,0.04992302566667072,9.778887782960348,0.00255238931352774,0.011578522666808951,-2.9554974980184924e-05,0.9999297086536383,-5e-324,5e-324,1.8114714195675626e-283
1731740787.3751059,-0.23621668160598974,0.03761526071250243,9.764853552344569,0.001925896320554617,0.012092484258848304,-2.3290617077816253e-05,0.9999250282923011,-5e-324,5e-324,1.0868828517405375e-283
1731740787.3833892,-0.2427653190221876,0.04124392937672021,9.760503156797366,0.0021126133100614003,0.01243308424468145,-2.626838827677095e-05,0.9999204741333876,-5e-324,5e-324,6.521297110443225e-284
1731740787.3911004,-0.24262435864964066,0.046773012899469626,9.780877255406546,0.0023908321652884143,0.012399957744910794,-2.9648582036306024e-05,0.9999202588658975,-5e-324,5e-324,3.9127782662659346e-284
1731740787.3990858,-0.2406244210979875,0.04961162268108803,9.780412445773225,0.002536050607872958,0.012298354412870919,-3.1191708467766725e-05,0.9999211558683649,-5e-324,5e-324,2.3476669597595607e-284
1731740787.40708,-0.24325518122324566,0.04078030124537157,9.782527761653387,0.0020841626961404566,0.01243012872211861,-2.5908468485157823e-05,0.9999205705927641,-5e-324,5e-324,1.4086001758557364e-284
1731740787.4153965,-0.24148175497418178,0.05080439900894169,9.77757202686508,0.0025977746685219454,0.012345726924635236,-3.2073969320565684e-05,0.9999204136153709,-5e-324,5e-324,8.451601055134418e-285
1731740787.4230785,-0.24568494287708717,0.043171908204193137,9.764303518853422,0.002210502778672947,0.012577632259812597,-2.780515843913062e-05,0.9999184547107207,-5e-324,5e-324,5.07096063308065e-285
1731740787.4311476,-0.2326445448278148,0.04457791787173463,9.757778935042522,0.0022840380196519003,0.011918282842294172,-2.722381574545746e-05,0.99992636577064,-5e-324,5e-324,3.0425763798483902e-285
1731740787.4390755,-0.24181913778536074,0.060983834463275155,9.761765050234496,0.0031233121724730225,0.012382884456336174,-3.8678767988012104e-05,0.9999184504736209,-5e-324,5e-324,1.825545827909034e-285
1731740787.4470968,-0.23415578442902893,0.06532072059984009,9.758171215199292,0.0033466688698812405,0.011995008290126995,-4.0146433954437324e-05,0.999922455979392,-5e-324,5e-324,1.0953274967454204e-285
1731740787.4551177,-0.226924150589058,0.0636132892934978,9.764394619988716,0.003257130356869586,0.011617319811696614,-3.784187949193771e-05,0.9999272111260016,-5e-324,5e-324,6.571964980472522e-286
1731740787.4630442,-0.24078110290226293,0.051575502872973675,9.756397074727603,0.0026429264884562766,0.01233662003070692,-3.2607375154015134e-05,0.9999204076738076,-5e-324,5e-324,3.9431789882835133e-286
1731740787.4710367,-0.23640600549135776,0.050098915005034196,9.760935934045545,0.0025660757170437674,0.012106940066294718,-3.106970437849819e-05,0.9999234152135448,-5e-324,5e-324,2.365907392970108e-286
1731740787.479008,-0.23952703102918965,0.049452382450286145,9.765335190798421,0.0025318148220470006,0.012261185606094923,-3.104548470324764e-05,0.9999216230672371,-5e-324,5e-324,1.4195444357820646e-286
1731740787.4870071,-0.23732950352962318,0.04954330324946856,9.759116198707568,0.0025380893142379905,0.012156483456028553,-3.085662024954274e-05,0.999922885556924,-5e-324,5e-324,8.517266614692387e-287
1731740787.4950402,-0.23218026437363326,0.04552771290671239,9.764961610093682,0.0023309869994507745,0.011885756249578437,-2.7707575797416783e-05,0.9999266445746279,-5e-324,5e-324,5.110359968815432e-287
1731740787.503044,-0.24058288884878934,0.055807627499886804,9.75314596630035,0.002860745139638185,0.01233053907683369,-3.527735604416399e-05,0.9999198831400588,-5e-324,5e-324,3.0662159812892593e-287
1731740787.5110388,-0.25376474917841424,0.06891876107024457,9.74390179853021,0.003536129361734061,0.013018003939110585,-4.603753498545957e-05,0.9999090084818337,-5e-324,5e-324,1.8397295887735556e-287
1731740787.5193183,-0.2535335797316579,0.056195306935115485,9.762057894303672,0.0028779630343786786,0.012982110638822767,-3.7365338128581814e-05,0.9999115864595057,-5e-324,5e-324,1.1038377532641334e-287
1731740787.526977,-0.2505218360714166,0.06508122590911616,9.761698803965016,0.003333158135184816,0.012828352791054041,-4.276268487169117e-05,0.9999121569382317,-5e-324,5e-324,6.6230265195848e-288
1731740787.5350173,-0.25565797468972495,0.06730031513531345,9.73634423233018,0.0034557673047317947,0.013125268915110268,-4.536205360738421e-05,0.9999078872228809,-5e-324,5e-324,3.973815911750879e-288
1731740787.5430195,-0.2484445907220381,0.06743466784095369,9.75177727059928,0.003457204236641305,0.012734946525080504,-4.4031144885874524e-05,0.9999129296779434,-5e-324,5e-324,2.3842895470505277e-288
1731740787.5510166,-0.23358207303673847,0.06152977531394721,9.77205042119746,0.0031479725176206726,0.011948682719675977,-3.761699665517284e-05,0.9999236560034243,-5e-324,5e-324,1.4305737282303166e-288
1731740787.5590224,-0.22538282292360556,0.04793119282508708,9.772243303255586,0.002452223391351483,0.01152931249067915,-2.8274414056953713e-05,0.9999305279640625,-5e-324,5e-324,8.583442369381898e-289
1731740787.5670156,-0.2247728358440071,0.053897833126692864,9.765415847676008,0.0027594066469437744,0.011506111023689208,-3.175226206944338e-05,0.9999299945875517,-5e-324,5e-324,5.150065421629139e-289
1731740787.5750635,-0.21626655795171676,0.05915375846976572,9.766107777648573,0.0030282880539851784,0.0110700111527537,-3.3525390532646825e-05,0.9999341394314869,-5e-324,5e-324,3.090039252977483e-289
1731740787.583066,-0.21930307686087377,0.04315370039435943,9.751918305505159,0.0022124132973464932,0.011241830135076838,-2.487320713532659e-05,0.9999343607777159,-5e-324,5e-324,1.8540235517864898e-289
1731740787.590971,-0.22423745036457116,0.039539169699506285,9.75657273134997,0.002026132185590741,0.011489216192278042,-2.3280255080941677e-05,0.999931943763016,-5e-324,5e-324,1.1124141310718938e-289
1731740787.5989666,-0.22791633496483643,0.027793644641969397,9.751464521378342,0.0014249955412131198,0.011683809390812745,-1.665052972751447e-05,0.9999307264548812,-5e-324,5e-324,6.674484786431362e-290
1731740787.6070724,-0.24041873286366747,0.03487211940236914,9.755103360043801,0.0017872286232302969,0.012319811759697206,-2.202002652439126e-05,0.9999225107812967,-5e-324,5e-324,4.0046908718588175e-290
1731740787.6152282,-0.2404981464564817,0.05420267471759336,9.749864638096593,0.0027794109507141116,0.012330358417191347,-3.4273871186373484e-05,0.9999201147898628,-5e-324,5e-324,2.4028145231152904e-290
