Time,Accel_x,Accel_y,Accel_z,Orientation_x,Orientation_y,Orientation_z,Orientation_w,Gyro_x,Gyro_y,Gyro_z
1729576386.2997386,-1.0462656059976259,-0.013975853042890172,9.813505796582136,-0.0007110275363596166,0.053081795891154575,3.7795914054606825e-05,0.9985899138066042,0.0005130491171954667,-0.024688582886268684,0.013621398360979715
1729576386.3077292,-1.0383649483153723,-0.03136984776323411,9.806214494794986,-0.0015971678804577879,0.052722882106605584,8.432468218395349e-05,0.998607900853224,0.0041390400234755645,-0.025881091329774033,0.008172839016587828
1729576386.3157506,-1.039610057856411,-0.028638135464581087,9.775742915626992,-0.0014626128093227376,0.052948786201163806,7.755244454710119e-05,0.9985961550042198,0.00801739481309175,-0.02915073676464943,0.00320094316410457
1729576386.3237553,-1.044906106735331,-0.014549259452576777,9.795527774522679,-0.000741557141678464,0.05310987331826925,3.943967895734932e-05,0.9985883986376143,0.011621477871247555,-0.03111252402557467,-0.00020788440884741619
1729576386.3317466,-1.033957946267761,-0.01136317749771794,9.815299555338607,-0.0005780210534238064,0.05245306297660436,3.0360774738887153e-05,0.9986232228194264,0.015912378013451196,-0.03228959638212981,-0.003104561075542671
1729576386.339752,-1.0113478988641722,-0.02142253662558389,9.810882052539103,-0.0010902746795447297,0.05133800606205178,5.6046468059708185e-05,0.998680738421188,0.018912608160235413,-0.03384721991898696,-0.005268257137021856
1729576386.3477516,-0.9805436184688939,0.004863570309805916,9.80440082820315,0.0002477095633065634,0.049818915549722446,-1.2355965006751179e-05,0.9987582360815614,0.020287056186843913,-0.03563317416402531,-0.0052894045895232715
1729576386.3557413,-0.9448227982786019,0.007706545506196049,9.808652379246107,0.0003923732185520358,0.047996120140883676,-1.885412255320926e-05,0.998847444877946,0.01855758463403682,-0.03713043677251035,-0.0031736427537139627
1729576386.363753,-0.9336853733030986,-0.013332585147454246,9.79779578057501,-0.0006795880864437026,0.047486353958904944,3.230761455217406e-05,0.9988716550708305,0.015391451395042409,-0.037603104276139346,-0.0019041856522283775
1729576386.3717277,-0.9109617671947499,-0.019491719057222547,9.77643777107938,-0.0009957520553938789,0.046438696408298896,4.6291392271802146e-05,0.9989206444011701,0.009234870837025445,-0.03873808490124081,-0.0011425113913370265
1729576386.3797376,-0.881047032240678,-0.02845444305542728,9.779903536671066,-0.00145320929955769,0.04490713976562652,6.532544487171305e-05,0.9989901064141669,0.005540922502215267,-0.03899338321483965,-0.0006855068348022159
1729576386.3877273,-0.8599857291100318,-0.04316946392895949,9.812868197442091,-0.002197434368794263,0.04369317291011068,9.610489296412029e-05,0.9990425760132006,0.00332455350132916,-0.036166731772764735,-0.0004113041008813295
1729576386.3957417,-0.855010392544144,-0.04553413197065694,9.826661489754317,-0.0023145794542794667,0.04338113452045115,0.00010050396753139641,0.9990559092406295,0.001994732100797496,-0.0319166005387476,-0.0002467824605287977
1729576386.4037101,-0.8474762074503145,-0.04791061345973792,9.826078918999073,-0.002435563854558031,0.04300346939085992,0.00010483498791686997,0.9990719486897253,0.0011968392604784976,-0.028940831736875283,0.002406070892454911
1729576386.4117136,-0.8534901836987042,-0.05053360318326463,9.816631410237333,-0.002571334836963376,0.04334829805466596,0.00011156823060705494,0.9990567055204874,0.0007181035562870985,-0.02545261020990377,0.005274853088631231
1729576386.4197133,-0.8530284266254725,-0.0506708760212869,9.809526383984196,-0.002580186159712611,0.043356176214362836,0.00011197266984680829,0.9990563407964396,0.002985002502544449,-0.02293398723225883,0.0069961224063370235
1729576386.4277112,-0.8623281790221586,-0.05961178586667839,9.81651611603505,-0.003033228322941508,0.043794837275505476,0.00013296793090687627,0.9990359323234987,0.00477083193176089,-0.020997123384209834,0.008880264119884561
1729576386.4357228,-0.8796396185949359,-0.05276590330711641,9.833159803898372,-0.002680254065922287,0.04459389249577947,0.00011964241326891582,0.9990015949316147,0.0045652594049046605,-0.01813224482953231,0.009159369025089022
1729576386.4437175,-0.8720699698874304,-0.05560155858583234,9.828780806655429,-0.002825593971153744,0.04423189565031288,0.00012510431932004945,0.999017287025004,0.0027391556429427963,-0.015987627635263763,0.009326831968211697
1729576386.4517362,-0.88596353344613,-0.0505991871046244,9.826153408309661,-0.0025719880638867287,0.044944450994540454,0.00011571390572718934,0.9989861699805912,0.0016434933857656776,-0.01299809707285451,0.009427309734085303
1729576386.4597447,-0.887835327098928,-0.04735834404988402,9.828647112124468,-0.002406636837099578,0.04502756427666749,0.00010847533163202269,0.998982840086629,0.0009860960314594066,-0.010352998612484895,0.009487596393609465
1729576386.4677093,-0.8911131847847474,-0.051878182699461664,9.808834939637963,-0.002641612535322636,0.04528337672854119,0.00011974439067410052,0.998970681920423,0.000591657618875644,-0.00961731965918719,0.009949458450785997
1729576386.4757125,-0.9043326471989734,-0.047407480908739495,9.8067638629527,-0.002414402701033172,0.04596070129124636,0.00011108535574971754,0.9989403246723288,0.0003549945713253864,-0.010452982471594662,0.008523815439243788
1729576386.4837098,-0.9038846188369621,-0.020064782734696824,9.80288759511537,-0.0010222854884100062,0.0459566732918307,4.7030555744694156e-05,0.9989429097303084,0.00021299674279523184,-0.011380070220501175,0.005114289263546273
1729576386.4917102,-0.8875746506967086,0.004720541980275656,9.809180960389536,0.00024036382210954613,0.0451038552741997,-1.0852379791504204e-05,0.9989822742906217,0.00012779804567713909,-0.013213393054231179,0.0030685735581277634
1729576386.4997106,-0.8861683756231032,0.006663047844415394,9.827561609680988,0.0003386415612970059,0.04494910544731477,-1.5237036529199623e-05,0.9989892206671761,7.667882740628345e-05,-0.014313386754469179,0.0018411441348766579
1729576386.5077257,-0.887239971907065,0.010941013521102362,9.844814923572264,0.0005550900844532977,0.04492471679215266,-2.4962471424883515e-05,0.9989902207094011,0.0017487675422918963,-0.014973382974611982,0.0011046864809259947
1729576386.5157342,-0.8660956945700202,0.027633582722036417,9.821169248332813,0.0014054185783072748,0.043965143616237864,-6.184929510770648e-05,0.9990320751207581,0.004029090955609359,-0.014943690645235631,-0.0010399483572925295
1729576386.523718,-0.8500572458435747,0.024241594945721846,9.802432860034843,0.001235303457314831,0.04323765277366967,-5.346165938294456e-05,0.9990640502739766,0.0053972850035998365,-0.014074495124685758,-0.002326729260223644
1729576386.5317416,-0.8449831597620041,0.026276545102198734,9.816090724321688,0.0013371558730211142,0.042921494893185724,-5.7445719690956484e-05,0.9990775515395662,0.00536682130947006,-0.01270159768943177,-0.0013960375561341864
1729576386.5397344,-0.8120111873611088,0.026060994199991114,9.831228627708246,0.001324245367963143,0.041192177956331975,-5.4594936733636154e-05,0.9991503629928842,0.003220092785682036,-0.012303549289741408,-0.0008376225336805118
1729576386.5477169,-0.782411777113931,0.042451655113744664,9.849888176380809,0.0021531556391116945,0.03962273238390491,-8.538115691981566e-05,0.9992123876880656,0.0019320556714092214,-0.007382129573844844,-0.0005025735202083071
1729576386.5557141,-0.8314503572839836,0.02618925356629367,9.828762183172236,0.0013310392235048906,0.04218362971620472,-5.6198139052340876e-05,0.9991089863274781,0.0011592334028455327,-0.0014494473140726854,-0.0003015441121249842
1729576386.5637443,-0.8414804719387495,0.007094426163213702,9.807467461270528,0.0003613403996922227,0.04278210369937308,-1.547307019381202e-05,0.9990843612011729,-0.0010072202041408068,0.0008330918574045151,0.0015218337785731359
1729576386.5717194,-0.9159727082120779,0.23936725872527195,9.939539828568957,0.012025337708368654,0.045914721828337474,-0.0005527630955448304,0.9988728267529287,-0.004435542675642769,0.000499855114442709,0.0026158605129920076
1729576386.5797124,-1.0324940997807623,0.2923002783308663,10.324762221115982,0.014132789845285794,0.04978976974013311,-0.000704612903538288,0.9986594747966243,-0.035013770276500066,0.0002999130686656254,-0.0018360041839010483
1729576386.5877075,-1.134968077300098,0.21512391455711355,10.317672591458651,0.010407063636416138,0.05473875778594432,-0.0005705562025700415,0.9984463109692674,-0.21937983080720677,-0.03855784775184551,-0.030899906812682846
1729576386.595736,-0.7671721061456838,0.5547634039100494,9.694757104679878,0.02855336588475367,0.0393935394263654,-0.0011261525329409091,0.9988150910596952,-0.5368848369961781,-0.11210393149667192,-0.0857989737986107
1729576386.603728,-0.6334040437167071,0.6644549722776703,9.450055282095036,0.035070838351203726,0.033354272913474654,-0.0011711355976921174,0.9988273911027715,-0.8112487828175812,-0.14133242959239667,-0.12171824442040163
1729576386.6117194,-0.8291946576753368,1.018771213347071,10.014551501776554,0.0506239603943835,0.04102981040010977,-0.0020815200240795477,0.9978724550597177,-1.0844181159832411,-0.04776442240824125,-0.10325494101604522
1729576386.6197095,-1.1781883265876238,1.2031093783988676,10.340799384952652,0.05778462910321673,0.05622229512200221,-0.003259412216887731,0.9967393673386331,-1.3006795934424669,0.06201332964646799,-0.0670612453471715
1729576386.6277392,-1.0533539761771835,1.2038184212287737,10.425935998159089,0.057371008395186864,0.04991174272111454,-0.00287181422351422,0.9971003650672917,-1.5104662114728644,0.17683433794742714,-0.02746604536444195
1729576386.635743,-0.8436598124641227,1.4625782060575767,10.431049294207952,0.06953875214466948,0.03985526088507423,-0.002780441168159688,0.9967789069181066,-1.5988774568824442,0.24870677335823688,0.010764536714904852
1729576386.643742,-0.8097806579862862,1.3468104490251709,10.571783867296254,0.063267338328715,0.03783407673722371,-0.002400198697871715,0.9972763235856211,-1.6076524377361405,0.2918302346047227,0.06605533063362735
1729576386.6517212,-0.910839189469506,0.8236485802061182,10.559977704410956,0.03887274992545797,0.042845227469084105,-0.0016683082287370001,0.9983238014512171,-1.5162857822964773,0.32919794301208904,0.16308331620416558
1729576386.6597283,-0.8522430656836568,0.948129782889296,10.26151966463876,0.046010459830140064,0.04120069213520729,-0.0018992920699383473,0.9980891409305243,-1.4197481630094002,0.35459839848674307,0.22044872742356447
1729576386.6677077,-0.8778981135801158,0.5514001976144369,9.194674865189507,0.02990926412757321,0.047471198881171496,-0.001422070224979123,0.9984237071065603,-1.3447979889786728,0.34983123888282,0.2186843189309311
1729576386.675701,-0.9670325534508039,0.14648659073663092,8.980735881027767,0.008142592604240724,0.0535980655216583,-0.0004370700126309507,0.9985292957784572,-1.2806718317944448,0.30951021771180737,0.17718511799645806
1729576386.6837058,-1.08491724203142,-0.004524229640052695,9.12770568144869,-0.00024737856103727266,0.059117880027096566,1.4650119475613095e-05,0.998250977885984,-1.2026069617679391,0.25849913113709183,0.1327038546085208
1729576386.6917105,-1.372802145755961,-0.28092077069418786,9.260659132746168,-0.015119544437145872,0.07347613489389732,0.0011140654163712418,0.9971817366133994,-1.0450886237719075,0.1657417302188059,0.06770299104417558
1729576386.6997385,-1.5905440792016234,-0.17645332789502832,9.158471877352778,-0.009594986591278575,0.08585158889576797,0.000826836061841699,0.9962613900269909,-0.8914067024310661,0.08965416671765682,0.024871262352410183
1729576386.707744,-1.4985284848744895,-0.31057623868037637,9.287977396431199,-0.016656722965975042,0.07984092202793294,0.0013343347266220708,0.9966675475305703,-0.688518133646433,-0.0049527284511662745,0.016625517657294236
1729576386.7157397,-1.1588879710516469,-0.4422859006789289,9.132246046013016,-0.02414434771641935,0.0629796915334162,0.0015240761066436723,0.9977215473867073,-0.49782320241880407,-0.20347165601931666,-0.03557352598206084
1729576386.7237418,-0.8669970416641912,-0.4633720177022792,8.751503036543356,-0.02641264069199917,0.04926725034819816,0.001303317244551712,0.9984354820512757,-0.37659520269883423,-0.39835584350044845,-0.10392798751287063
1729576386.7317579,-0.8956090453110147,-0.6292525941662894,8.337746022365467,-0.03759913110546282,0.05328926140514239,0.0020079087927008525,0.9978689935363704,-0.28981063083860525,-0.6034041987117681,-0.15856274639814152
1729576386.7397432,-0.8751872814346556,-0.7211194947321955,8.077520805557953,-0.044437830114917566,0.05367251240509567,0.0023909083807217286,0.9975664510316682,-0.22582056600153103,-0.7472920248501994,-0.18282980050006342
1729576386.747708,-0.20500760689790268,-0.4094479407358017,7.219884589047662,-0.028318488710273176,0.0141647000829696,0.00040132416106059243,0.9994985059556835,-0.16273650353448862,-0.8753423465565373,-0.20420107394460907
1729576386.7557104,0.04530781257024276,-0.253330209753981,7.279911257578987,-0.017391282635724602,-0.003109440371105886,-5.4085597813263005e-05,0.9998439236918985,-0.0993446623665413,-0.829148111817813,-0.17828604241829157
1729576386.7637076,-0.37959017451840116,-0.6964395833719198,7.928842883697784,-0.04377874576660773,0.02380232631611461,0.0010433327311966945,0.998757118691955,-0.06471507815746916,-0.6656364413681903,-0.14613511110548183
1729576386.7717059,-0.8694001496329156,-0.9340536279528393,8.588986067132732,-0.054064958424813854,0.050051367613455834,0.0027134095556681634,0.9972785359562939,-0.10991928715864077,-0.4155580871564714,-0.14004094422311897
1729576386.7797024,-0.7711159027680307,-1.7893758889299067,8.952750254781591,-0.0983839428187234,0.04191346768866164,0.004147431580023694,0.9942568379614206,-0.17365115784507845,-0.2804102267806111,-0.18448742103891086
1729576386.7877016,-0.6036880194440215,-3.0577004491294284,12.09983565824005,-0.12340869071742225,0.023979804697170006,0.0029829962972961897,0.9920616743706953,-0.089717232617338,-0.3321368097312488,-0.26394087474967787
1729576386.795739,0.3000233675328059,-4.977488788764766,13.666066777024108,-0.17374822568684758,-0.010155605353589591,-0.0017918693063877318,0.9847361103132977,0.19306989607757555,-0.43383730970432866,-0.2094473322252505
1729576386.8037438,0.592774386730621,-4.5700182512862035,14.310121543265247,-0.15391338137793262,-0.019483466643939924,-0.0030355339240958753,0.9878875700676374,0.4321296533128348,-0.4178077085635489,-0.17206861603451173
1729576386.8117404,0.3190333466379819,-4.868301445156487,12.761560621271649,-0.18120093165057416,-0.011483125610078086,-0.002115926580894661,0.9833767757324205,0.6824137130809604,-0.2285487419421037,-0.21945455639984165
1729576386.8197095,0.20913710026794538,-3.874351968168111,11.540331465536426,-0.1612365556373653,-0.008476634537537274,-0.0013849156475572739,0.9868784128765635,0.8649365936129502,-0.058802273856248394,-0.24448060012734335
1729576386.827715,-0.07467299862829528,-3.568398943352038,9.901867484058183,-0.17208240001282665,0.003494349828683681,0.0006104259976422781,0.9850761719304765,1.0493717727494614,0.08774306344877811,-0.1858518457309129
1729576386.8357441,0.06676599818630409,-3.275890952925285,8.951829078081394,-0.17450575936288495,-0.0034482558837794523,-0.0006111212684054582,0.9846499256138387,1.1749320323825394,0.17524457577033198,-0.11661938817609212
1729576386.8437135,0.23925717703678245,-2.5681551296164993,8.534556100413289,-0.14561354853281788,-0.013275767816973764,-0.0019541375862029693,0.9892505394584552,1.2430314571175316,0.2430703253758974,-0.06528904222957292
1729576386.8519099,0.35591999347792885,-2.29386949988904,8.333512868011645,-0.13387033289923395,-0.020390631214043237,-0.002755088100681413,0.9907852267861581,1.231105544337235,0.2761033540329201,-0.006395290605167317
1729576386.859711,0.31913628929964794,-2.1381566681951427,8.4142392881898,-0.12407979564579655,-0.018228604594996287,-0.0022798070511821176,0.9921021745600732,1.1847865110145501,0.2759157383384182,0.03660338147579262
1729576386.8677068,0.05405459828682,-2.151510363221773,8.736332390052551,-0.12043958321106986,-0.002982007060655839,-0.000361786901968815,0.992716114274404,1.0812222600806976,0.2583498764017738,0.06495672509314077
1729576386.8757017,-0.3436963218384549,-2.271331797767048,8.958318671092078,-0.12381491877358256,0.018442020889842762,0.002301507253132722,0.9921312719690644,0.9931166157712021,0.2507901896700214,0.07217785984992292
1729576386.8837054,-0.6678198731811978,-2.237879785447338,9.205713858905245,-0.11887657828276503,0.03493030568405329,0.004184677474203361,0.9922856047303302,0.914286135436321,0.25689662916752076,0.05352327738504251
1729576386.8917031,-0.9226278858227812,-2.358348215506684,9.79181103506971,-0.11777097905377573,0.045340710662073624,0.005382934257817592,0.9919905445457378,0.8593254261290756,0.282696376062046,0.03211396643102551
1729576386.8997414,-1.0702454497553875,-2.314271072858698,10.334047792916827,-0.1097879237862539,0.05003354059788012,0.0055335870367714006,0.99267952332082,0.8242205502374182,0.29987898444460925,0.009903198506450607
1729576386.9077222,-1.2682310039840916,-2.374016047035531,10.719244889129003,-0.10857444343841915,0.05712977475255305,0.0062501743684191475,0.9924256719720245,0.8014548644565758,0.3038031985522167,-0.0447151982101114
1729576386.915715,-1.4396947730447518,-2.3703587041490533,10.684127922246933,-0.10870180121468526,0.06496497647911446,0.007119307047745763,0.9919237801922641,0.7937551138485387,0.31126600775432556,-0.10600747035800472
1729576386.9237134,-1.3479244395104446,-2.527618128983572,10.924504563406753,-0.11322934717991803,0.05939634166573793,0.006781227135006432,0.9917687253046852,0.8146766671714383,0.29105366971079305,-0.18960874040756417
1729576386.9317153,-1.09917132508322,-2.570498448190925,10.90975555786827,-0.1152957654914521,0.04853064268286598,0.0056397684898295995,0.9921289513928667,0.8561765233445962,0.18186893287133035,-0.2321070813309833
1729576386.939714,-1.1615668831846975,-2.5272736319028364,10.62174224097096,-0.11635966830680146,0.05260877825578595,0.006172191136409551,0.9917936519753191,0.8819278171714151,0.09039099701846882,-0.2554776355777246
1729576386.9477172,-1.3572609477819124,-2.467101658389749,10.247103050881403,-0.11760614645818537,0.06354468112782562,0.007541141990854276,0.9909964676996041,0.8735399500256327,0.06147132925593583,-0.30014965255103565
1729576386.955708,-1.391838009098835,-2.2571794337545525,9.801334723595248,-0.11265417106304534,0.06826116770894819,0.007757735732859334,0.9912564089383776,0.8523310074026059,0.059870060872511205,-0.32652717267356024
1729576386.9637423,-1.2100347854397697,-2.080708443944138,10.092201554371993,-0.10130517739066411,0.058111652932635996,0.005927680870289606,0.993139043350317,0.842585472259024,0.042733077506899225,-0.2955277779862515
1729576386.9717052,-0.9113320797599557,-1.711463667440701,9.691155573736477,-0.08719111646889592,0.04597803229171748,0.004028527722215463,0.995121852196946,0.8878209585483189,-0.03863935277662725,-0.21179756177017545
1729576386.9796963,-0.9997822019575359,-1.4949446250249676,8.947506216556338,-0.0825511127472979,0.05466861587983181,0.004535287188285362,0.9950759204161691,0.9268815720428325,-0.10576748358961048,-0.1330381979225737
1729576386.9876993,-1.2427124669264749,-1.4754058961087306,8.646405222853724,-0.08418716776671181,0.07006176412394827,0.005934107154977132,0.9939661243541115,0.9281820569435151,-0.16775455521196403,-0.0836541293067025
1729576386.995739,-1.1150527963179944,-1.5781254981144572,8.464308105636063,-0.09183522020273009,0.06407614845078244,0.00592179688866689,0.9936928458289507,0.8961842131513482,-0.216440429844851,-0.07360543096443324
1729576387.0037165,-0.5526734771072028,-1.3883660850014867,8.663662429299606,-0.0793259060889196,0.031348297101447264,0.0024958354420136913,0.996352575997803,0.7756712722480845,-0.26310524714452654,-0.05097429956205245
1729576387.0117483,-0.4012753545748685,-1.3939810999755013,8.907294669493826,-0.07752194574132142,0.022170756449300805,0.001724337015308365,0.9967426107821432,0.6182254954137201,-0.3392071144695414,0.10819038029939085
1729576387.0197132,-0.31330952304765547,-1.2101235391356915,8.849966872497076,-0.06788430912916127,0.017489437740257952,0.0011901872298446864,0.9975391839902551,0.5037505964243859,-0.41934912984297484,0.260305966390707
1729576387.0277104,-0.317751443809062,-0.8781059289013368,8.51054890279512,-0.05137551013569083,0.01853539644803377,0.0009536893743899491,0.9985069286256301,0.4103756334659876,-0.5538494215438274,0.3843534527780731
1729576387.0357106,-0.3003053023205934,-0.6930211525556459,8.728038192995431,-0.03960131989838551,0.01712849596198722,0.0006789434765349476,0.9990685107259369,0.32497804145006837,-0.6690304915427635,0.4643159154094992
1729576387.0437105,0.11334594214280022,-0.7785342430470594,8.607858853297259,-0.04508329101191963,-0.006550009494221062,-0.0002956029043934497,0.998961714414563,0.20307493603781962,-0.6866306361052192,0.5429430774136211
1729576387.0517225,-0.043083391745569875,-0.7659169130157356,8.783790541470543,-0.04347447743484818,0.0024408351274470253,0.00010621477100100841,0.9990515506489492,0.09289803744327362,-0.5639497336050768,0.6403508018686142
1729576387.0597475,-0.2793959908578888,-0.7061529188055351,8.769400051200686,-0.04015957178953249,0.015859958504946637,0.0006375238263115327,0.999067196975896,0.019980857303153514,-0.4473464958973262,0.7166744191230151
1729576387.0677068,-0.22773205618465517,-1.2238339461075398,8.537386742146193,-0.07112342313242229,0.013165498297691322,0.0009388348735086238,0.9973801917651965,0.0039004032141135084,-0.35056607940056783,0.7399070162181681
1729576387.075736,0.266783746025535,-0.7881699050180395,8.884441113891231,-0.04422136324221738,-0.014935720837625526,-0.0006611987191722639,0.9989098848706595,0.026604575431803907,-0.295051969871285,0.7346905217094685
1729576387.083704,0.15288764263485224,-0.15279718104793305,10.105421039184348,-0.00755928614472454,-0.007562905282920414,-5.717343392096505e-05,0.9999428265595299,0.1245137109319004,-0.28302800722681687,0.6928228294112038
1729576387.0917056,0.7599542689305208,0.4917886359513183,11.799759801244983,0.0208141871306827,-0.03211738337066558,0.0006689875089502204,0.9992671293279007,0.1428186363930653,-0.3635057823013145,0.6064028451817124
1729576387.0997062,1.116532799395422,0.8433453617465722,12.725383395395427,0.033049124326023964,-0.04362518638608572,0.0014439399279639908,0.9985001319637102,0.06398098870127557,-0.424988839251336,0.5443342931689288
1729576387.1077197,1.1602521796372531,1.5704692751534122,12.610620507207958,0.06184243827829382,-0.04542111818482503,0.002817269583504303,0.997047891448916,-0.09442670595538849,-0.37078100026847416,0.6228808586789313
1729576387.115721,0.8596752811710238,1.986871749418219,12.277442911014228,0.08008442008623304,-0.03438804895711629,0.0027644771337897675,0.9961908980785518,-0.22693204815804574,-0.3033497118388705,0.7708973425514343
1729576387.123716,-0.11219392675637012,2.0846814285571815,10.998709085231583,0.09352027039179384,0.004988954651813267,-0.000468628118328296,0.9956047658308063,-0.37880256392818545,-0.21649072208174683,0.912492800496228
1729576387.1317108,0.04233807998133419,1.9700270358452463,10.269776016324498,0.0946206983199714,-0.0020152901351835326,0.00019154795380690062,0.9955113386418526,-0.48439833547997835,-0.16948360896501702,0.9106093027248497
1729576387.1397216,0.31965023202200366,1.946724231761054,10.17095628972634,0.0944040290354067,-0.015359285431900873,0.0014566580629393412,0.9954144110872573,-0.5498842487183642,-0.13021139949696633,0.8694643382845918
1729576387.1477208,0.732640294242499,1.3748935624941323,10.282849872468617,0.06636771003007289,-0.03516651832439504,0.002340538965128823,0.9971725853289675,-0.6006694283208707,-0.07472131920648355,0.7839036808313666
1729576387.155713,0.8645549712232338,1.1242113450160105,10.491962180561247,0.05329956751158383,-0.04080546204113443,0.0021798353065642685,0.9977421103114391,-0.6336946764511467,-0.01716293752885808,0.687869829905918
1729576387.16374,1.0205576507026903,0.9345371073025751,10.47210152464534,0.04443358929593689,-0.04831623775382874,0.00215150907298631,0.9978409534190829,-0.6369079129322931,0.053981436763451934,0.5344692555216919
1729576387.1717052,0.8230243365153641,0.7431604308854513,10.11972965502158,0.03661318800775019,-0.04042833585361651,0.0014824186150014713,0.9985103036819731,-0.6307477436532023,0.14945362896012984,0.453922542550631
1729576387.1796997,0.6245380125537497,0.5308904174668175,9.482856898237557,0.027943608347045172,-0.03281236567070699,0.0009177490361277443,0.9990703984946934,-0.6308828526389061,0.23823800882632695,0.398783473784602
1729576387.1876981,0.48318014273732796,1.095213269034778,8.608485382839017,0.06320486269337114,-0.027751830127395065,0.0017582473799448125,0.9976130962565815,-0.6292611577844802,0.3340776428922484,0.26438579789702105
1729576387.1957412,0.43930626923614674,1.2104279650829761,7.988094407193645,0.07509282509604998,-0.027080392758099436,0.002040057753303098,0.9968066804107627,-0.6299909011176729,0.41329161646636486,0.14713784707873778
1729576387.2037177,0.4472190288756724,1.40405526904002,8.154315775175563,0.08512123773900145,-0.026896948562052173,0.002298685163652623,0.9960048419010568,-0.6223406359498098,0.4884898546058668,0.07721476664922985
1729576387.2117097,0.6581074475988409,1.5341180210431526,8.387884468767446,0.09025578114994764,-0.038346268970169385,0.003477755983676822,0.9951740364571405,-0.6275413482627188,0.4761406391921937,0.08251251521381059
1729576387.219708,0.6385941975632109,1.5405690426063603,8.714294574082732,0.0873187092318048,-0.035873174335071936,0.003146466072697153,0.9955293356463537,-0.656203179338186,0.41041157152369145,0.11463808853197718
1729576387.227711,0.3747768127273796,1.4024634970970191,9.022189274967218,0.07701268069698776,-0.020449358842636513,0.0015798853555019728,0.9968191283763832,-0.7334225766496127,0.30158665090427894,0.14881258467404823
1729576387.23575,0.29094605345674024,1.341147984732821,9.39726512748033,0.07081179788977829,-0.0152812115958241,0.0010849412434698787,0.997372045304198,-0.7972075075564122,0.23288617804093523,0.171020042605139
1729576387.243709,0.3723286892029504,1.0742758977732862,10.230198440501868,0.05228065087211602,-0.018064388481762884,0.0009458665008618042,0.998468585760078,-0.8537831387433592,0.14398860743918143,0.24010991541531962
1729576387.2517228,0.18556882729130153,1.2986614322186592,10.967223812836275,0.058895793658014284,-0.008385986358631897,0.0004947756741323477,0.998228789366054,-0.9128442310817872,0.01402585401496348,0.3390319973988023
1729576387.2597435,-0.25784459962131284,1.2012946120167423,12.12099576963536,0.04937003069157751,0.010569739276829287,-0.0005224947996435498,0.9987244903777602,-0.9627543485745532,-0.048201265765472116,0.38689161492941704
1729576387.2677064,-0.8712913166575533,1.124439167112389,12.745503036732389,0.04395667347870995,0.033956177339045254,-0.0014949101109089538,0.9984550836772608,-0.9948288693775229,-0.02892075945928327,0.310036250205202
1729576387.2757304,-1.0806237768109381,0.8439335576404802,12.359090689226933,0.034049151674453604,0.04346708286751496,-0.0014822801906435913,0.99847337011193,-0.976612856450646,-0.01735245567556996,0.21411729417961528
1729576387.2837076,-0.7137359714088286,1.020395231019835,11.82677097237405,0.04299919762011702,0.029994452717520603,-0.001291514627224237,0.9986239201021425,-0.8418074408090686,-0.04957495905984888,0.1369841777370098
1729576387.2917037,-0.6614368245445158,0.8928375731822135,10.9907104240006,0.040498828957687825,0.02992695467240052,-0.001213547132800488,0.9987305690427466,-0.6987734424506655,-0.11913988834293597,0.04515547129500913
1729576387.299741,-0.5979750341798344,0.6700172570440937,9.865145142339815,0.033884166946608583,0.030179073581009665,-0.0010236476482172639,0.9989694884698024,-0.604013552144921,-0.19791388125998496,-0.08443751332604679
1729576387.3077424,-0.7590955380860256,0.5449441933377843,9.45532293745467,0.02875704294945395,0.03996197272985206,-0.0011505842406847743,0.9987866385631352,-0.49096652984848616,-0.3281878389953105,-0.265635989033954
1729576387.3157487,-0.730790513769584,0.6293541856804049,9.227864967306786,0.034013930892156666,0.03939022149658064,-0.0013416356478172821,0.9986439119974159,-0.3737582693410295,-0.4591377812577978,-0.38627439617963527
1729576387.323711,-0.32834103189456293,0.4757747794746492,8.326442754798133,0.028529459636728906,0.019665215152403385,-0.0005613751594198912,0.9993993366536603,-0.21276132994514285,-0.644130261980798,-0.49441540562985464
1729576387.3317134,-0.03515658691017525,0.35513613599533633,7.488229581101535,0.023692917674532563,0.0023441434422140635,-5.555534566739931e-05,0.9997165336019974,-0.05145827696538205,-0.8236618503099853,-0.636349912424614
1729576387.3397105,0.36485135547108233,0.22672863106009244,7.17228882654178,0.015794657049923295,-0.025394319498808077,0.00040127407822091355,0.99955264810063,0.07810168955505085,-0.9620304877327639,-0.7581199617872043
1729576387.3477147,0.7722108169447588,0.19206149748371168,7.671775611598897,0.012498105159379016,-0.05011855333605245,0.0006272243723389245,0.9986648760062171,0.19159563463012125,-0.9824752311515124,-0.9069548223450001
1729576387.3557136,0.8533419406063084,0.19089367095116452,8.860674179215197,0.010757186091145718,-0.04797300576878968,0.0005166794369868751,0.9987905719955849,0.2584149314907774,-0.8649066084568418,-1.0392504348873428
1729576387.3637447,1.0219701179770662,0.18755935320546432,9.36212647286115,0.010000026780886224,-0.05432446279435017,0.0005440768269609796,0.9984731124005759,0.25764026370681603,-0.5691753923266247,-1.1628995688047996
1729576387.3717048,1.2320831999366302,0.3052688455658567,8.791747864917863,0.01730957518026754,-0.06950907580282621,0.0012062722049044142,0.9974304045373207,0.24908735186866063,-0.3261803931833417,-1.1902631423944503
1729576387.379707,1.5460958794346344,-0.08570753909603286,8.342260465776889,-0.0051143224244276945,-0.09149277801171356,-0.00046990067537571963,0.9957924956893346,0.23629318365945082,-0.15356491982526388,-1.1670921108322718
1729576387.3876998,1.7105614705318744,-0.007131792744729091,9.295047393968085,-0.00038198203681590287,-0.09087097262944809,-3.485528946731537e-05,0.9958626005670714,0.22733961254953883,-0.07383427925229095,-1.0271852337022034
1729576387.3957052,1.9361335131784994,0.08574290677503754,10.292408606058586,0.004146518315141465,-0.09283210746957742,0.0003866028383577616,0.995673067199703,0.2709218269517253,-0.08942371406634991,-0.8730022472829271
1729576387.4037113,2.0420280583465527,-0.0685037591088056,11.377327110656635,-0.002998154382481788,-0.08867707393825507,-0.0002669203236002948,0.9960558801500993,0.3583705244435697,-0.0638707899148987,-0.7655933032801902
1729576387.4117079,1.6796363101055878,-1.0955086665980958,12.49969652030023,-0.04359521062520357,-0.06642242228722245,-0.002904894846150781,0.9968345304081189,0.3495403740881438,0.24391003680038775,-0.7096617381077887
1729576387.4197106,1.5167890590125714,-1.2994300852127636,13.09961617511959,-0.04933161131958194,-0.057257234797229765,-0.002832704839250546,0.9971358869137558,0.3433909037519642,0.4651878781152943,-0.6556696760541703
1729576387.427715,1.4602609769114492,-1.3401406597702366,11.353149347405738,-0.058591790170744826,-0.06337120631187408,-0.0037269652605847856,0.9962616132648652,0.36694538548382644,0.5204789917181485,-0.5500557482505297
1729576387.435748,1.2747911625628852,-1.1184430738406577,10.042146488326257,-0.055316956527064656,-0.06261289618137499,-0.0034757280505916597,0.9964976562274903,0.39470015648972884,0.5872831747353615,-0.4496523562211487
1729576387.4437137,0.9911267544224968,-0.8393782210133789,9.734863945241846,-0.042935224544176316,-0.050476745802623006,-0.002172009808815288,0.9977995525153882,0.46626703702187233,0.7201661179444122,-0.3515239055333993
1729576387.4517248,0.9013732853195137,-0.726048266836543,9.538044570758387,-0.037934667142417104,-0.04692530219299714,-0.0017833481266145757,0.9981762352973292,0.5594385925936782,0.7930848428864501,-0.24454385817554009
1729576387.459751,0.6835183901370206,-0.4634016993597383,9.527213180443313,-0.024282188763687085,-0.035750212783046416,-0.0008689055511820747,0.9990653344991781,0.6110846253221414,0.8253424461921981,-0.1637539173638053
1729576387.4677093,0.5698042848146343,-0.23303002840490547,9.729967571351926,-0.011966964263654649,-0.029232862690055806,-0.00035000329929469183,0.9995009299660242,0.6088684201651808,0.8319263063317859,-0.09229268955781474
1729576387.4757059,0.24228378182628058,-0.22481217597849015,9.976118692225219,-0.011264509043316807,-0.01213665344005443,-0.00013673219012462408,0.9998628874918787,0.5905110946125233,0.842687663398931,-0.04345629201375196
1729576387.4837048,-0.28582544989837233,-0.4243462862999847,10.079995474368333,-0.02103276586314066,0.014157914964109362,0.00029787588001291976,0.9996784920533078,0.556935126023441,0.8768143316342502,-0.015431523671700384
1729576387.4917338,-0.6623066102710546,-0.7367999861354596,9.489901591261624,-0.038708497057147316,0.03470160729262184,0.0013450670668596655,0.9986469053181265,0.5665878491723337,0.9011215431285999,-0.0028735632810897556
1729576387.4997685,-0.8862799451665391,-0.9733533400699476,8.865779314131974,-0.05457793492311748,0.04942788519503222,0.0027050249344000533,0.9972817134715641,0.6089888283474042,0.9105975892876654,-0.00896086901350839
1729576387.5077531,-1.1300789619729703,-1.2567826705458747,8.463533208596372,-0.07347646891901453,0.06543225386414385,0.004831228047247225,0.9951364167313981,0.7225472585750871,0.8835050822505282,-0.08498056290150495
1729576387.5157452,-1.2007015995958914,-1.7591554592611183,8.639494894640244,-0.10002825496970921,0.06728319912007223,0.006779822762428174,0.9926839141072014,0.8238861415057352,0.8331943731112833,-0.1752898356878162
1729576387.5237355,-1.1784317373454254,-2.0316092924023743,9.568198437028288,-0.10422512726411767,0.059585438811913805,0.006255669291371266,0.9927474829633601,0.9285355475947135,0.7093561341060894,-0.2728957856287302
1729576387.5317476,-1.7085535968506145,-2.124452643312518,10.59851481050799,-0.09843638051840622,0.07792000785862448,0.007731568051157369,0.9920579490237542,1.0100555539524296,0.5818419330202192,-0.36338611020293093
1729576387.5397444,-2.0883971153857592,-2.2574913674816512,11.240407231031355,-0.09852032332727322,0.08952732249779488,0.008899827579949515,0.9910597345704811,1.0572647975212113,0.5146985937208618,-0.46791173219997106
1729576387.5477045,-2.16068011859669,-2.3033169384089125,11.553477213374673,-0.09781168779536902,0.09013302497898665,0.008895454663114121,0.9910750639709865,1.0770765424332396,0.4727098298953992,-0.5923521643101898
1729576387.5557024,-2.101338669302545,-2.082772988973082,11.271816257224021,-0.09084105396020475,0.09015234576227875,0.008257726104851293,0.9917420367356297,1.0876865191960705,0.43091465920310246,-0.6546714117939221
1729576387.5637052,-1.8911964987006677,-2.0289764337647083,10.326619505310976,-0.09645416396068095,0.0883679067841916,0.00859765330656432,0.9913696523814145,1.078727663041136,0.39051271457509124,-0.6145873690980717
1729576387.571706,-1.7818706079606348,-1.6129079745166375,9.775063764954163,-0.08133702665200439,0.08856233980552689,0.007256239818445552,0.9927176572657901,1.0401485245541369,0.37861655958068346,-0.5266834342612567
1729576387.5797007,-1.8465196438291152,-1.4556830830498262,9.37158601043734,-0.07660267339539509,0.09571391303645983,0.007387871560319895,0.9924294920213403,0.9901825675898293,0.3565797144328677,-0.48032642428109823
1729576387.587695,-1.724658133953719,-1.3156188964607551,9.353357212951858,-0.06951739566167621,0.08995850562906335,0.006294618456327131,0.9934964402270865,0.9040119052982566,0.27141598695709485,-0.4623030897066298
1729576387.5957072,-1.608445598145669,-1.4724370715190311,9.291662859265255,-0.07820733057061441,0.08430576691440032,0.006637508935653461,0.9933438954285281,0.8301736247272873,0.19733048715268145,-0.4157311237991381
1729576387.603745,-1.5142972197272453,-1.3575141716223562,9.439239195051341,-0.07112753645632677,0.07845681015248011,0.005612085869927511,0.9943610546428999,0.7190373167351668,0.13500020468862808,-0.2592295456931096
1729576387.6117332,-1.3687438909183782,-1.187285701459742,9.788034716981976,-0.06016913098628315,0.06878955178707666,0.004156437967301225,0.995806405515004,0.5621092389099438,0.06780373090785387,-0.06146022383275676
1729576387.619733,-1.1442241385061052,-1.033673283668814,9.888615274769265,-0.051964311237721564,0.05718112188414854,0.002980300359625507,0.9970060919911301,0.4249576960071448,0.008755483935059948,0.1133924573964431
1729576387.6277525,-1.151967285838038,-0.8785383293321478,9.337963345769762,-0.04679491857675359,0.06099954729925693,0.002862954201668489,0.9970361549702798,0.28477292190662906,-0.05647176855095862,0.3575047162320473
1729576387.635747,-1.1211789896668853,-0.835256751261398,8.903424416153262,-0.046657997470906674,0.062254148212109964,0.002913496713836401,0.9969648759305856,0.178526174250294,-0.10837882188643069,0.5495209081098472
1729576387.6437619,-1.163758154298178,-0.5890212516845731,8.797605905795473,-0.03334529228087605,0.06552993439369155,0.0021910506135092377,0.9972908895995544,0.06114117791227698,-0.18038929978806895,0.7004885883993379
1729576387.6517105,-0.9393509997566412,-0.4264359016455095,8.448725961690174,-0.02517254264892044,0.055248347638787616,0.0013933130144067097,0.9981543076391626,-0.05994693720451499,-0.2985170373463695,0.8374694132723937
1729576387.6597028,-0.687869666016094,-0.3995136405966807,7.965022484973088,-0.025031517498927347,0.04299319050327268,0.00107751967871054,0.9987611564600378,-0.14622188824137516,-0.4064287152285466,0.9375368907776325
1729576387.6678822,-0.5942022854495,-0.39796491409433654,7.837845531999478,-0.025344058556653972,0.03776396757532136,0.0009580840276282448,0.9989647859278339,-0.2171429116292827,-0.4520196691920614,0.9984287574036999
1729576387.6757016,-0.3763932450489969,-0.5947967353218363,7.913331745469218,-0.03749165708906535,0.023678680054261953,0.0008886273899112876,0.9990159688918719,-0.2584184554776411,-0.4253116037644923,1.0209161053510931
1729576387.6837032,-0.6857620859454138,-0.13924511028489864,8.451350175211218,-0.008230183040731021,0.040464570217976975,0.00033331513003583056,0.9991470219868619,-0.2431689160092252,-0.331385483260399,0.9969477887108704
1729576387.691731,-0.9343508941453733,0.24828928392671706,9.636792091210715,0.012863525035932378,0.04828852983339913,-0.0006219378862598955,0.9987503996512064,-0.18676759550589014,-0.26907015009747465,0.9502143540556224
1729576387.6997385,-0.07003861632120835,0.5863942136665771,11.71801943075182,0.024997471693116655,0.00298379312296493,-7.46109314161871e-05,0.9996830586844813,-0.1554809435726613,-0.3346979450735317,0.8187316083271999
1729576387.7077353,0.7676958316721187,1.5403182323015085,12.104124976322185,0.06321295296055686,-0.03134899767380888,0.0019866181413427646,0.9975055971127252,-0.24909112863870037,-0.33107992585150064,0.7228143584316651
1729576387.7157364,1.4927578346966306,2.3008568939707486,11.615612444289406,0.0974205066568841,-0.062360775563201694,0.0061163888046610205,0.993268829845104,-0.3095141402929441,-0.21652693809230572,0.7261376872834147
1729576387.7237344,0.9768181370972752,2.0927891302789337,11.367515916280674,0.0908222513299946,-0.04196807118680422,0.0038308847638727963,0.9949750368658183,-0.40451317576725065,-0.07329938468093322,0.8579671533403841
1729576387.7317388,0.7898374435376619,2.643592180559938,11.0970325551395,0.11659424630869517,-0.03432098029416612,0.004031549952791541,0.9925782581964673,-0.5015274628292656,0.02583353927121325,0.9574979559247433
1729576387.7397223,0.15858610748001903,2.2354627985703375,10.26891505676534,0.10696577447669343,-0.007501019890792471,0.000807005531031163,0.994234080351942,-0.5967710704136713,0.1197941886209257,1.0035943555085738
1729576387.7477057,-0.007559586732691718,1.958502867130484,10.051687311647095,0.09606771370213643,0.00036738762442614593,-3.5458092281967134e-05,0.9953747325269521,-0.6611539660091692,0.20043491173408898,0.8724698023335343
1729576387.7557027,0.08381028922015059,1.9666247891259467,10.242413107203099,0.094706662200067,-0.003999783755886461,0.00038051960523739244,0.9954971145461239,-0.6929726623830755,0.2688267784907024,0.7235562102872753
1729576387.7637074,0.205669861276231,1.3255423344130681,10.776312715396077,0.061154154526405005,-0.00945229932622134,0.000579157382416335,0.9980834073354463,-0.7026986988552546,0.3788236885015196,0.566523335287057
1729576387.7717063,-0.13565070286316766,1.0060151467415908,10.953958061366553,0.04577480219513476,0.0061590941698429925,-0.0002822325279619031,0.9989327571902943,-0.7000205195093214,0.47759996924058634,0.4633641189962234
1729576387.779701,0.20256189517663067,0.7647388597734701,10.832377850735947,0.03523139767628717,-0.009319615555620157,0.00032856135432121636,0.9993356720497408,-0.6673382374150332,0.5492107494664253,0.39465754823833066
1729576387.7877011,0.034867037008322145,0.6628292973093945,9.690418683097818,0.034140360092225173,-0.0017937981756623361,6.127673580433427e-05,0.9994154363156694,-0.6230388445936624,0.5930285977248527,0.36535292750453197
1729576387.7957058,-0.017147584191491087,0.762813331559465,8.6659848072708,0.04388465824542043,0.0009845998777455994,-4.3250517530143795e-05,0.9990361181975135,-0.5951821387164539,0.6197449967413713,0.3273370321140752
1729576387.8037386,-0.12161892771216028,1.1285433041114603,8.099208514977713,0.06916699741054948,0.007417807070580503,-0.0005143134261147516,0.9975773845116841,-0.5840020859891352,0.6259839647376556,0.24450519621365469
1729576387.8117788,-0.23936837200815553,1.3017731956016416,8.494880909767877,0.07594869760222459,0.013882139718498788,-0.0010574875340478393,0.997014525094533,-0.5887876860122188,0.6246190647978819,0.18203539282954143
1729576387.819754,-0.7036247915154402,1.5163232471949695,10.19538098116346,0.07371053142082017,0.03397935457145669,-0.002512935327771929,0.9966974697352281,-0.6657291167204624,0.615712013666239,0.13859384993860502
1729576387.8277118,-1.3214370184639517,1.759496117506435,10.700448826735185,0.0812410255749896,0.06039151819923351,-0.004931662184557174,0.9948509632106776,-0.8413037538298662,0.6508083388261462,0.07975078947146676
1729576387.835713,-1.7400083878361832,1.700456177583939,10.907242627339938,0.0770057331390863,0.07785585499478856,-0.0060317311533383084,0.9939679074930117,-0.980703741012471,0.7054956487775911,0.03082287122439879
1729576387.843711,-1.8314579587271005,1.5927273234937227,10.720072691882477,0.07341233205214091,0.08337871595443559,-0.006159268473855759,0.9937910658887625,-1.0319912886509195,0.7208547422285148,0.03083873451703819
1729576387.85172,-1.738844878996026,1.7505113452681087,10.483032824113863,0.08235235488611907,0.080719342558558,-0.006692222712570238,0.9933064439219098,-1.0338168930545706,0.6713249698173085,0.06916035802420467
1729576387.8597167,-1.8197465257862875,1.367059686799537,11.060266502329645,0.06124056675886754,0.08068848482603634,-0.004967019227273024,0.9948438521293315,-1.007242401701729,0.5415699419270075,0.13940492895079007
1729576387.8677077,-1.8151362370049757,1.2569381948922222,11.043645737579428,0.05644065036001298,0.0807204205161347,-0.004578222801966142,0.9951269801259599,-0.9657563032023022,0.46712244568452305,0.11982661259474672
1729576387.8757043,-2.0058215578768137,1.1274189557536927,10.988901707684374,0.050882608480531395,0.08957289726245118,-0.004582129439362616,0.9946691210246894,-0.9187287609066205,0.44246138082774783,0.06976751724953788
1729576387.8837042,-2.1008397169526503,0.8825921363916687,10.790137114698513,0.04060107041518854,0.09560862330126381,-0.0039029548173874443,0.9945829835540478,-0.8185706151421281,0.41574542019274585,0.0022713346337537854
1729576387.8916998,-1.9064594380817463,0.5937198863271888,10.470244259785906,0.02819954956737684,0.08975674680867217,-0.0025423850393998613,0.9955611724473953,-0.7163324115986917,0.35970097803431367,-0.042057585488874956
1729576387.899734,-1.3433126611400632,0.7321215924408445,8.765412517785606,0.04152882017673382,0.07563620324207788,-0.003152857206310857,0.9962653167431296,-0.5992240914211036,0.2468959613073165,-0.03459973264548967
1729576387.9077358,-1.5917645815473191,0.5388717445270066,8.387032559499488,0.031929584572805064,0.0934059047553087,-0.0029970629397569884,0.9951114792823894,-0.4893699235985818,0.1238732432810541,-0.020759839587293803
1729576387.915736,-1.7863255653346415,0.30201465194081334,8.887363048883287,0.016897113723976315,0.098944370704644,-0.0016803633508205974,0.9949480767520836,-0.39280773847980244,0.027923729269271003,-0.032463336641091765
1729576387.9237366,-1.6449672166421911,0.250161798976988,8.57656107884169,0.014511383019888118,0.09455746752189234,-0.0013784831710669152,0.9954126806922059,-0.2693141579433819,-0.13308866407307252,-0.14207673968572015
1729576387.9317417,-1.5093951322314083,0.3196065569252553,7.990248219570638,0.019897361773557654,0.09312559449556664,-0.0018614160268359136,0.9954537928877837,-0.15775728421287089,-0.3186653229240432,-0.2614817292567132
1729576387.9397383,-1.3047504960868919,0.24635173200671565,7.251318095560743,0.016909457368806037,0.08883360141630718,-0.00150830935608009,0.9959017956173126,-0.01717877934163277,-0.596030442204818,-0.38420753037475286
1729576387.947708,-1.2140460166462756,0.23376287880363875,7.3717945121216015,0.015794407096130336,0.08147049154313193,-0.0012912331713227961,0.9965497621439179,0.1076088794200031,-0.846310455881303,-0.4936009762083872
1729576387.9557061,-1.0363219434838593,0.22381536522163636,7.762748603024914,0.014378523673850051,0.06627457465001725,-0.0009551298586971008,0.9976973621990152,0.1846099249842948,-1.0071207156237447,-0.5771160262899733
1729576387.9637187,-0.57941579670555,0.16373789955290372,7.612333430613777,0.01074484790559927,0.03796438530889944,-0.0004082394664251468,0.9992212402827219,0.22655365170824948,-1.115100503128685,-0.6685169923007419
1729576387.9717078,-0.10152554735926747,0.5797166935891641,7.723436686786235,0.037449872054934226,0.006549106324046489,-0.00024544064340296636,0.9992770166717115,0.247888677189464,-1.1705231942794843,-0.7484732855334629
1729576387.9797008,-0.28644912480227924,0.8793427847081859,8.3017395352651,0.052732063998250325,0.01712494477596012,-0.0009044251960770403,0.9984614402709648,0.25685848192503447,-0.9424031112322764,-0.8287995061442099
1729576387.9876986,0.03139824606589811,0.9429996588620209,9.110323324430544,0.05154786643602521,-0.0017117792521118519,8.835616553854779e-05,0.9986690540268451,0.25159811322982595,-0.5620363462476695,-0.8731640279574999
1729576387.9957047,0.12178961902625761,1.0116001444383063,9.303141575224732,0.05412830357906465,-0.006497307705544964,0.00035221205795062246,0.9985127879456018,0.23865102059907406,-0.3355190475027536,-0.8733899572348278
1729576388.0037374,0.2710742487106764,0.4692934912039993,9.892884454412183,0.023696445853804832,-0.013677391520039845,0.0003242269642950524,0.9996255810512158,0.245356227110332,-0.19833159807141792,-0.7709342099888751
1729576388.01184,0.9345351644607809,0.7010402255817746,10.022154066201995,0.03487151233337326,-0.04633149259884342,0.0016183746270054882,0.9983159576430267,0.2498050410785488,-0.11899895884285075,-0.6549724337741634
1729576388.0197344,1.1092326990182655,0.9109566353490647,10.741361878197761,0.0422325001303055,-0.051200283600106776,0.002167099445877921,0.9977926891754639,0.26737348161065,-0.11141424108314141,-0.4036257118010488
1729576388.0277383,0.7490972573504122,0.9318010283285794,11.435769907680372,0.040617177136599084,-0.03256522740518553,0.001324504860234965,0.9986430776670802,0.3072871601707909,-0.03577317016315652,-0.171510876877932
1729576388.035752,0.5871249498692317,0.4527780632862101,12.445458476590646,0.018176226867492127,-0.023548812910645377,0.0004282181169138961,0.9995573494385428,0.3235729462005589,0.09091827412808244,-0.07140546157856886
1729576388.04374,0.6496348161129453,-0.519377390543899,13.154461709489544,-0.019723726782063546,-0.0246460476900399,-0.0004863543434779809,0.9995015309615786,0.29034972161075445,0.3010255100633658,-0.0803040023558001
1729576388.0518901,0.3296864279978453,-0.4030849377443081,13.109642443174193,-0.015366896557765871,-0.012563795835887032,-0.0001931045990181125,0.9998029667064361,0.2844635588851189,0.4675304074634288,-0.06946690448658163
1729576388.0597074,-0.07967611561340221,-0.6608362531739286,12.15044875692014,-0.02716364406062203,0.0032726321342885136,8.892990631401138e-05,0.9996256391328372,0.36734694372652993,0.6317125451842334,0.03409268824829264
1729576388.0678282,-0.33846175091101005,-0.42355623066412273,11.164805800782943,-0.018955877315375014,0.015138703576154594,0.0002870518977931602,0.9997056626679904,0.48178186397360534,0.7366071787386466,0.14135159040419254
1729576388.0757272,-0.40371114966769983,-0.4890049212598018,10.444851397950234,-0.02338515560244069,0.019288639761009425,0.0004512752780880908,0.99954033396569,0.5576795471667051,0.7910301576420539,0.20145003108311216
1729576388.0837088,-0.8534663736385104,-0.6223662608613497,9.527574079736937,-0.03257550484034695,0.044537098349402476,0.001453033723404485,0.9984754238577987,0.6027924670211029,0.8151701437548575,0.17578403657846936
1729576388.0917015,-1.2157356921030282,-0.4780463690656379,9.05645576376013,-0.026304181106583165,0.0665568774105776,0.0017552275371223625,0.9974343042536478,0.6392254002859064,0.8288027552996158,0.11781543372948053
1729576388.0997097,-1.474995812234473,-0.5358247940956328,8.528618524174048,-0.03124782550038072,0.08531510186190398,0.0026769933603906664,0.9958603017001627,0.6900320844242065,0.7884536552197992,0.0025788504037632526
1729576388.1077425,-1.7143489424188088,-1.0131797360765205,7.839617822268101,-0.06383791770775307,0.1063605921756583,0.006842852710328446,0.9922526493094217,0.7724502824055546,0.7131613877964653,-0.1227541877046553
1729576388.1157155,-1.898422828586051,-1.467426237642006,7.819345313722189,-0.0919603472586856,0.11635020080953842,0.010819893634848336,0.9888826296408348,0.85680778623425,0.6530868751912939,-0.2298807651793588
1729576388.1237104,-2.2243453097004586,-2.00908240518286,8.775157539795813,-0.1114414815309541,0.12005871038295658,0.013564006444677987,0.9863988645494965,0.9640390667059173,0.6008659452926339,-0.34013123830208025
1729576388.131714,-2.4191805378710565,-2.3063033664495594,9.781037695264205,-0.11468466945887401,0.1170555353610488,0.013609738616686975,0.9863874508768005,1.0479595778161712,0.5657021768002797,-0.4186265339581121
1729576388.1397426,-2.611259606902321,-2.521027808443954,10.282093957490554,-0.11901969429768336,0.11974995911169023,0.014461749582757708,0.9855379837738575,1.119170697493963,0.5467323660121772,-0.5108468578667065
1729576388.147719,-2.684847939434361,-2.676438112068326,11.110888601056832,-0.117098854000937,0.11431044021065385,0.01356981415980305,0.9864262982069072,1.1542349481943215,0.5213027075110687,-0.6083223682966044
1729576388.1557102,-2.699552258533663,-2.5180536997605265,11.50186283348566,-0.10684364079168289,0.1117997924018217,0.012091448491271382,0.9878962697139161,1.1552660657258214,0.46305021620273834,-0.6697875049847772
1729576388.1637063,-2.4761372889580886,-2.454387094123894,10.809651910296473,-0.1107032283308508,0.10898339609468727,0.012214013983181688,0.9877845071042645,1.0962881276400367,0.358711241399429,-0.6921931249079719
1729576388.1717093,-2.18742287996665,-2.3027019720505084,10.204704584898588,-0.11012740971780448,0.10224873858042534,0.011390485413633696,0.9885784773752665,1.0319544406091476,0.290573885718437,-0.6932914850794898
1729576388.1797018,-2.0060539489272555,-2.1314851431912425,9.741179719933292,-0.10694913961962849,0.098525931705417,0.010651087139690903,0.9893134370152583,0.947805391814177,0.2211702381918857,-0.6760715186009951
1729576388.1877024,-2.1163020422079155,-1.7656322834245108,9.501611447682631,-0.09118083384756158,0.10712760153607713,0.009866588212602669,0.9900062540029905,0.8726259389723967,0.12759386217758703,-0.6427522753949486
1729576388.1957057,-2.147256133772015,-1.6239321215195504,9.458905794390828,-0.08437531451662478,0.10943682509571317,0.009323624967563886,0.9903622860502389,0.8287953374517147,0.04888646331152016,-0.6044560568284534
1729576388.2037091,-1.940773632655787,-1.6057102506949332,9.366484176097387,-0.08434114402816865,0.10019509338024105,0.008524303908277525,0.9913500143387419,0.7871721343266723,-0.03920422190847499,-0.5320982785589606
1729576388.2117093,-1.7697183592809722,-1.5523997588153973,9.295708314496324,-0.08227271803477315,0.0923589362089637,0.0076576498409449455,0.9922914829667907,0.7396366391941591,-0.10142381439263679,-0.4422833948979035
1729576388.219722,-1.6194405822189741,-1.4133926494786915,9.496254266041545,-0.07354092760571924,0.08322708451377563,0.006158816945143096,0.9937942711366691,0.6442820024651124,-0.1396069500060579,-0.29431696111816025
1729576388.2277095,-1.4162675976224002,-1.2433182837790118,9.65632558452727,-0.0638088417339542,0.072016031914954,0.004616729261215542,0.9953495911862948,0.5083165590572085,-0.19699772635253515,-0.09741182523895825
1729576388.235712,-1.2503104963175806,-1.05173052226936,9.25628979163433,-0.05640804622495858,0.0665519266261152,0.003768459328229644,0.9961800901933979,0.39268208809550365,-0.25143962504913697,0.08841597606102594
1729576388.2437112,-1.1933530250854703,-0.9037378824534128,8.739019763652472,-0.05137906405308135,0.06736123316110577,0.003473465718915427,0.9963988112598008,0.27562411863473313,-0.283253384144174,0.3182544939274612
1729576388.2518787,-1.2429756004516728,-0.5319476623333758,8.832320146765701,-0.029996681288557966,0.06969314120214758,0.0020966113043028407,0.9971151735893347,0.18453052394663128,-0.30404439984704434,0.491064189687209
1729576388.2597065,-1.0158513075366287,-0.48843865477307224,8.742254075364109,-0.027854480579530088,0.05769684496998566,0.0016104263766196425,0.9979441910843709,0.07538603926663014,-0.3599393955378938,0.6449814343955773
1729576388.2677078,-0.8680845638188521,-0.4738254182056402,8.289101015775106,-0.02850600654812092,0.05204364643531906,0.001486176991413146,0.9982367743848871,-0.03352103781049776,-0.4569042121102461,0.7943742494565107
1729576388.2757013,-0.8232384079690457,-0.4856476105425248,8.08855638949436,-0.029940216405190078,0.050579541954210126,0.0015169868195686381,0.9982699996134823,-0.10567632504016701,-0.5355162250038351,0.901463231013014
1729576388.2837355,-0.32275762608025554,-0.38141054874738983,7.233209704057944,-0.02633100401718839,0.022255572136108247,0.0005863602471515401,0.9994053351458565,-0.1336446551653354,-0.6290836494393499,0.9729533509917704
1729576388.2917025,-0.10339317306026269,-0.237704875391012,7.38295613249336,-0.016091554594646642,0.006997106069830842,0.00011261165280611847,0.999846032995076,-0.11594475826201191,-0.7039544668049882,1.036280545929202
1729576388.2997139,-0.6014495378693607,0.4927981953708616,11.530257543021406,0.021347635006683362,0.026025139837614952,-0.000555890281465622,0.9994331701329754,-0.06318150403527667,-0.719504342983491,1.0402216579746981
1729576388.3077097,0.3717559852861961,0.8846525256209544,11.444871604670263,0.038556909430902286,-0.016174453739614306,0.0006241829216472491,0.9991252985371968,-0.10942483274678731,-0.6662578296556739,0.9302041489760196
1729576388.3157134,0.49048591661117075,1.888303856681166,11.813583012850986,0.07915026706878725,-0.020421980301882206,0.001621834822542825,0.9966521698141723,-0.1669691342760359,-0.5483205292436534,0.8675991640685087
1729576388.3237119,-0.2793591678067351,2.756969300092684,14.144819780855121,0.09609514095966956,0.009646350572696687,-0.0009313213693759282,0.995324974289843,-0.22959125925007914,-0.27578105986343804,0.9262421270144212
1729576388.331714,-0.6325694630863847,2.564935891579048,13.993795107038464,0.0904920842402439,0.022123780295913765,-0.0020107751188723814,0.9956493749401423,-0.3050509497046259,-0.0816076938100426,0.990374828961387
1729576388.3397434,-0.9038718414260495,3.2371687724962563,13.347246677260188,0.11862294241538174,0.03262037037986998,-0.0038991746537430302,0.9923957403203708,-0.4337620160239122,0.0646946301243369,0.9773459526926606
1729576388.3477209,-1.015177932736489,3.258154495919629,11.942979014656894,0.1326553016248587,0.04053758350771285,-0.005430099458250628,0.990318024320494,-0.5905926973088838,0.24527645788368746,0.82394262591141
1729576388.3557148,-0.8636103961165028,3.150796426799824,10.507853506206246,0.14502921979588235,0.03885514979920923,-0.005699838218917481,0.9886477201631312,-0.7213004513656015,0.3944918004396528,0.6339919157063924
1729576388.3637297,-0.7147301939687298,2.646566740357238,9.39754180831359,0.13673105005387534,0.036186796564667785,-0.004998168158572931,0.9899344190503786,-0.839314279515601,0.5219074214433529,0.3586849562892718
1729576388.3717327,-0.7712089537835816,2.257598248560046,9.066543021999873,0.12161019479516647,0.04085926275238467,-0.00501036900640764,0.9917239421187899,-0.9182106875733793,0.6047421449675034,0.12709313105092251
1729576388.3796978,-1.2494600377974927,2.027090195473918,9.47224024923508,0.10499133872203834,0.0637396680208159,-0.006743325516858611,0.9924054620340035,-0.9387300585359384,0.63060433564012,-0.06592460189776504
1729576388.3876965,-1.5143840329324019,1.6539141807609135,9.537769402226594,0.08547576184138961,0.0772292805004235,-0.00664562184675218,0.993320375347899,-0.9063442246599605,0.6009985035287144,-0.19110042301914226
1729576388.3957043,-1.4492411546227224,1.5770125538667044,9.522499096169941,0.08173095574783919,0.07419706457120565,-0.006101599684175164,0.9938700201549774,-0.862222700769576,0.5619505011887695,-0.28791610882653224
1729576388.4037066,-1.4855727799318366,1.6984656939411165,9.429539854430482,0.08871376851235212,0.0765317277804015,-0.006836665280944995,0.9930891309077547,-0.7906266399203699,0.5206427172033974,-0.3958112575020239
1729576388.4117112,-1.6577276193751174,1.8211369725170137,9.504008879699304,0.09416630208621887,0.08434935805757582,-0.008007370975605449,0.9919444416683532,-0.7361753717513714,0.4996892573653323,-0.4809814696574964
1729576388.4197123,-1.7969335479434296,2.0168440243305206,9.676540663512942,0.1021301413916428,0.08932024267008838,-0.009207828624441016,0.9907101212568198,-0.7115927220177509,0.5275577373013863,-0.5537937900853435
1729576388.4277143,-2.075823960553167,2.0475981553209683,9.908149522619482,0.1011766109050751,0.10048527306582397,-0.010272281598723117,0.9897274794272444,-0.7053569334068193,0.5868478314092218,-0.5919472115430453
1729576388.435745,-2.2857749976697908,1.9554385172160185,10.017187317331455,0.09563519466429794,0.10942849839690517,-0.010578118659437565,0.9893267492015705,-0.7148118521455833,0.6964919585683167,-0.5795069893163178
1729576388.4437134,-2.1483834373225776,1.783545113503439,10.471907184100044,0.08381291437255564,0.09925691641569528,-0.00839041112360997,0.9914903231646808,-0.725593084126386,0.6848028436776838,-0.5575693938905724
1729576388.4517202,-1.967307392715812,1.5882323073598759,10.637718289952213,0.0737207251657679,0.090083760068337,-0.006686646591638946,0.9931794699903649,-0.737170104052412,0.5730696196236443,-0.5350416552829603
1729576388.459722,-1.7224316914888622,1.4724811446698318,10.331866612399063,0.0704774099642032,0.08148854027332025,-0.005776823162124781,0.9941625525048782,-0.7539071874216543,0.3740657661379908,-0.4278731985967461
1729576388.46771,-1.7950545629890204,1.2268172048683053,10.362636654451155,0.058663729373688925,0.08492700422389973,-0.005008952178667802,0.9946461085268449,-0.7639494374431997,0.2708396763821559,-0.2912048141364722
1729576388.4756951,-2.042614267334428,0.9623423798057488,10.635123475824988,0.044895925297253066,0.09426269028562584,-0.004255306756188604,0.9945254111767232,-0.7682720272102788,0.22848576535590842,-0.12023456061474326
1729576388.4836984,-2.0747918892580786,0.9192974249537618,10.241245422164914,0.04451655718284393,0.09928959687270966,-0.004446477092029547,0.9940523532143121,-0.7708655810705263,0.1430511200740135,0.029599188320579603
1729576388.4917083,-1.9195611613868784,0.7775910916910069,9.453055107302855,0.040812506365551185,0.09959132502795391,-0.004088354872814409,0.994182675697868,-0.7719960233252128,0.06880306958592683,0.1595143034592043
1729576388.4997344,-1.7158106079649396,0.5613650407567917,8.780943340260619,0.031762200367651726,0.09609563860608918,-0.003067976850509468,0.9948604818700649,-0.7462815048673787,-0.01235510599265989,0.3089793028680004
1729576388.5077436,-1.5128756799645104,0.7155817270907938,8.426996834234497,0.04217092827767974,0.08831087651577559,-0.0037421406908815166,0.9951928447694265,-0.6980746590601018,-0.09978780693285678,0.4127060745415252
1729576388.5157423,-1.2862486904494095,0.45903713684041375,7.925888210403979,0.02882474062651661,0.08018884863781804,-0.002319866785434041,0.9963601262094208,-0.621473264691988,-0.25228459194055236,0.4672797164393234
1729576388.5237348,-1.3511460160274582,0.17295045104956072,7.93000490744356,0.010862518481392976,0.08425695679653508,-0.0009185638848020889,0.9963844273993938,-0.5325177318634546,-0.401676511304006,0.4621374861078815
1729576388.5317383,-1.2356584042942091,0.4188472091062989,8.095280638557933,0.02576703025716584,0.07553815066605335,-0.0019526265523590394,0.9968080232397941,-0.4455148973108341,-0.5338806690682814,0.43436212434421856
1729576388.5397434,-1.129255711521838,0.12417621730948247,8.127887271074211,0.007619309944296771,0.06896134979831424,-0.0005267072117657619,0.9975900966476564,-0.32818261717557096,-0.7630460653614817,0.3649113396647289
1729576388.547706,-1.0426691800869308,0.09701122599115823,7.740436968357417,0.006251549518406796,0.06689259543221822,-0.0004191293918825188,0.9977405089177814,-0.23309322552961526,-0.9895145259829664,0.29855084529223724
1729576388.5556989,-0.8286298088334085,0.2578831540517262,7.499347660750778,0.017159061541436416,0.05495552160715843,-0.0009445522780891668,0.9983409062403966,-0.137727485010459,-1.2526769307330046,0.20169208043283002
1729576388.563707,-0.6324502790988732,0.31083184067322317,7.616380317641873,0.020374585491691438,0.04136933124986996,-0.0008437809236313763,0.9989358051104852,-0.06518319848633211,-1.4599544207126234,0.07291227131448844
1729576388.5717115,0.08261075295083233,0.4838589505953402,7.530737383700357,0.03207550187035428,-0.005470555756671925,0.00017556378910571943,0.9994704619831614,-0.002074883744602511,-1.5958145463598696,-0.05330997122465015
1729576388.5796993,0.9639120657841712,0.5175251079060321,8.047016836958495,0.03204750740695327,-0.05942103678059509,0.0019086542985736756,0.9977166204367295,0.06260857897254324,-1.5368529014657468,-0.27079810721498976
1729576388.5876954,0.31163317452909645,0.9466544458471348,9.211275081423144,0.05117595696288453,-0.016798035451297797,0.0008609055750860926,0.9985479989842755,0.10184434666429272,-1.2975703750889598,-0.4549279365534096
1729576388.5957105,0.6979025389948017,0.12314999905124961,10.067368497340212,0.0061121440694167,-0.03459611877945588,0.00021158708292853514,0.9993826621926052,0.10878389488232318,-0.8517609156248453,-0.5994610390734239
1729576388.6037216,0.8020532091878966,0.6118671124678592,9.181134836197097,0.03323394195548918,-0.04343511670952334,0.0014456853775995282,0.9985022812854852,0.10656227289121098,-0.5502200350294141,-0.6653220875737931
1729576388.6117184,0.6289541679443785,0.06688737929712171,9.56469793418896,0.003494551736030821,-0.03282476856825504,0.0001147704011371042,0.9994550062430823,0.10395222951215755,-0.33566599181665485,-0.67035782169559
1729576388.6197085,1.2198920649756115,0.16223671224624175,9.986132505630565,0.008106698433548592,-0.06073083237851946,0.0004932532990808252,0.9981211370070783,0.12579915686513726,-0.25461085277274687,-0.6610342503862692
1729576388.6277106,1.4659974679892729,-0.3082357338827237,10.776970361532635,-0.01426233707916791,-0.06751474936821908,-0.0009652193271577057,0.9976158643037095,0.1814763194231282,-0.2664257580740106,-0.6728934001206199
1729576388.6357114,1.8298571197095794,0.5282912342309127,11.992239068726223,0.021944889442155488,-0.07554677690447835,0.0016630220941041777,0.9968993633683548,0.3196023720775826,-0.22200620381786298,-0.7170439253084272
1729576388.6437242,1.4728462518062162,0.019854314513156977,12.921794971997452,0.0007669620111387151,-0.056715345626252404,4.3568656994007585e-05,0.9983900938218189,0.3696998689376788,-0.013159124958424862,-0.7537508018962004
1729576388.651718,1.3410002681735733,-0.26366002237609015,13.284401078657455,-0.009909154005888,-0.050268831913667836,-0.0004987767705964338,0.998686439492725,0.37591972361186277,0.1687659005316882,-0.7353343720099712
1729576388.6597326,1.1558295444490658,-0.02866970361120098,12.120749804909318,-0.001181278229058577,-0.04751798024605725,-5.619547427138017e-05,0.9988696826799528,0.3847599171539175,0.28090074625599026,-0.6012600863157066
1729576388.66771,0.8668379268647521,0.0033883121106231605,11.080188203258091,0.00015277840688587984,-0.03902714275710776,5.967050758043277e-06,0.9992381391597145,0.4049631854303214,0.37031753688659713,-0.4761180584456345
1729576388.6756976,0.5837885202790075,0.06739469258863952,10.599024501544697,0.0031779880420175566,-0.027507765479032276,8.745288493951009e-05,0.9996165342681904,0.4651881233413733,0.5065514831885953,-0.31504344930826084
1729576388.683702,0.5336689593353733,-0.1388888887925194,9.917677208251037,-0.006998942766670439,-0.026872489706891208,-0.00018815157811538026,0.9996143499850758,0.5668793555531573,0.6031910031209655,-0.16731587645039286
1729576388.6917021,0.4085474168609896,-0.035209879906371026,9.769118552733824,-0.0018016831442618786,-0.020896279395435313,-3.765675791667812e-05,0.999780024819082,0.6419418669084748,0.6726683467398623,-0.06548294083034911
1729576388.6997347,0.17138703898378124,-0.2413924806781976,9.763301577196934,-0.012358908736787317,-0.008772739907457552,-0.00010843394707414226,0.9998851357288151,0.6742086718778043,0.7467071975823149,0.04159134717957655
1729576388.7077563,-0.24791831982262189,-0.5314990565221529,9.600836401640427,-0.027645694069320135,0.012883409124328695,0.00035633659243985635,0.9995346949420983,0.6897375443062437,0.8077324204848055,0.13605991434933618
1729576388.7157545,-0.7860874738271668,-0.9598272183371197,8.715664950115116,-0.05475788196942694,0.0446236537844869,0.0024496232154161838,0.9974990241755863,0.7241705813895674,0.8762743088359524,0.19912640557312244
1729576388.7237456,-1.216009780438878,-1.3118739213343031,8.626292285498756,-0.07520150108758375,0.06898349878326764,0.005214959274409719,0.9947657087623997,0.8014471818140116,0.8773845760692096,0.15906501905984238
1729576388.7317338,-1.5793080374527801,-1.6787250510427694,8.879844759726987,-0.09292295477154659,0.08602077426334563,0.008058434842995121,0.9919177448254168,0.884848177415875,0.8444212215536633,0.0924591810056712
1729576388.7397404,-1.9009559235458868,-2.302019288438162,9.867792043824473,-0.11383145919491942,0.09198488234781987,0.010585349354250064,0.9891759857053048,0.9987422839962977,0.776965921960588,-0.030513883811927663
1729576388.7477112,-2.3087045441177665,-2.5792700838050844,10.569496589820075,-0.11871129804013114,0.10361452755968163,0.012456806707512688,0.9874292305592653,1.0853834205874187,0.7254248006067301,-0.1085546233171073
1729576388.7557023,-2.7180747906796445,-2.5054821345115665,11.600083060093217,-0.10545992035424409,0.11170311263005138,0.011922581673219454,0.9880579294119753,1.1552470851234964,0.6715128644754655,-0.1502707862826707
1729576388.7637303,-2.8380013514585682,-2.3137265426698304,11.660107115108664,-0.09708821491436533,0.11634837838214274,0.011428793664319164,0.9883857121832378,1.1384200553633828,0.572332363147168,-0.2902368006567573
1729576388.7717035,-2.7347017264024847,-2.2855827078284605,11.365482298850354,-0.09837167555611144,0.11500163880220128,0.011445485812638906,0.9884162267868754,1.0861805214225735,0.48430282823223325,-0.41635972536595034
1729576388.7796996,-2.6363300861344596,-2.137733576113092,10.736921555823885,-0.09739495270827901,0.11731325546492971,0.011561685245784145,0.9882399256827512,0.9871520812856249,0.41190336445601894,-0.5060812522197131
1729576388.7876978,-2.5054810521689572,-1.9312293754041832,9.966417777244331,-0.0948271814421626,0.12013622230560932,0.011528785197507021,0.9881508897237011,0.9026193035771961,0.3514360837318091,-0.5526774372871164
1729576388.7957346,-2.260574616408796,-1.5576116218245413,9.584560685877848,-0.07991756678598064,0.11374488500930587,0.009179735621900005,0.9902479568810734,0.8169930519122521,0.2278892526975667,-0.5478570135949818
1729576388.8037374,-2.2553674932339494,-1.2137308866689436,9.269255171292334,-0.06458036725773249,0.11784063576205092,0.007680075701160616,0.9909005889418355,0.7583805698684312,0.09075902498064062,-0.5624180518996444
1729576388.8117929,-2.1394763211356818,-1.0885658818548818,9.2007396262129,-0.05845458859393825,0.11303268726729253,0.0066615850072661645,0.9918479197773411,0.7270442911952968,-0.011100854476768507,-0.5843510667877649
1729576388.8197367,-2.0213393241755497,-1.183694617003554,9.29586037362813,-0.06291331822286816,0.1058121090648659,0.006708165759449665,0.9923712573818212,0.6882350911027008,-0.11180595786718292,-0.5736722322787635
1729576388.8277383,-1.8455910932846267,-1.1864234804072105,9.407281199762815,-0.06238525507869548,0.09578430950299316,0.006015065422255082,0.9934270305310636,0.6334485064989528,-0.18457403168383046,-0.5315069664105521
1729576388.8357394,-1.5715903578750727,-1.0659565137814355,9.640530710824486,-0.05484904029042695,0.08010987410221111,0.004414849411570463,0.9952660448117479,0.5107559527682154,-0.2524992094771548,-0.4125559933679782
1729576388.8437128,-1.2527639095492624,-0.7920845540208143,9.00044951658258,-0.04376705908344913,0.06876662491722416,0.003019775776098483,0.9966676862379665,0.35881344922075914,-0.314538819226251,-0.22837754325499549
1729576388.8517177,-1.0061619822041667,-0.8281560571195199,8.290549954090174,-0.04966665022809346,0.05997924036419756,0.0029880553200532247,0.9969587685084365,0.24168085334310144,-0.34707999439962633,-0.0633821453200658
1729576388.85972,-0.9996981439123439,-0.3510867531681963,8.359491699749025,-0.02094683273596195,0.05941153136320007,0.0012469611236426896,0.9980129985262552,0.14245437163708866,-0.3640505591348794,0.1309696672083871
1729576388.8677034,-0.8976575728708437,-0.32772851308255846,8.435093830884572,-0.019387173685337197,0.05293576856524142,0.0010279101621675124,0.9984091772933582,0.06844502052377192,-0.3942403308647467,0.2931295913018962
1729576388.8757098,-0.7722686257537563,-0.18227189788859757,8.256118414009258,-0.011024103444343542,0.046602760162312525,0.0005143438402051681,0.9988525353318759,-0.010441485122642674,-0.4953637558877632,0.47045527731286363
1729576388.8837395,-0.5677483678350662,-0.29826564971948666,8.157831130192664,-0.018260331380247304,0.03470584113844743,0.000634228176221947,0.9992305352837136,-0.09310566361184006,-0.6237225306740362,0.6019664025457039
1729576388.8916993,-0.19460271943150848,-0.7166970827027858,7.797428770889036,-0.04580878486969787,0.01241034614652384,0.0005691443182476687,0.9988729722101956,-0.15164366199606114,-0.7173397079428192,0.6757647969478637
1729576388.8997746,0.3805140531555481,-0.4501295435669839,7.884772125814672,-0.028500829896297215,-0.024059731787750782,-0.0006861999605342476,0.9993039383146342,-0.13610934371261202,-0.7479686106163671,0.7856001030543125
1729576388.9077265,0.2137038017663757,0.822157071223091,10.38405223544974,0.039492641264532766,-0.010248278034188294,0.0004050688999483828,0.9991672232426718,-0.09741613850166236,-0.7199457355211344,0.8851308015736822
1729576388.915735,0.8618056697317005,0.46623976397408895,11.935095636924142,0.01950796836769896,-0.03599927277880901,0.0007028622728116427,0.9991611469198486,-0.15678408729872673,-0.6584345540104815,0.8703534599294485
1729576388.9237144,0.8022328195636296,1.1943288925641409,11.984416046705267,0.04961546673200076,-0.03320860798083688,0.0016506072631486182,0.9982147911710203,-0.2634950968411246,-0.4670023527933722,0.8614870549429082
1729576388.9317396,0.6041622369041935,1.7681307046791095,13.125875543550503,0.06688178033105688,-0.022739334921877383,0.0015246579496107516,0.997500589235513,-0.33220429324264567,-0.24316637632882654,0.9149124404327444
1729576388.939742,0.6603360286659536,2.1835195812547314,12.163779919636161,0.08865955450920295,-0.02658277236105575,0.00236698439135306,0.9957043923739219,-0.4198300277829198,-0.027557988710851133,1.0453020759243756
1729576388.9477074,0.5154328598753534,3.217811631565339,11.832167635619587,0.13234624058564576,-0.020818886174052642,0.002780377580581107,0.9909809867408292,-0.4907101411499516,0.12351723699449772,1.1099137752525692
1729576388.9557002,-0.1796362630786942,2.694916148861078,11.895844187328782,0.11115779048413035,0.007317549940923818,-0.0008184974267074671,0.9937754923218377,-0.605605519618716,0.30483435550911975,1.0150141155504073
1729576388.9637334,-0.443927670933154,2.4831718499611783,11.019704504340627,0.11056978042365294,0.01951790997315941,-0.0021718293131827195,0.9936743219006815,-0.7771340515123243,0.4889717674966726,0.6737133586724732
1729576388.971737,-0.8115163205774706,2.1346616170567847,10.00560355587586,0.10481878967616974,0.03934902211364175,-0.004150649764210353,0.9937039035326659,-0.9051668842747492,0.6258469984998503,0.35399658795096417
1729576388.9797082,-0.9248092759890604,1.6368147570993052,9.7265851352345,0.08316910502817391,0.04656517823581213,-0.0038905276350225996,0.9954393240873101,-0.9981628062677613,0.7258511196831621,0.14939582367419782
1729576388.987697,-1.2025171146657019,1.0895885088005985,9.532119604089917,0.056760858385289104,0.06220269344659195,-0.0035432856118875716,0.9964419074940731,-1.0420410377426317,0.7662718495658958,0.0453657278124674
1729576388.9957333,-1.3250885073248118,1.2223759995674686,9.437227520510591,0.06420022033137095,0.06898048776086979,-0.004448401615149639,0.9955401728412301,-1.0066429177155594,0.7300762987679275,-0.1387996872827119
1729576389.00374,-1.4180243763675433,1.1090758402189966,9.252681321876667,0.05943598027780718,0.0752980969887056,-0.004496197673514665,0.9953779910389703,-0.9355983085082582,0.6866487751545829,-0.39233079699106205
1729576389.011814,-1.525740073818573,1.2572921545220228,9.05336814127053,0.06869653587959978,0.08240944375050052,-0.005694202658383237,0.9942117710000024,-0.8627475486200733,0.6648491616011964,-0.581910188224731
1729576389.0197406,-1.578637904154425,1.4786212949104791,9.492347480221303,0.07692089381372867,0.08110198848361261,-0.0062779044019076555,0.9937133547835721,-0.7832791275243516,0.657303364268171,-0.7220506067755783
1729576389.0277352,-1.799997373840311,1.5357620066826159,9.6444047063945,0.0785336634097191,0.09072477929515746,-0.00717699184599188,0.992748693739426,-0.7377265251742289,0.6655465877122168,-0.7899586355705295
1729576389.0357413,-2.142784541247546,1.531499787017382,9.72079499180545,0.0775861461361541,0.10666878148915739,-0.0083492614843846,0.9912277492161038,-0.7133747941943894,0.7603131247471329,-0.7843032361481388
1729576389.0437088,-2.7142908553637617,1.6472160172299604,10.136293899380146,0.07976347421620177,0.12842482383785644,-0.010363284819943436,0.9884520499907508,-0.715365668003505,0.9108248604897295,-0.7489832418850519
1729576389.0517182,-2.8548846035502886,1.5813733615586794,10.539540410673009,0.07373395707309381,0.13013061363243206,-0.009704671270791403,0.9887037707652964,-0.726776753764063,0.9866584398455784,-0.7082095024999464
1729576389.0596979,-2.4402892264856417,1.4980538777750514,10.493944698063963,0.07036707490450197,0.11260868280106362,-0.007994999776421574,0.9911124251596125,-0.7417115163881765,0.8167594163592997,-0.6220201999568884
1729576389.0679483,-1.9736596491726348,1.4720042041064372,10.794353477773925,0.06743132740130901,0.08928541715760853,-0.006058790150238053,0.9937023807105448,-0.7485439236553344,0.6092488670249487,-0.5136898402566035
1729576389.0756996,-1.9924782699723307,1.298357090334956,11.047621896234666,0.058221387057483774,0.08835334924246106,-0.0051731651644229305,0.9943727641729353,-0.7522176779541672,0.47793149644094557,-0.3141735650144305
1729576389.0837069,-2.3818138845908203,0.958100538380661,11.235495972213455,0.042281933006160094,0.10380012462165729,-0.004416743011620969,0.9936892193492693,-0.7535705504105428,0.41702005667194897,-0.15061772353853747
1729576389.0916986,-2.6003317829029293,0.983789966583084,10.637142524734323,0.045753931488381014,0.11897763324246781,-0.005488552479191618,0.9918269891130511,-0.7343748409956526,0.32896469537364526,-0.011192282691184594
1729576389.0997045,-2.2526021898589454,0.8268211039732879,9.803120846871844,0.04178227519224986,0.11220876816159805,-0.004722364116289844,0.9927946077132818,-0.6998701520277688,0.1871622557490984,0.16994600589203235
1729576389.107728,-1.9022276957513045,0.635674619171082,8.500889704168028,0.03707677375257696,0.10947751552747438,-0.004086497042701385,0.9932891255741965,-0.6646938765573295,0.07228248767202805,0.33822558764664695
1729576389.1157176,-1.6826656128121107,0.47813051857296174,8.26949913988363,0.028722345325718306,0.0999968271738924,-0.0028878274448479913,0.9945689125881593,-0.6018704852517868,-0.04730249048819591,0.5545553433556263
1729576389.1237078,-1.4728773889275006,0.6979627361926052,7.999941390668458,0.04331298506318064,0.09048904055268481,-0.003939254190212777,0.9949473358631582,-0.5399121169651253,-0.16162248353053343,0.7179827116365143
1729576389.1317105,-1.4583348317940004,0.5313051197429068,7.726636943776074,0.034166055380710166,0.09286970011046562,-0.0031886578430746055,0.9950867961752252,-0.4674048208917798,-0.33578561459851974,0.8113565419289648
1729576389.1397448,-1.3950214996623376,0.430592289375041,8.061127061285175,0.02657785775580766,0.0854247479370725,-0.0022795535844742304,0.9959874665639398,-0.3647295247045501,-0.513502183810781,0.8043787110080545
1729576389.1477077,-1.2129025604419337,0.4819738086836184,7.972840991409776,0.03009553016271967,0.07524480650783018,-0.0022720112591266654,0.996708240220107,-0.2694948321367118,-0.6784516637584361,0.7593257665551532
1729576389.1557007,-1.0746613568218009,0.3593343938527491,7.6545918055392255,0.02339326075883232,0.06959013153006673,-0.00163234741938287,0.9973000072127743,-0.15318309805278646,-0.9327982241606707,0.6509871981441644
1729576389.1637375,-0.9766331641907368,0.22158614046204012,7.362128143626268,0.015009957542671945,0.06585849111369982,-0.0009907965508629114,0.9977155800352066,-0.06466569489810184,-1.1620303714651772,0.570233524823476
1729576389.1717029,-0.8912406101843638,0.24308496064441154,7.564933808783183,0.016031660928762046,0.05856468849805565,-0.0009406252123219245,0.9981544361135709,0.0003640687156458017,-1.4013095845373065,0.5277409816915314
1729576389.1796956,-0.3118441915500714,0.3479215965038344,7.461801671988659,0.02328925933906166,0.02085407410574933,-0.00048591349281383193,0.99951112143923,0.04534158774436283,-1.6057507911696547,0.44648005776083843
1729576389.1876967,0.24624398555823834,0.81951380140816,7.737744244159992,0.05272758491948177,-0.0157954247060916,0.0008341194097875176,0.9984836556457614,0.085098801005454,-1.7377806965012281,0.3406810351665105
1729576389.1957016,0.9639297372822087,1.113482451987474,8.987164879015527,0.06150531744201788,-0.05289610192719037,0.0032641672986138443,0.9966987727187746,0.12470366123620388,-1.56924702392927,0.13757528145036735
1729576389.2037063,0.4727735491564345,1.2189952731944376,9.417909598796033,0.06429394555452447,-0.024817479906380516,0.0015994185876769432,0.997621081932569,0.14250691651418534,-1.2416597076882943,-0.03239114772452814
1729576389.2117236,0.3040148436051888,0.7460017940436157,9.739323934326448,0.03820968410021783,-0.015544997323449059,0.000594475545340099,0.9991486474484172,0.1327557467307967,-0.7816051698987112,-0.18417674242052312
1729576389.2197087,0.3363560729111602,0.3693106821390601,10.09186578637712,0.018285626694778706,-0.016643857437298574,0.00030443645570536645,0.9996942158402391,0.13627022621292822,-0.47619983298408125,-0.2697141284391137
1729576389.2277064,0.9394671752408368,0.8608382525451547,9.162314386377053,0.04675948752900125,-0.050789301224938015,0.0023805681314382526,0.9976113121363848,0.1541294461763023,-0.3257347655678797,-0.33082743146389476
1729576389.2357407,1.6626188671562208,1.420314078236077,10.288425573964904,0.06831299119058921,-0.07909825974545072,0.005433275214698804,0.9945085620849511,0.26828766308960045,-0.33293874919296407,-0.414747010101049
1729576389.243712,2.092679159649201,1.4495417611506305,10.9899496644473,0.06522644252033032,-0.092957914689103,0.0061029066735255886,0.9935125020969438,0.3844598801213268,-0.31214542574175475,-0.4804235994959746
1729576389.2517061,1.4624665192270205,1.1826472136728003,11.739588006676193,0.050080384999535654,-0.06154297262357299,0.0030918584795921497,0.9968424439048001,0.46267701156960334,-0.0978923425380262,-0.5709123605083737
1729576389.2597075,0.9308706085576968,0.957388200029852,12.13454379399595,0.03932734840425234,-0.03812429497785046,0.001501583270227155,0.9984976930607375,0.426597728453473,0.16475187674475084,-0.6205230264397308
1729576389.2677045,0.9899575042947744,0.7851226661116611,12.345659888458115,0.031723097090491495,-0.03989669384473112,0.001267295062432313,0.9986993005376903,0.4015446380920986,0.32404116856026527,-0.6285792328639814
1729576389.2756996,0.7620474591198333,0.5656445652431685,10.932139617156901,0.025828558350326523,-0.03473231357458438,0.0008979274546555084,0.9990624333311641,0.4286560999600151,0.36853193627413006,-0.5593428860241383
1729576389.2837014,0.6269773731769781,0.6391407869974637,10.373965275421096,0.030746779252361075,-0.030106286009169682,0.0009265299778782485,0.9990732649063034,0.4576936789246259,0.4173622800984746,-0.48204311275742184
1729576389.2917016,0.704192051347593,0.5314461347961345,10.151827568572969,0.02613178772652166,-0.034561638917649594,0.0009040067609121455,0.9990604614122802,0.48405571759409505,0.5143452061655444,-0.36542438865615673
1729576389.2997067,0.27982081186324337,0.29157378195189937,10.346311151739485,0.014085179875052466,-0.013512322738256631,0.00019035976437273524,0.9998094761529642,0.5147720929469477,0.5848799735881851,-0.2613979492784352
1729576389.3077326,-0.007363074405491483,0.002082909307858374,10.38710510901244,0.00010026417940925128,0.0003544333457545765,-3.553697097811346e-08,0.999999932162046,0.5297963976669631,0.6306063545334658,-0.2023876061434985
1729576389.3157363,-0.1961933976218105,-0.2563663530480975,9.315515963356683,-0.01375548143566993,0.010523732843833549,0.00014478072928822088,0.9998499971575961,0.5532844425886814,0.70742223023023,-0.15804190897183382
1729576389.323729,-0.3351095493152738,-0.6736009922487805,8.231071689830417,-0.04080713380285085,0.020259139689274737,0.0008275770360406247,0.9989612906444855,0.5971755738440545,0.8062973232695803,-0.11185274784158156
1729576389.3317084,-1.3608170137688518,-1.3417299654664558,8.615179083234187,-0.07693218522354874,0.07710473489333307,0.0059674462500088135,0.9940325388632969,0.72652724747109,0.9988633683308064,-0.03646196427968265
1729576389.3397267,-1.872572560556233,-1.8678240962232326,10.005634223622154,-0.09174893306007138,0.09045783049972153,0.008369464344415389,0.9916297021823266,0.9126892173201295,1.0786450302047315,-0.014640447522955055
1729576389.3477125,-1.9222492101618647,-2.0750232394722206,10.128350574456494,-0.10042311757105232,0.09131672962307487,0.009256374958949928,0.9907021610306884,1.0592929842694399,1.0473356758971486,-0.03943395293903931
1729576389.35571,-2.3705616501205564,-2.5038851765934886,10.536689777046943,-0.11568634316768243,0.10680501184315096,0.0125129486440866,0.9874476115551164,1.1966352915686216,0.9821498466132375,-0.1219947759611529
1729576389.3640668,-2.7626110794278023,-2.6390980541982807,11.289982311052384,-0.11374877623577317,0.1159211829292405,0.013364535030590211,0.9866331052912048,1.2909599976690675,0.9443154192272768,-0.20814061506015574
1729576389.3717089,-2.8300072006351975,-2.332125691649828,10.969827796055258,-0.10371571595744014,0.12260111735270951,0.012883956796674104,0.986937698106909,1.3113711661050624,0.8147665573687305,-0.3262357681076344
1729576389.3796992,-2.8998935537795556,-2.079707526806303,9.707526944967139,-0.10422094409603141,0.14083113981446316,0.014909853311791708,0.9844197687696605,1.2052760300802146,0.6821232223250007,-0.4464729070657173
1729576389.3877003,-2.671041157902499,-1.7671268561716722,8.681995848376767,-0.09911186668566177,0.14514677825602354,0.014614856373848673,0.98432497510586,1.078191129307463,0.5991317008070665,-0.5394740034522065
1729576389.3957038,-2.744898306802046,-1.8613759891912847,9.142631416496762,-0.09918773783418194,0.14185628806309736,0.014287550323936499,0.9848017323837515,0.9091397554450893,0.48718603892284934,-0.6195389947874359
1729576389.4037867,-2.8739673349113057,-0.6935307399991458,10.440618605757432,-0.03284853713945874,0.1335519446132085,0.004429118568835545,0.9904873722600058,0.8187768727256779,0.3638275536793309,-0.661618328728105
1729576389.4117146,-3.1735906658393613,-0.7671084073783937,11.203609188356802,-0.03383781096609508,0.13719561105927866,0.004689506492492201,0.9899547340075459,0.8220273013914052,0.18211287698332584,-0.6715410868798734
1729576389.4197094,-2.823288416837601,-0.8167616716243018,10.376435506910566,-0.038907305796495525,0.13194855339190076,0.005183110359714637,0.9904791447478547,0.8384510206805508,0.051799567892621225,-0.6770690517094724
1729576389.4277084,-2.426598758110373,-0.9655454526816123,9.510705981880713,-0.05015978457801216,0.12381606195263148,0.0062668836415186195,0.9910168035825897,0.8185069479516958,-0.031922388360807935,-0.6646352983331366
1729576389.4357457,-2.0051891157060675,-0.9264865123316236,9.327174759782725,-0.049197603643689226,0.10505324445532926,0.005203568532098805,0.9932352865759749,0.6788334858757734,-0.1315356092424611,-0.5707599638305427
1729576389.443723,-1.7827496913474685,-0.5568495880630366,9.172763295811041,-0.030166886086700553,0.09561719622839472,0.002899093963481768,0.9949567357545973,0.5264933087348329,-0.22918995724157382,-0.442067452680441
1729576389.4517264,-1.5966136002088718,-0.3788813238827438,8.585713774605766,-0.02195182814151408,0.09169198493228717,0.0020218171783134144,0.9955433739399405,0.35122826034224836,-0.3192836305892318,-0.1749941785783139
1729576389.4597063,-1.3793476523128232,-0.26084761757183383,8.37091123717557,-0.01552097771926679,0.08151619195251408,0.001269590643849257,0.9965503488734505,0.21456816675850732,-0.38738760662607363,0.08869247081823604
1729576389.467703,-1.3028576209287093,0.06471566285533722,8.408426730098311,0.0038363554833937548,0.07678364366296395,-0.00029544376139972614,0.9970403538249732,0.11809864851855359,-0.44229776427642575,0.2801082852502045
1729576389.4757018,-1.0829051414048818,-0.1833525163492977,8.61840201584219,-0.010613871503071606,0.06243946568259917,0.0006640578317799614,0.9979920930970264,0.016370861243992105,-0.5063192333533654,0.509468400442672
1729576389.4837034,-0.909035124637851,-0.397076288862313,8.34144304788422,-0.02374487127877019,0.054172110202324826,0.001288566814659719,0.9982484175593498,-0.0731870452387009,-0.5745304191018713,0.6981672769335964
1729576389.4917014,-0.7551531402123981,-0.4671314520283253,8.472627513300845,-0.027507529818400833,0.04434840276242866,0.0012215805118967172,0.9986366019312352,-0.17034217539744392,-0.6665399379264186,0.839056456823183
1729576389.4997363,0.016889901761233013,-0.1821166031505889,7.576898116867225,-0.012015276104165609,-0.0011141613958020981,-1.3387931528257541e-05,0.9999271931522254,-0.23672336466046834,-0.8030524509603951,0.9619020702885178
1729576389.5077372,0.08603013368369293,0.02648127224050603,7.938004362063695,0.0016679732211148292,-0.005418600344464986,9.038225531515869e-06,0.9999839281478233,-0.2616529260671119,-0.9309344854186803,1.0688132631617573
1729576389.515728,0.4861656815285751,0.07143424185992862,11.212542469533137,0.003184635374491739,-0.0216637323613495,6.900763374175607e-05,0.9997602392752244,-0.28767860450911087,-0.9927645539424803,1.0184493523524143
1729576389.523734,1.5728367172667543,0.12905180488158216,12.108972553253087,0.0053169846857334425,-0.06453408502694359,0.0003438483835018444,0.9979012793417373,-0.35352543882682996,-0.9749485771281583,0.9511959705196118
1729576389.531744,0.6382018985241151,1.668617506268793,13.39956760543818,0.06188741186650219,-0.0235666927296958,0.001461691787230034,0.997803799703814,-0.4394337561168229,-0.7284266969895996,1.0044957549415772
1729576389.53974,-0.541480121871859,2.0833496541519008,14.175361157745332,0.07288430242601761,0.01883599049573405,-0.0013767558585906997,0.9971615658784805,-0.4943842669825148,-0.28636173643620055,1.1062887956745295
1729576389.5477073,-1.0974969488555373,2.9163741479598904,13.86391885040892,0.10340108058386158,0.03843905362280875,-0.003999079426188395,0.9938886572722397,-0.5631125386647406,0.048690409975612026,1.1133019823086232
1729576389.5557027,-0.6252187662371506,2.9493195205142153,11.700400575382071,0.12310660383165907,0.025684401922659052,-0.0031872392258308433,0.99205590421963,-0.668628700954843,0.3463533417745807,0.9340374777989437
1729576389.5637028,-0.7809484411387747,2.6485031417518887,10.213626519545647,0.12643133541714646,0.036634230800388905,-0.004672422469014219,0.9912876570534771,-0.7396008194352209,0.5717770076147854,0.7421921429236538
1729576389.5717044,-0.725706322984046,2.730178396281602,9.12427986924692,0.14475060983888996,0.03761526057794653,-0.005506852320336118,0.9887375929438734,-0.7672849383722766,0.7002201661355159,0.4393556248937238
1729576389.5797017,-0.7229674131751932,2.3721692667728673,8.735231162514948,0.1320868798361261,0.03949110968661311,-0.005266621308114565,0.9904371616265586,-0.7655907370916426,0.7283317041798204,0.07630974789294037
1729576389.5877025,-1.1690397777391004,1.751067767339111,9.209049108885923,0.09362567715866546,0.06172167570458359,-0.005815514349036182,0.9936754234243975,-0.7509521343564772,0.730725164916694,-0.19132351549858737
1729576389.5957093,-1.859020369329007,1.3678723803741697,10.332268138427256,0.06549757846958723,0.08795030866223845,-0.0057955820476289594,0.9939523236300454,-0.6995999665691748,0.7066198376710964,-0.4072431815235681
1729576389.6037407,-2.1576082042634197,1.279691886476455,10.88936251513643,0.058170233741367865,0.0968325423075907,-0.005669149509444397,0.9935831839360824,-0.6585721044217046,0.6836428400944972,-0.5819181276535319
1729576389.611829,-2.2639771747553175,0.8956655005382168,10.224039948046702,0.04340881457769511,0.10824092863287403,-0.004730945275323523,0.9931652402004685,-0.6492802293458556,0.6834787235153226,-0.7659014467634482
1729576389.6197093,-2.2277209276559247,1.085910900664727,9.472180503251849,0.05665015981378352,0.11433045261933111,-0.006530356317313009,0.9918047496575627,-0.6611583968202894,0.6637985107405644,-0.9154549238839047
1729576389.6277063,-1.6821158561541019,1.152174107537508,8.862329266306578,0.06430573237470473,0.09269423622976503,-0.0059991787713807275,0.9935977864345322,-0.6836101395175829,0.6349627806172282,-1.0030585598488686
1729576389.6357388,-1.6779700373741016,1.2106068046103953,8.513896196258555,0.07022310032874517,0.09596232935995568,-0.006787085432482377,0.9928816057291839,-0.6915472143369525,0.6440541263538724,-0.9977268930690105
1729576389.6437101,-1.8715676620728983,1.5722355292994403,7.952170449688726,0.09678969327128756,0.11267207874530977,-0.011028515148508498,0.9888453518125471,-0.6941810089212642,0.6703677468074986,-0.9740947700509182
1729576389.6517162,-2.3700802420191294,1.4406170023941172,9.423475515662846,0.07519256986689442,0.12118907336358961,-0.009207032020607403,0.9897345687079229,-0.7430128824941367,0.7261707848571052,-0.9118125192948532
1729576389.659732,-2.3438157843716336,1.4531043896688922,10.786295988108643,0.06651428306501228,0.10561969990574929,-0.007080772099120833,0.9921543185445736,-0.8191379133986838,0.7341112039991473,-0.7718518640288646
1729576389.6677043,-2.147534304607355,1.6277120979126634,10.61805602792378,0.07559824233145622,0.09821360122776396,-0.00748267989398498,0.9922615601704383,-0.8997195169812986,0.7095028412434923,-0.6091228094987956
1729576389.6756983,-2.4844243120124596,1.2751842057690823,10.403148052789424,0.06051708968028411,0.11589420230933038,-0.007074483878886624,0.9913910264903348,-0.9919145554614567,0.662811068980447,-0.3122624280165234
1729576389.683735,-2.89245965922896,1.0457109580317618,10.655839012337717,0.048448847249015645,0.1313843950079426,-0.006428901381239977,0.9901260117660119,-1.038717777320311,0.610957362180746,-0.07412390046101362
1729576389.6917021,-2.9730386336721413,1.0351591175436663,10.910404259453411,0.04684847644948092,0.13191654806912115,-0.006241672956221507,0.9901334688407403,-1.0101829322611733,0.4810850438417341,0.13218703523013492
1729576389.6997085,-2.5315323586700815,0.7264403435730747,10.70951982251775,0.033621163104300265,0.11547885337091332,-0.003910953977342748,0.992733074020726,-0.9607095805545762,0.30014465796451534,0.390065966005364
1729576389.7077081,-2.2386164342450177,0.6561307588782199,10.173355752153228,0.032001749363939735,0.10781377114263173,-0.003472278777245261,0.9936498488248992,-0.9144236571335989,0.15624815133683542,0.620140465349281
1729576389.715739,-1.9553672250489638,0.6924748225144319,8.97466124181928,0.03826464241436195,0.10667081489253305,-0.004108221356248855,0.993549332901166,-0.8376977460128787,0.008185188448232891,0.8569452592148227
1729576389.7237399,-1.8325834722364096,0.640300429397331,8.298540165501723,0.03825824501627911,0.10806780328154256,-0.00416196019001691,0.9933983766191451,-0.7699520062058831,-0.10704537309557458,1.0152043578697048
1729576389.7317417,-1.8975374966719238,0.5884056592497268,7.784410184506113,0.037434391651683684,0.11885506291478072,-0.004484264139864009,0.9921955612258683,-0.665451053102381,-0.20853615469297349,1.0986661854031592
1729576389.7397404,-1.4784991337453417,0.5148914277763985,8.032344661729057,0.03186456349422406,0.09066168036665635,-0.0029023396298550053,0.9953676133625655,-0.5699723465077032,-0.37244761852522446,1.0410436963733378
1729576389.7477071,-1.3642638711163455,0.47054346872638597,8.1178984242347,0.028841437032239407,0.08298284449799392,-0.002402641174757493,0.9961306371878753,-0.5058740815675041,-0.5295397253063354,0.9302716819537413
1729576389.7557077,-1.0737802196424635,0.1331673178080972,7.955189053320116,0.00834938125350328,0.06702193677635938,-0.0005608725057717216,0.9977164092293269,-0.4371911282395804,-0.6829659079182244,0.748020776584311
1729576389.763705,-1.0960539850569626,-0.07189199456904793,7.594201248154179,-0.004720547737471363,0.07160367698464878,0.00033888223605236064,0.9974219343037161,-0.3781023736614208,-0.7988602609272315,0.6276022917646399
1729576389.7717083,-1.2829978646669902,0.1280502219597431,7.800663998404225,0.008178475663941828,0.08140301786398044,-0.0006679920520535393,0.9966474878336218,-0.3068911557517144,-0.9428926334884913,0.4821325103013677
1729576389.7797074,-1.0956495647474598,0.13979763683795524,7.893895867304253,0.00883186605847204,0.06888997996276387,-0.0006098999951116181,0.997584982256976,-0.2539478635308018,-1.1523364847877744,0.12581452257940046
1729576389.7877023,-0.6956969654109757,0.07813249811839813,7.267008675167708,0.005369238120987012,0.04769983326219192,-0.0002564073363378615,0.9988472513072443,-0.21494515715339974,-1.3137607607301547,-0.20461534689437655
1729576389.795708,-0.06259749321142914,0.43474016781635133,6.867892023948282,0.03160241462161318,0.004545740867825714,-0.00014372966514366564,0.999490171523377,-0.14429193650467298,-1.438710870352077,-0.5080187137597645
1729576389.8037078,0.6067211708211895,0.5584433670472326,6.6425478230115464,0.04187951644892962,-0.04532825984935554,0.0019019543450886907,0.9980920987217073,-0.08189257122672144,-1.5549728720870477,-0.7219874884886497
1729576389.811711,1.4119747691431044,1.173036601283027,7.091047667195601,0.08147775655877071,-0.0965133103839085,0.007927428245826753,0.991959531425701,-0.030830870093165503,-1.6323924942343466,-0.8422806421582022
1729576389.8197083,1.074873439366722,0.6454034402620037,8.523969000707984,0.037700220455528434,-0.06245649687035789,0.002360921233548337,0.9973325951893964,-0.012113171133968828,-1.3915034760358544,-0.8595425164313317
1729576389.8277109,1.1848165379852675,0.5988894909150146,9.68826425198729,0.030804611745588135,-0.06066385555053721,0.0018730700856746192,0.9976810432865812,-0.027701025630558814,-1.1337365087678588,-0.8758593018556778
1729576389.8357432,1.312073959656395,0.0693958735040869,12.03093968278417,0.0028795986805980316,-0.05428667829292859,0.0001565553570847561,0.9985212265954986,0.010623548555234733,-1.0135572233854862,-0.9145962972897035
1729576389.8437085,2.563502587463759,0.694775736993077,11.929634416359955,0.02891393771770302,-0.10541842481475686,0.003066451940659086,0.994002785100589,0.12471596621958561,-0.9793360676261833,-0.9455009156564356
1729576389.8518398,2.7014441391481774,-0.027019545597122524,12.735312837315972,-0.0010547847509379375,-0.10432156090585301,-0.00011064055110257115,0.9945430544315134,0.3110875638431789,-0.6638001615774136,-0.9338196923126706
1729576389.8597045,2.2833420828541406,-0.515163353334836,13.714559053707942,-0.018705364346834688,-0.08232366127050689,-0.0015454129156116036,0.9964288915113768,0.4301472534621894,-0.09008049244793725,-0.8395444957066951
1729576389.8677125,1.7944972040581877,-1.10325470267473,13.184493448582186,-0.041631137377021885,-0.06729529903847144,-0.0028104038967425504,0.9968602172611541,0.4977518566804374,0.2784156425330843,-0.7140175877862607
1729576389.875704,1.4468418990950689,-1.318203496653666,12.18314893169814,-0.05376700670949698,-0.05864316311404072,-0.0031631102155577195,0.996825001263133,0.5698156831595766,0.537399738991818,-0.4688511085106494
1729576389.8836975,1.0282772305214944,-1.0842118013613402,11.100628847544275,-0.0486084963520998,-0.04589625866416449,-0.002235955844512195,0.9977603660320856,0.639872452919168,0.7204600508620904,-0.26939134338545273
1729576389.8917048,0.8899053275707091,-0.6414291145082103,10.366840898614456,-0.030862934495896412,-0.042701078929328194,-0.0013197147256055934,0.9986102119874483,0.7304351817815946,0.833276068414488,-0.08032800429202361
1729576389.8997068,0.6005020026947692,-0.6508532731482856,9.767114298690156,-0.033247049483690075,-0.03061285640605373,-0.0010188286985046977,0.9989777018088916,0.7869012694063606,0.8933032578396101,0.057800022728831696
1729576389.9077094,0.38855278120670533,-0.6538741465061587,9.355563582876204,-0.034874150100571696,-0.020689415848387734,-0.0007221199022738933,0.9991772716937981,0.7807660562037892,0.8807909044880116,0.17515773391976946
1729576389.915711,-0.16526348752597683,-0.9690876678353357,8.704491913153456,-0.055406702167462796,0.009418957918582998,0.0005226996251273756,0.9984193043865668,0.7596316357623032,0.8328429366381596,0.27664773512106045
1729576389.92371,-0.6464725920273049,-1.165877225945342,8.312172970157699,-0.0695663146594693,0.03833156501400656,0.0026750468076546623,0.9968370293648072,0.7529106443578799,0.825784349062812,0.3639345196524809
1729576389.931719,-1.549071360392164,-1.6576858399617365,8.875247858022353,-0.0918471019792139,0.08449504238535754,0.007822020178199865,0.9921509530664415,0.776547903510258,0.9381882733582,0.4554700760258401
1729576389.9397118,-2.4571828955810013,-1.9465460840551667,9.339267218231381,-0.10171371819598432,0.12504805594989493,0.012888731502564383,0.9868389857692867,0.8107376918904005,1.0652272365401174,0.5069858893581594
1729576389.9477122,-2.7717276169872727,-2.287216926556147,9.734994715704453,-0.11403062407146194,0.1338846944740034,0.015510591013665996,0.9842922975040912,0.8882940331543981,1.1363423337117233,0.46254823647877136
1729576389.9557068,-2.802437140260723,-2.7329549594004847,9.774191316727359,-0.13461788581532297,0.13305487206955588,0.018244447734276324,0.9817543307589929,0.9910189260257849,1.0853595784930399,0.3469164219055739
1729576389.9637325,-2.977443642799012,-2.6834054793024,10.645974925534464,-0.12202051507503285,0.13102218410820396,0.01625218642579883,0.9837072977307431,1.0705328443300224,1.030931281919956,0.24348212824469298
1729576389.9717214,-3.1581043167829224,-2.2799409120931586,10.721329380369506,-0.10350473357322706,0.13903590715787295,0.014613661145557297,0.9847549073534213,1.1161127450052546,0.9076023208846931,0.07031644600657416
1729576389.9796975,-3.2985830234193627,-1.9890204579004265,9.847408035936548,-0.0981840442439851,0.15717725383988496,0.015706342042147457,0.9825520419554898,1.1089797904319694,0.7923130083017182,-0.09190250175659545
1729576389.987697,-3.1257329891004457,-1.7498247405605682,8.161149163602943,-0.1036487407798152,0.1772135733884131,0.01877118273746583,0.9785192540978971,1.0148794147195095,0.7112200990309965,-0.2709663622152073
1729576389.9957135,-3.1850681015657356,-1.809575031103919,8.965635219597312,-0.09796283996809951,0.16594093241051572,0.016568900414318657,0.9811179136450285,0.9354319259730839,0.6067989554170372,-0.4648197609671668
1729576390.003713,-3.1093387918476445,-0.7955677774514138,10.745984152998622,-0.03656209723194156,0.1399070161999124,0.0051697004859539986,0.989475878463404,0.9320351991172798,0.44921738554262863,-0.6245521864874697
1729576390.011714,-2.792398737755071,-0.8695108984044421,11.8309529246605,-0.036418286849299035,0.1152559706230158,0.004228466170655472,0.9926589997036003,1.0253517367712925,0.15033721411620832,-0.7314595833976643
1729576390.0197105,-2.983391609596402,-1.4192927414352432,11.741886454503332,-0.05963193539470922,0.12300854552949188,0.007404957352800427,0.9905847246017896,1.0834701096710102,-0.03282209929280215,-0.7887929805603885
1729576390.027711,-2.997430862974638,-1.3095864224490368,11.352061239157077,-0.05690404807110576,0.12770002993465496,0.0073389231399716695,0.9901518933350353,1.053636244068612,-0.029484130989308015,-0.8406463113779663
1729576390.0357454,-2.8274863913199386,-1.1760067240748908,10.153302840906354,-0.057077928440104876,0.13430801495476946,0.0077492182662591185,0.9892640784038191,0.9110087366987979,-0.04706309283446499,-0.8653729589465826
1729576390.043713,-2.409006248854463,-0.9881198303433719,9.126392888625844,-0.05343750528584325,0.12778213789137474,0.006894980535611765,0.9903376280381094,0.7875458168067886,-0.13508606112764893,-0.875952046873132
1729576390.051714,-1.835419199752131,-0.5741971252568043,8.72452796584152,-0.03267088263801408,0.10321782259503226,0.0033921759655042914,0.9941162847819226,0.6853725208150889,-0.3070930593129281,-0.8163175401024467
1729576390.0597339,-1.5393904236598726,-0.5729251135329888,8.563614767786163,-0.033258395160698145,0.08856991785158655,0.002958978646267764,0.995510167325512,0.6121492214991323,-0.43200745135865926,-0.7209402274353511
1729576390.0677125,-1.4637661487271734,-0.4936320920455745,8.269545211990057,-0.029688075514580185,0.08729343276032826,0.0026026698224073637,0.9957367628439527,0.525220545701893,-0.5175983381226488,-0.5734675468051431
1729576390.0757065,-1.23308037527146,-0.16186454209257908,8.35598682079755,-0.009657166199020946,0.07317310952415582,0.0007085777054811948,0.9972722462302888,0.4270888135856501,-0.5702299403654285,-0.4458204527725114
1729576390.0837097,-1.0733605164226416,0.0927414663948432,8.743279438669937,0.005293075825556994,0.061034208672421285,-0.00032366667389672565,0.9981215877636954,0.3422426805667204,-0.6179851240466535,-0.3317714709442736
1729576390.0917046,-0.7165606201563194,0.0032118634794840416,8.181737738885555,0.00019608773659615623,0.04366490508546541,-8.57032666520294e-06,0.9990462139160662,0.2602596262686343,-0.7109174335361553,-0.14712869506819629
1729576390.0997105,-0.3600256836172292,0.014616386886518552,7.723905535177037,0.0009459103835268825,0.02328692122963031,-2.203332539031999e-05,0.9997283751438307,0.2046844427678522,-0.7960494334707366,0.012185637464121699
1729576390.1077127,0.21589856932184998,0.32983227475886423,7.1015681318972375,0.02320095646866269,-0.015175063485574118,0.0003522113842206484,0.9996155806180138,0.1738934730361551,-0.8931031600693848,0.20696002130416585
1729576390.1157122,0.2703181992102975,1.1426513399529747,9.487961943591468,0.059885145732510865,-0.014113507660863894,0.0008467940231492737,0.9981051353249241,0.211184289248663,-0.9257939923408519,0.4391866582644029
1729576390.123711,-0.15336485928241528,1.35788263014366,12.658228056047458,0.05340560438048729,0.00601443076161723,-0.00032166920614278835,0.9985547378948689,0.21610548645622443,-0.904542245803377,0.5474472659538169
1729576390.1317134,0.537416700885629,2.0226043156350237,13.368554137095272,0.07499252499671831,-0.01980614351438536,0.0014898025784588352,0.9969862678903764,0.07134375345343633,-0.7717466005485991,0.5872879169412053
1729576390.1397467,-0.18871203391198196,2.8504782644298428,14.286279386554039,0.09830847580735887,0.006445210640575506,-0.000636716514814727,0.995134914188178,-0.06531902353929425,-0.5847953179073004,0.6597209745403101
1729576390.1477134,-1.4058566966655486,3.613437858316109,15.120148592625782,0.1168983770115354,0.04476860745766789,-0.005274942446284942,0.9921203133796619,-0.19925087723330043,-0.22827845304331512,0.7606489673971472
1729576390.15571,-1.1973770233704228,3.9689812037591965,13.42379009307547,0.14310859341785204,0.042212199104687764,-0.006109430379372479,0.9887875078079971,-0.40050596690492113,0.09545970173228016,0.6462471478503544
1729576390.1637435,-0.8970336578699099,3.7432106265523934,11.66401189886286,0.15453782556847762,0.03610089928226177,-0.00565065609516698,0.9873109214554819,-0.5783014889438058,0.3463193727720876,0.4741633711870051
1729576390.1717107,-0.8765208893020241,3.2608284596716706,10.011988768956387,0.15663880126119428,0.041000657513808554,-0.00650831361555801,0.9867830936314085,-0.7560690424312959,0.5870814684259227,0.2683218003766458
1729576390.1797056,-1.0148085125851207,3.031254201047143,8.551750785787894,0.1692253137622536,0.054858505637014145,-0.009434357615763908,0.9840042329368905,-0.8955077092563664,0.723024924588983,0.09117991014621431
1729576390.1877,-1.3383983534006816,2.6864112022689106,8.061553303503985,0.15963100694766974,0.07702566411741035,-0.012494498791883754,0.9840878396708723,-1.011949044083985,0.759893541833306,-0.14919759335258456
1729576390.1957073,-1.788731835526737,2.128036599291034,8.498863421311375,0.1217201031056746,0.09977303329010746,-0.012298601820321574,0.9874605322347321,-1.053718300924062,0.771372460643349,-0.3415270723970734
1729576390.2037392,-2.103942916013308,1.922777567484777,9.20561332012081,0.10212557884256977,0.10924557751961414,-0.0112843913597857,0.9886902611283855,-1.04557603023407,0.7684689405157481,-0.47267529209786197
1729576390.2117765,-2.3004915894517346,1.6135926794068818,9.85447879529514,0.08052139400437364,0.11260056280257712,-0.009155285476103923,0.9903300455464261,-0.9819454393383142,0.7352257638909971,-0.6126635927688676
1729576390.2197154,-2.510597557430806,1.1728598495874885,10.183703618729819,0.05687131421432198,0.11960692906823883,-0.0068628200561942,0.9911673611652461,-0.9267394823423796,0.6901641442898868,-0.7221979768591928
1729576390.2277148,-2.2792068303569213,0.975697218346243,9.716368711765234,0.04967837131195357,0.11425351637553571,-0.005720593553563101,0.9921922536630751,-0.857006562859084,0.5839488210972827,-0.7981351687884768
1729576390.2357478,-2.3424430142297776,1.2009675778339177,9.357916793465389,0.06328523040320796,0.12113280221840103,-0.00773876490587935,0.9905866622144991,-0.8032474894481698,0.49510391355546035,-0.801979857922768
1729576390.2437146,-2.44119744672146,1.1714087193077725,8.950351829008921,0.0644336478241547,0.1314000565714343,-0.008559055506644583,0.9891961750481705,-0.7752489460162416,0.45967595161177227,-0.7821507882073171
1729576390.2517197,-2.327588746353189,1.1828826644459915,8.70629169066707,0.06687956848848764,0.12882612257596768,-0.008708396409961024,0.9893710715867947,-0.7541929193424644,0.5005699234190161,-0.7515229836737172
1729576390.259736,-2.6544668000580067,1.4351727016949385,9.330788542232273,0.07548836086134705,0.13622455675841555,-0.010410977136603371,0.9877428759882307,-0.7304913617401851,0.5621413418505591,-0.7246324997243165
1729576390.2677155,-2.6693525666070697,1.5008343046107129,10.645450224948739,0.06943410841220676,0.12108925932399234,-0.008491160420523686,0.9901738211344925,-0.7277640588382925,0.6173888655523523,-0.6982816478795875
1729576390.2757127,-2.5798823383040856,1.3841293181179903,10.75620932442237,0.06349210166752704,0.11627047311414221,-0.00744811187267365,0.9911581386121925,-0.8121170695124873,0.5526286656371608,-0.601164335033502
1729576390.28371,-2.2561342540566702,1.0921638323258722,10.373033712329203,0.052117755432387204,0.10616384263323939,-0.005572214879160338,0.9929662272743093,-0.8989125311412769,0.47375767991061507,-0.45349903441882405
1729576390.2917018,-2.0774477142992365,1.1865716477841952,10.454853401225646,0.05619653003282082,0.097156430475413,-0.005494656679677371,0.9936661344624356,-0.9888762235886716,0.39195419349626304,-0.13630429104490638
1729576390.2997096,-2.3956854254545417,0.8974936173326264,10.609290087610388,0.04191589084709939,0.11033633564380226,-0.004657452047906969,0.9929991234999221,-1.0432801291185703,0.3203105283901641,0.1297853859196859
1729576390.3077145,-2.438187549218038,1.0850924094132477,10.661250671218577,0.05036330288155597,0.11147968666187198,-0.0056570626315113745,0.9924735839441847,-1.0231369048152177,0.1845238959277819,0.2941217827745236
1729576390.3157144,-2.0712791713765255,0.5938340259702142,10.020853455709661,0.029431695963074683,0.1015197803316264,-0.003004745340984814,0.9943935242043721,-0.9374065896002746,-0.0012421486078451754,0.45359729967649676
1729576390.3237138,-1.7084397257263058,0.6886156060118159,9.315552683777359,0.03672813676599084,0.09026430485952043,-0.0033311131614467177,0.995234797885922,-0.8497847452470361,-0.1539937112910385,0.609304908483827
1729576390.3317144,-1.4660757812365646,0.7134022517906833,8.317524402014461,0.042599693625224824,0.08673412478650888,-0.003712245113476509,0.9953133561531126,-0.7261213983709337,-0.2958760761534742,0.807023538826423
1729576390.3397505,-1.5751610510173293,0.7005015000001913,7.4833574097633635,0.046392179426745374,0.10299551332039536,-0.0048090231226548645,0.9935877229618483,-0.6417068287701835,-0.38696515593140407,0.9643925126250255
1729576390.3477159,-1.5572939951123506,0.7126329227051929,7.5318476550865325,0.04689743178660434,0.10121635149328721,-0.004776655451375359,0.9937469822066918,-0.5684965137522457,-0.46460586711711166,1.0783956397314403
1729576390.3557034,-1.2458620330537382,0.7175175746680377,8.061569369419107,0.044236245321335174,0.07621865159896338,-0.003384815509549622,0.9961036164838841,-0.47561596767334946,-0.6397486923900697,1.1195533520617191
1729576390.3637133,-1.0815083514240398,0.5554878714609789,8.367670809883887,0.033066935869096314,0.06404919163923177,-0.0021234388945080653,0.9973964957878343,-0.40456279781337856,-0.8065594464658392,1.124666236632633
1729576390.3717155,-0.8782695298973926,0.4558758478765873,7.870899562346347,0.02887694599646579,0.05541851813816801,-0.0016034534985614043,0.9980442569215879,-0.34022070276283234,-0.9913582211422453,1.0617520078485665
1729576390.3797123,-0.5145118693056231,0.5064813302591555,7.431818336040621,0.033994994313379844,0.034453825441912715,-0.0011726327910695506,0.9988272619459226,-0.2850135333354854,-1.1477863225245262,0.9827115346163096
1729576390.3877115,-0.42243170044079564,0.22200710137814955,7.908177913245466,0.014027214547816818,0.026666898972662452,-0.00037423225816797057,0.9995458837399254,-0.22890196836012752,-1.3621134707476497,0.8714337414576507
1729576390.3957033,-0.03438956836018053,0.3278528557975929,7.6378206139140765,0.021447592699369345,0.002248662783817459,-4.8239621922108874e-05,0.9997674439368516,-0.18203863746958981,-1.6167140178742851,0.7233602638232073
1729576390.4037125,0.4359405155756886,0.5759532564473057,7.053508481629696,0.04070574618466124,-0.030730644412532915,0.0012525449978461202,0.9986977024368129,-0.15434632899672923,-1.832902165308109,0.5808792294983253
1729576390.411744,1.260185821796585,1.1545726948351802,7.28447278551102,0.07822181569572069,-0.08425279411324224,0.006634544371234863,0.9933472691130542,-0.11942627127014553,-1.9528241823547767,0.44686194189672446
1729576390.4197142,1.6106020655877165,0.9280936400944676,8.061584950603487,0.05699315462270122,-0.09764788348863271,0.005601265922135951,0.9935719888344341,-0.08825767515910656,-1.8527986077521166,0.3383560252792699
1729576390.4277165,1.2620451443819267,0.948547575658243,10.110180126856234,0.04666360417193472,-0.06171771234333801,0.0028886424941896457,0.9969980379987369,-0.06913082743102113,-1.4181760089039326,0.14128855625556733
1729576390.4357495,2.1987759062092342,-0.001409710220288549,10.441032769717255,-6.713008986851137e-05,-0.1035923660769619,-6.991781780688719e-06,0.9946198354825037,-0.0687226603921827,-1.142077607382389,-0.13616000814545404
1729576390.4437194,3.0390205962157752,0.4001829519439987,11.04560095699637,0.017936642603975143,-0.1337375299051943,0.002420950348369227,0.9908514969188699,-0.031442724821682894,-1.0074939409561914,-0.32178519955185825
1729576390.4517224,3.48786135187009,0.646884633226946,11.852705697488837,0.02696859818005355,-0.14235460530240454,0.0038800752094767764,0.9894406531357847,0.19908767657555043,-0.8390515884392942,-0.3105615766946357
1729576390.4597387,3.7909240486708824,0.11231874868616762,12.520843229284317,0.004434736316092291,-0.14646182813723144,0.000656606895311117,0.9892061639920628,0.3880630347278722,-0.5664330821599571,-0.2842456601530487
1729576390.4678473,2.5678441325716697,-0.5833527620187682,13.839662664865513,-0.02096937672204112,-0.09149997404248593,-0.0019272110630303599,0.9955824053525816,0.4252497286175616,0.01303721165604993,-0.33571513993909746
1729576390.4757001,2.104062130177767,-0.5650109662932922,12.167320817913447,-0.02311138289882928,-0.08539934515284385,-0.001981470772622086,0.9960767488509841,0.4160606804031849,0.31644762155360284,-0.43002464696856946
1729576390.4837036,2.0125406582336134,-0.7505698451568347,10.246457633570333,-0.03637455573224624,-0.09650429146335301,-0.003529141299193374,0.9946614291235627,0.43438589491643265,0.4563505514073935,-0.4619203276214548
1729576390.4916985,1.901364036053449,0.013175534312149276,9.968781009585559,0.0006577877489152496,-0.09409459463746311,6.217011778960183e-05,0.9955630420571895,0.5143428135812305,0.6147880700755234,-0.38570316224569096
1729576390.4997025,1.666585106202382,0.15036031936658642,10.026272310585318,0.007471244209794254,-0.08225345992735277,0.0006166426015556735,0.9965832471960578,0.5763647368083562,0.732837844595351,-0.2982552369969535
1729576390.5077124,1.1256466508796323,-0.1611749826964544,10.26786553478869,-0.007835628353938435,-0.054560571759924854,-0.0004281673375611508,0.9984796260366359,0.5999558087778466,0.7704638845132091,-0.18235866268986836
1729576390.5157173,0.7606215696293419,-0.4543987176452164,9.780273390697433,-0.023193451609188395,-0.03874558262914238,-0.0008995618017503205,0.9989794964951709,0.5783524867967302,0.7364227302894738,-0.12303727958070602
1729576390.5237157,0.4228541185354176,-0.44645827111447356,9.213821434320803,-0.02419973595190417,-0.022895091084637074,-0.0005543629489124372,0.9994447860016107,0.5602822128705159,0.7304714998449418,-0.09340411057567707
1729576390.5317187,-0.35417533039242133,-0.9243650578835277,8.749930614498732,-0.052590725866500265,0.02008668803127075,0.001058052048254903,0.9984135521128668,0.6162733881643263,0.841837078172971,-0.038163483764000916
1729576390.539751,-1.122301829094828,-1.1148622232066792,8.481172929246114,-0.06516000641321071,0.0650420506246368,0.004256256182127462,0.9957437368610885,0.7013765907775185,0.9661245834671628,0.013285564965872135
1729576390.5477126,-1.874073230025256,-1.872003668152523,9.407125291971496,-0.09758353995430176,0.09586453721705965,0.009444004063866505,0.9905545184498367,0.8320425538388335,1.1241323386902362,0.042026543896485816
1729576390.5557039,-2.4467615149194506,-2.650702860071201,10.41184894105204,-0.12351136439032759,0.11085731830238414,0.013886073470044837,0.9860338608835034,0.9530111378218258,1.2806620507360746,0.06650786229970855
1729576390.5637121,-2.6407368820962014,-2.6572779758083453,10.502563395392944,-0.12266998942439607,0.11834852412684885,0.014735072143958753,0.9852555902812872,1.0434712707930265,1.3690459071645713,0.08417648377187642
1729576390.571712,-3.1528836368260804,-2.895854807945945,10.635282462284595,-0.13119187229465848,0.13762700522729673,0.018394274701892484,0.9815850196158146,1.1220116840790826,1.351411670818972,0.06625642253722103
1729576390.5796978,-3.6265687050448667,-2.6487460366230358,11.166460335525054,-0.11477148755498186,0.15140926138459,0.01770273852720889,0.9816258728558589,1.1665817916819443,1.2880455613903208,0.021874870940927285
1729576390.5876966,-3.612941059452701,-2.3537162120617117,10.774089166402923,-0.10593423486710153,0.15672528704313524,0.016910359811245987,0.9817989417469458,1.163099861879857,1.0963517835453365,-0.11671054618136327
1729576390.5957382,-3.38928632268334,-2.2214698883698394,8.98195654549605,-0.11899341332249197,0.1733830387088096,0.02110824213016013,0.9774115466824281,1.0801295923208185,0.8970488846688636,-0.28925670936176423
1729576390.6037178,-3.3475096647037534,-1.7209820221332317,7.830062519826926,-0.10576703426499903,0.1953399808368364,0.021194954661606008,0.9747853098228056,0.9869270443162683,0.7710817944210494,-0.421731331449423
1729576390.6117609,-3.383016971917955,-1.4862904278795483,8.075537793878578,-0.0890744902321846,0.19336154866979807,0.0176305529785708,0.9769166854382023,0.8854566789371008,0.6158974987789609,-0.5752861753964118
1729576390.6197512,-3.5953786487269452,-0.8278490724015571,9.711298130428709,-0.04181700072138699,0.17562417823147194,0.007466979842712938,0.9835404062280392,0.8424534422910056,0.46021048235878925,-0.6882778947762446
1729576390.627717,-3.2808260283474953,-0.8043643567710124,11.361215435874412,-0.03497188616856599,0.13968400080911797,0.004936520356121541,0.9895660553305903,0.8975326119811344,0.20546173921257632,-0.7296801425934982
1729576390.635762,-3.196242228336622,-1.5341519832032324,11.21248350957152,-0.06726873716897068,0.13687929974314705,0.009317107165511892,0.9882571354741558,0.946330646069307,-0.0005987643579054014,-0.7183378360595778
1729576390.6437168,-2.9513221936914262,-1.287761724589908,10.973606750030022,-0.0578579131571453,0.12991821789542352,0.00759421187001596,0.9898060650905564,0.915587167856064,-0.06548983801843407,-0.6578955043950095
1729576390.651966,-2.5417262507851683,-1.0108800999394918,9.657600721160591,-0.051678279740246864,0.12748246929880705,0.006651454636211721,0.9904712684251825,0.7596431910758821,-0.11634380393568816,-0.5718243682052109
1729576390.659729,-2.311530995832429,-0.7839384029812732,9.307333108477605,-0.04168106512289237,0.1208985702679367,0.005080965054222962,0.9917763902773183,0.6154196876937911,-0.21581797344288972,-0.4682474989929638
1729576390.6677084,-2.022818558436957,-0.519444175821967,8.2649480437975,-0.03114394849572202,0.11944168869268482,0.003748579121743684,0.9923455474928597,0.4803569186578649,-0.41938571592137736,-0.2571098559539045
1729576390.6756968,-1.8139174912633462,-0.4036038492431802,8.16528368955975,-0.02453897609254569,0.10892103354455833,0.002689637449259384,0.9937438366874565,0.3891026957612204,-0.5768586365098185,-0.0665737609111642
1729576390.6837027,-1.2559446109689452,-0.1674632177490331,8.2587139832671,-0.010107010738629693,0.07536867960673896,0.000763964326266107,0.9971042206443488,0.2790104540331696,-0.6981608627349912,0.15459610154144993
