seq,secs,nsecs,orientation_x,orientation_y,orientation_z,orientation_w,orientation_covariance_0,orientation_covariance_1,orientation_covariance_2,orientation_covariance_3,orientation_covariance_4,orientation_covariance_5,orientation_covariance_6,orientation_covariance_7,orientation_covariance_8,angular_velocity_x,angular_velocity_y,angular_velocity_z,angular_velocity_covariance_0,angular_velocity_covariance_1,angular_velocity_covariance_2,angular_velocity_covariance_3,angular_velocity_covariance_4,angular_velocity_covariance_5,angular_velocity_covariance_6,angular_velocity_covariance_7,angular_velocity_covariance_8,linear_acceleration_x,linear_acceleration_y,linear_acceleration_z,linear_acceleration_covariance_0,linear_acceleration_covariance_1,linear_acceleration_covariance_2,linear_acceleration_covariance_3,linear_acceleration_covariance_4,linear_acceleration_covariance_5,linear_acceleration_covariance_6,linear_acceleration_covariance_7,linear_acceleration_covariance_8
120577,1729051189,248872490,0.01114856448716083,0.011028708238082642,-0.00012296938735583253,0.9998770234298839,0.0,0.0,0.0,0.0,0.0,0.0,0.0,0.0,0.0,-0.00689576982428051,-5e-324,6.2246335543581755e-06,0.0,0.0,0.0,0.0,0.0,0.0,0.0,0.0,0.0,-0.2179457624776919,0.22026067202651667,9.87596517440356,0.0,0.0,0.0,0.0,0.0,0.0,0.0,0.0,0.0
120578,1729051189,256893706,0.011001706117371697,0.010698702571565633,-0.00011771784442433524,0.9998822362500003,0.0,0.0,0.0,0.0,0.0,0.0,0.0,0.0,0.0,-0.007117292324802528,-5e-324,3.734780132614905e-06,0.0,0.0,0.0,0.0,0.0,0.0,0.0,0.0,0.0,-0.21145205343388077,0.2173899823174725,9.877448364896043,0.0,0.0,0.0,0.0,0.0,0.0,0.0,0.0,0.0
120579,1729051189,264815528,0.010735681656324991,0.01061339684644879,-0.00011395503643806496,0.9998860374867745,0.0,0.0,0.0,0.0,0.0,0.0,0.0,0.0,0.0,-0.006824515763653706,-5e-324,2.240868079568943e-06,0.0,0.0,0.0,0.0,0.0,0.0,0.0,0.0,0.0,-0.2094711893357191,0.21183684583579598,9.86373364906458,0.0,0.0,0.0,0.0,0.0,0.0,0.0,0.0,0.0
120580,1729051189,272855430,0.010605202054563525,0.010615823987572142,-0.00011259563614751611,0.9998874043074397,0.0,0.0,0.0,0.0,0.0,0.0,0.0,0.0,0.0,-0.006223159765502381,-5e-324,1.3445208477413657e-06,0.0,0.0,0.0,0.0,0.0,0.0,0.0,0.0,0.0,-0.20971919187291582,0.20946264461085257,9.873221911850857,0.0,0.0,0.0,0.0,0.0,0.0,0.0,0.0,0.0
120581,1729051189,280795587,0.011141135850091794,0.010577844895718455,-0.00011786311739763262,0.9998819782342402,0.0,0.0,0.0,0.0,0.0,0.0,0.0,0.0,0.0,-0.006288036228073618,-5e-324,8.067125086448194e-07,0.0,0.0,0.0,0.0,0.0,0.0,0.0,0.0,0.0,-0.2093891530632026,0.22048797250869903,9.89280123915153,0.0,0.0,0.0,0.0,0.0,0.0,0.0,0.0,0.0
120582,1729051189,288779089,0.010850723403242899,0.011564951316168538,-0.00012550387113650127,0.9998742410680751,0.0,0.0,0.0,0.0,0.0,0.0,0.0,0.0,0.0,-0.0067526521670783915,-5e-324,4.840275051868917e-07,0.0,0.0,0.0,0.0,0.0,0.0,0.0,0.0,0.0,-0.2285841632246403,0.2144139004485788,9.877733776938182,0.0,0.0,0.0,0.0,0.0,0.0,0.0,0.0,0.0
120583,1729051189,296856014,0.010623229983723701,0.011717542952228745,-0.0001244937268556537,0.9998749075125286,0.0,0.0,0.0,0.0,0.0,0.0,0.0,0.0,0.0,-0.007031421730481257,-5e-324,2.90416503112135e-07,0.0,0.0,0.0,0.0,0.0,0.0,0.0,0.0,0.0,-0.23148204334494044,0.20981177654844416,9.87276344243244,0.0,0.0,0.0,0.0,0.0,0.0,0.0,0.0,0.0
120584,1729051189,304853166,0.010226162787722438,0.011086825012237728,-0.00011338857633908445,0.9998862410538599,0.0,0.0,0.0,0.0,0.0,0.0,0.0,0.0,0.0,-0.006772993407060944,-5e-324,1.7424990186728098e-07,0.0,0.0,0.0,0.0,0.0,0.0,0.0,0.0,0.0,-0.21933440178821423,0.20226209888805086,9.887258913848134,0.0,0.0,0.0,0.0,0.0,0.0,0.0,0.0,0.0
120585,1729051189,312799905,0.010527021786298364,0.011090622193909128,-0.0001167648740396102,0.999883076303238,0.0,0.0,0.0,0.0,0.0,0.0,0.0,0.0,0.0,-0.007043626474470788,-5e-324,1.0454994112036859e-07,0.0,0.0,0.0,0.0,0.0,0.0,0.0,0.0,0.0,-0.21946784200066294,0.2082667795965024,9.889731272381146,0.0,0.0,0.0,0.0,0.0,0.0,0.0,0.0,0.0
120586,1729051189,320912397,0.009762713858936473,0.011226859334425887,-0.00010961674854207006,0.9998893113898968,0.0,0.0,0.0,0.0,0.0,0.0,0.0,0.0,0.0,-0.007206006314916694,-5e-324,6.272996467222114e-08,0.0,0.0,0.0,0.0,0.0,0.0,0.0,0.0,0.0,-0.2219421077882884,0.19295539490633892,9.880201359864236,0.0,0.0,0.0,0.0,0.0,0.0,0.0,0.0,0.0
120587,1729051189,328846453,0.010094840159894456,0.011093215479045892,-0.0001119968362281811,0.9998875047870087,0.0,0.0,0.0,0.0,0.0,0.0,0.0,0.0,0.0,-0.006877744157722206,-5e-324,3.7637978803332687e-08,0.0,0.0,0.0,0.0,0.0,0.0,0.0,0.0,0.0,-0.21935652443859802,0.1995702950492721,9.88262369799862,0.0,0.0,0.0,0.0,0.0,0.0,0.0,0.0,0.0
120588,1729051189,336800853,0.010864764012133338,0.011208243929872368,-0.00012178976521968582,0.9998781512455517,0.0,0.0,0.0,0.0,0.0,0.0,0.0,0.0,0.0,-0.006680786863405513,-5e-324,2.258278728199961e-08,0.0,0.0,0.0,0.0,0.0,0.0,0.0,0.0,0.0,-0.2216358970850338,0.2147919829377664,9.882401159717139,0.0,0.0,0.0,0.0,0.0,0.0,0.0,0.0,0.0
120589,1729051189,344923953,0.011225718442136325,0.010643308923055988,-0.00011949308812709402,0.9998803373114346,0.0,0.0,0.0,0.0,0.0,0.0,0.0,0.0,0.0,-0.0061369224253534655,-5e-324,1.3549672369199766e-08,0.0,0.0,0.0,0.0,0.0,0.0,0.0,0.0,0.0,-0.21031425187406716,0.22177021417672238,9.8753244519338,0.0,0.0,0.0,0.0,0.0,0.0,0.0,0.0,0.0
120590,1729051189,352844636,0.011639896729264347,0.009761375812408808,-0.00011363451969528734,0.9998846010583305,0.0,0.0,0.0,0.0,0.0,0.0,0.0,0.0,0.0,-0.005810603762522237,-5e-324,8.129803421519859e-09,0.0,0.0,0.0,0.0,0.0,0.0,0.0,0.0,0.0,-0.19274735727678405,0.2297878755763459,9.868205385271606,0.0,0.0,0.0,0.0,0.0,0.0,0.0,0.0,0.0
120591,1729051189,360895746,0.011006653920338538,0.010326762954950532,-0.00011367605448135466,0.9998860928196296,0.0,0.0,0.0,0.0,0.0,0.0,0.0,0.0,0.0,-0.006466192687747564,-5e-324,4.877882052911915e-09,0.0,0.0,0.0,0.0,0.0,0.0,0.0,0.0,0.0,-0.20375503545982043,0.21712080029697942,9.860821483116087,0.0,0.0,0.0,0.0,0.0,0.0,0.0,0.0,0.0
120592,1729051189,368858031,0.010730908884408485,0.010952704566686238,-0.0001175462947656144,0.9998824291085717,0.0,0.0,0.0,0.0,0.0,0.0,0.0,0.0,0.0,-0.006859546042882759,-5e-324,0.0017027631725773582,0.0,0.0,0.0,0.0,0.0,0.0,0.0,0.0,0.0,-0.2163451465200329,0.2119147567895158,9.871714032447777,0.0,0.0,0.0,0.0,0.0,0.0,0.0,0.0,0.0
120593,1729051189,376810020,0.010340923947618937,0.010279326005930355,-0.00010630903027170917,0.999893689072575,0.0,0.0,0.0,0.0,0.0,0.0,0.0,0.0,0.0,-0.006669867994501845,-5e-324,0.002724418149394541,0.0,0.0,0.0,0.0,0.0,0.0,0.0,0.0,0.0,-0.20283023854678536,0.2040027273647251,9.861729570591713,0.0,0.0,0.0,0.0,0.0,0.0,0.0,0.0,0.0
120594,1729051189,384854854,0.01087336597499108,0.010532022435160621,-0.00011453165856748432,0.9998854100837248,0.0,0.0,0.0,0.0,0.0,0.0,0.0,0.0,0.0,-0.006556061165473297,-5e-324,0.0016346508896367246,0.0,0.0,0.0,0.0,0.0,0.0,0.0,0.0,0.0,-0.2078894028936962,0.21457840033485068,9.864836859786667,0.0,0.0,0.0,0.0,0.0,0.0,0.0,0.0,0.0
120595,1729051189,392775007,0.011063265994157852,0.010978561280568127,-0.0001214734999270514,0.9998785229126287,0.0,0.0,0.0,0.0,0.0,0.0,0.0,0.0,0.0,-0.0069134671295181995,-5e-324,0.0009807905337820347,0.0,0.0,0.0,0.0,0.0,0.0,0.0,0.0,0.0,-0.21667098548621774,0.21829018229075417,9.863109930813406,0.0,0.0,0.0,0.0,0.0,0.0,0.0,0.0,0.0
120596,1729051189,400815801,0.011212067076129564,0.010674950096877623,-0.00011970260250035447,0.9998801531501645,0.0,0.0,0.0,0.0,0.0,0.0,0.0,0.0,0.0,-0.007127910707945141,-5e-324,0.0005884743202692208,0.0,0.0,0.0,0.0,0.0,0.0,0.0,0.0,0.0,-0.21068718723899627,0.22123551196234312,9.863510294425543,0.0,0.0,0.0,0.0,0.0,0.0,0.0,0.0,0.0
120597,1729051189,408778771,0.010892873706966158,0.010885041275316238,-0.00011858344194347415,0.999881416527383,0.0,0.0,0.0,0.0,0.0,0.0,0.0,0.0,0.0,-0.0072565768550013066,-5e-324,0.00035308459216153246,0.0,0.0,0.0,0.0,0.0,0.0,0.0,0.0,0.0,-0.21475835360316337,0.21486242412076523,9.86015921010259,0.0,0.0,0.0,0.0,0.0,0.0,0.0,0.0,0.0
120598,1729051189,416795768,0.011100114408710374,0.01105784467641316,-0.0001227584107590152,0.9998772406958758,0.0,0.0,0.0,0.0,0.0,0.0,0.0,0.0,0.0,-0.007333776543235006,-5e-324,0.00021185075529691946,0.0,0.0,0.0,0.0,0.0,0.0,0.0,0.0,0.0,-0.21815873408572617,0.21893943689433415,9.859585080504912,0.0,0.0,0.0,0.0,0.0,0.0,0.0,0.0,0.0
120599,1729051189,424842580,0.011401261697440056,0.010853130775941596,-0.00012375471803418618,0.999876095058201,0.0,0.0,0.0,0.0,0.0,0.0,0.0,0.0,0.0,-0.007380096356175224,-5e-324,0.00012711045317815168,0.0,0.0,0.0,0.0,0.0,0.0,0.0,0.0,0.0,-0.2142134582248732,0.22497694704870982,9.863789585900603,0.0,0.0,0.0,0.0,0.0,0.0,0.0,0.0,0.0
120600,1729051189,432830732,0.010487928115029476,0.010946599838714188,-0.0001148203480026818,0.9998850744621167,0.0,0.0,0.0,0.0,0.0,0.0,0.0,0.0,0.0,-0.007407888243939356,-5e-324,7.626627190689101e-05,0.0,0.0,0.0,0.0,0.0,0.0,0.0,0.0,0.0,-0.2161558556966427,0.20705163819992903,9.868706490798173,0.0,0.0,0.0,0.0,0.0,0.0,0.0,0.0,0.0
120601,1729051189,440843393,0.010385231413356547,0.011168212568143845,-0.0001159979630780005,0.9998836955071306,0.0,0.0,0.0,0.0,0.0,0.0,0.0,0.0,0.0,-0.006998873315135803,-5e-324,4.57597631441346e-05,0.0,0.0,0.0,0.0,0.0,0.0,0.0,0.0,0.0,-0.22067317650392312,0.2051549990332387,9.875008516060936,0.0,0.0,0.0,0.0,0.0,0.0,0.0,0.0,0.0
120602,1729051189,448901010,0.00973217565956663,0.011337999054048727,-0.00011035571909225403,0.9998883549456894,0.0,0.0,0.0,0.0,0.0,0.0,0.0,0.0,0.0,-0.007179154419315702,-5e-324,2.745585788648076e-05,0.0,0.0,0.0,0.0,0.0,0.0,0.0,0.0,0.0,-0.22434124965235386,0.19252484756447447,9.889084798357263,0.0,0.0,0.0,0.0,0.0,0.0,0.0,0.0,0.0
120603,1729051189,456899676,0.010491271911648127,0.01060665289179799,-0.0001112896656907981,0.9998887036779238,0.0,0.0,0.0,0.0,0.0,0.0,0.0,0.0,0.0,-0.007287323081823642,-5e-324,1.6473514731888456e-05,0.0,0.0,0.0,0.0,0.0,0.0,0.0,0.0,0.0,-0.21002210208633418,0.2076916724547003,9.896094046738966,0.0,0.0,0.0,0.0,0.0,0.0,0.0,0.0,0.0
120604,1729051189,464873161,0.01121561290022048,0.01076319684397887,-0.00012073043756506742,0.9998791672222858,0.0,0.0,0.0,0.0,0.0,0.0,0.0,0.0,0.0,-0.006075154094942312,-5e-324,9.884108839133073e-06,0.0,0.0,0.0,0.0,0.0,0.0,0.0,0.0,0.0,-0.21292278151547236,0.22181959087516392,9.886413226139084,0.0,0.0,0.0,0.0,0.0,0.0,0.0,0.0,0.0
120605,1729051189,472915619,0.010881245808964973,0.010608923056922254,-0.00011545163291123723,0.9998845112872474,0.0,0.0,0.0,0.0,0.0,0.0,0.0,0.0,0.0,-0.005773542764275545,-5e-324,5.9304653034798436e-06,0.0,0.0,0.0,0.0,0.0,0.0,0.0,0.0,0.0,-0.2098747858526428,0.21521287146845772,9.886829658095559,0.0,0.0,0.0,0.0,0.0,0.0,0.0,0.0,0.0
120606,1729051189,480927195,0.010557066139131916,0.010538073010721535,-0.00011126351334265817,0.9998887363062879,0.0,0.0,0.0,0.0,0.0,0.0,0.0,0.0,0.0,-0.006443956088799548,-5e-324,3.558279182087906e-06,0.0,0.0,0.0,0.0,0.0,0.0,0.0,0.0,0.0,-0.20852482878697629,0.20885463816427777,9.889473718929603,0.0,0.0,0.0,0.0,0.0,0.0,0.0,0.0,0.0
120607,1729051189,488928309,0.010495642728160098,0.010942955141244335,-0.000114866553369599,0.999885033402428,0.0,0.0,0.0,0.0,0.0,0.0,0.0,0.0,0.0,-0.00684620408351395,-5e-324,2.1349675092527433e-06,0.0,0.0,0.0,0.0,0.0,0.0,0.0,0.0,0.0,-0.21657340069015452,0.20767332000794164,9.891060155430027,0.0,0.0,0.0,0.0,0.0,0.0,0.0,0.0,0.0
120608,1729051189,496927174,0.010723609693643504,0.01177799647184832,-0.0001263186637582622,0.9998731254703482,0.0,0.0,0.0,0.0,0.0,0.0,0.0,0.0,0.0,-0.007087552880342591,-5e-324,1.2809805055516459e-06,0.0,0.0,0.0,0.0,0.0,0.0,0.0,0.0,0.0,-0.23289471180081145,0.21199235260046811,9.881956370357624,0.0,0.0,0.0,0.0,0.0,0.0,0.0,0.0,0.0
120609,1729051189,504850236,0.010561456625622615,0.01195550841789765,-0.00012628365386277348,0.9998727446554654,0.0,0.0,0.0,0.0,0.0,0.0,0.0,0.0,0.0,-0.007232362158439776,-5e-324,7.685883033309875e-07,0.0,0.0,0.0,0.0,0.0,0.0,0.0,0.0,0.0,-0.23646257415079935,0.208837688171609,9.8843949647927,0.0,0.0,0.0,0.0,0.0,0.0,0.0,0.0,0.0
120610,1729051189,512871924,0.010230865094595504,0.011721197199347593,-0.00011993250428976499,0.9998789569502023,0.0,0.0,0.0,0.0,0.0,0.0,0.0,0.0,0.0,-0.007744937786760118,-5e-324,4.611529819985925e-07,0.0,0.0,0.0,0.0,0.0,0.0,0.0,0.0,0.0,-0.231660106746339,0.20215648619398102,9.877478415643198,0.0,0.0,0.0,0.0,0.0,0.0,0.0,0.0,0.0
120611,1729051189,520858024,0.010472525473425056,0.011571206496253745,-0.00012119451604797054,0.999878201933775,0.0,0.0,0.0,0.0,0.0,0.0,0.0,0.0,0.0,-0.00720110304082826,-5e-324,2.766917891991555e-07,0.0,0.0,0.0,0.0,0.0,0.0,0.0,0.0,0.0,-0.22877862630366277,0.20700631114998236,9.880989931465995,0.0,0.0,0.0,0.0,0.0,0.0,0.0,0.0,0.0
120612,1729051189,528850546,0.010583456641794812,0.011241689379078879,-0.00011899011654928968,0.9998807932482591,0.0,0.0,0.0,0.0,0.0,0.0,0.0,0.0,0.0,-0.0073004922547311776,-5e-324,1.660150735194933e-07,0.0,0.0,0.0,0.0,0.0,0.0,0.0,0.0,0.0,-0.2222613347177445,0.20919794562553629,9.880942059465534,0.0,0.0,0.0,0.0,0.0,0.0,0.0,0.0,0.0
120613,1729051189,536797244,0.010472125822127896,0.011593013602444212,-0.00012141831578421125,0.9998779534893104,0.0,0.0,0.0,0.0,0.0,0.0,0.0,0.0,0.0,-0.007360125783072928,-5e-324,9.960904411169597e-08,0.0,0.0,0.0,0.0,0.0,0.0,0.0,0.0,0.0,-0.22912486723689668,0.20692162382063425,9.877322033775023,0.0,0.0,0.0,0.0,0.0,0.0,0.0,0.0,0.0
120614,1729051189,544853327,0.010838377638438344,0.011351686188603037,-0.00012304901901703314,0.9998768192381404,0.0,0.0,0.0,0.0,0.0,0.0,0.0,0.0,0.0,-0.00782159596154001,-5e-324,5.976542646701759e-08,0.0,0.0,0.0,0.0,0.0,0.0,0.0,0.0,0.0,-0.2246238607718255,0.2144143768802712,9.889036387989623,0.0,0.0,0.0,0.0,0.0,0.0,0.0,0.0,0.0
120615,1729051189,552782255,0.010667746399472577,0.011495113899094673,-0.00012264204295580873,0.999877015688496,0.0,0.0,0.0,0.0,0.0,0.0,0.0,0.0,0.0,-0.007672788007158227,-5e-324,3.585925588021055e-08,0.0,0.0,0.0,0.0,0.0,0.0,0.0,0.0,0.0,-0.22742992071114218,0.2110091632375377,9.887685294707838,0.0,0.0,0.0,0.0,0.0,0.0,0.0,0.0,0.0
120616,1729051189,560838239,0.01095069763472613,0.011712030763519007,-0.00012827139830639167,0.9998714387875851,0.0,0.0,0.0,0.0,0.0,0.0,0.0,0.0,0.0,-0.007157813173067126,-5e-324,2.151555352812633e-08,0.0,0.0,0.0,0.0,0.0,0.0,0.0,0.0,0.0,-0.23174717850090407,0.21662748036439763,9.888550579900874,0.0,0.0,0.0,0.0,0.0,0.0,0.0,0.0,0.0
120617,1729051189,568855916,0.011077485885328298,0.011279210312539987,-0.00012496091080654195,0.9998750187428209,0.0,0.0,0.0,0.0,0.0,0.0,0.0,0.0,0.0,-0.007274518334074496,-5e-324,1.2909332116875796e-08,0.0,0.0,0.0,0.0,0.0,0.0,0.0,0.0,0.0,-0.2230847853720268,0.2190407899764511,9.884281347696383,0.0,0.0,0.0,0.0,0.0,0.0,0.0,0.0,0.0
120618,1729051189,576821970,0.011512388024301483,0.010688161674719907,-0.00012306145038726334,0.9998765988750173,0.0,0.0,0.0,0.0,0.0,0.0,0.0,0.0,0.0,-0.007344541430678919,-5e-324,7.745599270125477e-09,0.0,0.0,0.0,0.0,0.0,0.0,0.0,0.0,0.0,-0.2114230050122786,0.22767138072415188,9.88555053102994,0.0,0.0,0.0,0.0,0.0,0.0,0.0,0.0,0.0
120619,1729051189,584834896,0.01126933781107828,0.010834142501513015,-0.00012210853380030854,0.9998777967687165,0.0,0.0,0.0,0.0,0.0,0.0,0.0,0.0,0.0,-0.007386555288641572,-5e-324,4.647359562075286e-09,0.0,0.0,0.0,0.0,0.0,0.0,0.0,0.0,0.0,-0.21424216360307025,0.22279408820011612,9.882481318373824,0.0,0.0,0.0,0.0,0.0,0.0,0.0,0.0,0.0
120620,1729051189,592888766,0.011172655057033246,0.011092023282936915,-0.00012394271222365474,0.9998760540370348,0.0,0.0,0.0,0.0,0.0,0.0,0.0,0.0,0.0,-0.007411763603419164,-5e-324,2.7884157372451716e-09,0.0,0.0,0.0,0.0,0.0,0.0,0.0,0.0,0.0,-0.21928554108176404,0.22082539334975715,9.879921530282104,0.0,0.0,0.0,0.0,0.0,0.0,0.0,0.0,0.0
120621,1729051189,600898027,0.01068380463735664,0.011191960646169246,-0.00011958703755224118,0.9998802838511748,0.0,0.0,0.0,0.0,0.0,0.0,0.0,0.0,0.0,-0.00742688859228572,-5e-324,1.673049442347103e-09,0.0,0.0,0.0,0.0,0.0,0.0,0.0,0.0,0.0,-0.22111446673890214,0.21102505046297929,9.873597254106762,0.0,0.0,0.0,0.0,0.0,0.0,0.0,0.0,0.0
120622,1729051189,608895657,0.010190294841675308,0.011365284418905826,-0.00011582909552440038,0.999883480603984,0.0,0.0,0.0,0.0,0.0,0.0,0.0,0.0,0.0,-0.007435963585605653,-5e-324,1.0038296654082617e-09,0.0,0.0,0.0,0.0,0.0,0.0,0.0,0.0,0.0,-0.2248454439593569,0.20155354224067817,9.887280360520698,0.0,0.0,0.0,0.0,0.0,0.0,0.0,0.0,0.0
120623,1729051189,616832739,0.009425080081821819,0.011462039761705928,-0.00010804253999109387,0.9998898828554882,0.0,0.0,0.0,0.0,0.0,0.0,0.0,0.0,0.0,-0.007867098643059643,-5e-324,6.02297799244957e-10,0.0,0.0,0.0,0.0,0.0,0.0,0.0,0.0,0.0,-0.22660518995959852,0.18629383066667252,9.880885594242107,0.0,0.0,0.0,0.0,0.0,0.0,0.0,0.0,0.0
120624,1729051189,624904232,0.010177224405969292,0.010865002221030916,-0.00011058782159721396,0.9998891756592133,0.0,0.0,0.0,0.0,0.0,0.0,0.0,0.0,0.0,-0.007274399554607976,-5e-324,3.613786795469742e-10,0.0,0.0,0.0,0.0,0.0,0.0,0.0,0.0,0.0,-0.21497176876091534,0.20131944048984726,9.888540902443701,0.0,0.0,0.0,0.0,0.0,0.0,0.0,0.0,0.0
120625,1729051189,632893107,0.01001867588540786,0.010358124352657665,-0.00010378546807276437,0.9998961569192946,0.0,0.0,0.0,0.0,0.0,0.0,0.0,0.0,0.0,-0.006918780101536975,-5e-324,2.168272077281845e-10,0.0,0.0,0.0,0.0,0.0,0.0,0.0,0.0,0.0,-0.20487925388350234,0.19812437791695522,9.885712062218174,0.0,0.0,0.0,0.0,0.0,0.0,0.0,0.0,0.0
120626,1729051189,640837455,0.010523897670856455,0.011295861292422871,-0.0001188906587595185,0.9998808113772796,0.0,0.0,0.0,0.0,0.0,0.0,0.0,0.0,0.0,-0.006705408429694375,-5e-324,1.3009632463691069e-10,0.0,0.0,0.0,0.0,0.0,0.0,0.0,0.0,0.0,-0.2232446018906483,0.20793892850798565,9.877071573268404,0.0,0.0,0.0,0.0,0.0,0.0,0.0,0.0,0.0
120627,1729051189,648961555,0.010254668895691472,0.011213898769328124,-0.00011500809868277481,0.9998845318402362,0.0,0.0,0.0,0.0,0.0,0.0,0.0,0.0,0.0,-0.0065773854265888144,-5e-324,7.805779478214641e-11,0.0,0.0,0.0,0.0,0.0,0.0,0.0,0.0,0.0,-0.2215745418961077,0.20257491105986952,9.874999742056746,0.0,0.0,0.0,0.0,0.0,0.0,0.0,0.0,0.0
120628,1729051189,656997621,0.010603260063587609,0.011117850510394933,-0.00011789937618278663,0.9998819682221445,0.0,0.0,0.0,0.0,0.0,0.0,0.0,0.0,0.0,-0.006500571624725478,-5e-324,4.683467686928785e-11,0.0,0.0,0.0,0.0,0.0,0.0,0.0,0.0,0.0,-0.21937540506930525,0.20917272739764045,9.861306794696938,0.0,0.0,0.0,0.0,0.0,0.0,0.0,0.0,0.0
120629,1729051189,664881710,0.010292379170824446,0.011097631837644244,-0.0001142341212422315,0.9998854416627765,0.0,0.0,0.0,0.0,0.0,0.0,0.0,0.0,0.0,-0.006454483343607476,-5e-324,2.8100806121572707e-11,0.0,0.0,0.0,0.0,0.0,0.0,0.0,0.0,0.0,-0.21901360363728625,0.20307577022764678,9.863146673253707,0.0,0.0,0.0,0.0,0.0,0.0,0.0,0.0,0.0
120630,1729051189,672833523,0.010722201033353047,0.010597797678531216,-0.00011364463320206279,0.9998863476287005,0.0,0.0,0.0,0.0,0.0,0.0,0.0,0.0,0.0,-0.006426830374936675,-5e-324,1.6860483672943625e-11,0.0,0.0,0.0,0.0,0.0,0.0,0.0,0.0,0.0,-0.20921971613744986,0.21162802439244743,9.866405381881911,0.0,0.0,0.0,0.0,0.0,0.0,0.0,0.0,0.0
120631,1729051189,680833582,0.010357803267665243,0.010864142313804054,-0.00011254132873560393,0.9998873304816414,0.0,0.0,0.0,0.0,0.0,0.0,0.0,0.0,0.0,-0.006835928655196226,-5e-324,1.0116290203766175e-11,0.0,0.0,0.0,0.0,0.0,0.0,0.0,0.0,0.0,-0.2145961314402824,0.20454894842453095,9.87195190954907,0.0,0.0,0.0,0.0,0.0,0.0,0.0,0.0,0.0
120632,1729051189,688833407,0.010701847051123965,0.01110153381685596,-0.00011882104487237974,0.999881099080369,0.0,0.0,0.0,0.0,0.0,0.0,0.0,0.0,0.0,-0.0075070776848139885,-5e-324,6.069774122259704e-12,0.0,0.0,0.0,0.0,0.0,0.0,0.0,0.0,0.0,-0.2192585016180757,0.21131483048049982,9.870491422829051,0.0,0.0,0.0,0.0,0.0,0.0,0.0,0.0,0.0
120633,1729051189,696830536,0.010841480614185234,0.010559218251638337,-0.0001144906726510649,0.9998854694913274,0.0,0.0,0.0,0.0,0.0,0.0,0.0,0.0,0.0,-0.0070583869796605825,-5e-324,3.641864473355823e-12,0.0,0.0,0.0,0.0,0.0,0.0,0.0,0.0,0.0,-0.2086483944278767,0.21417725888400302,9.875361214781416,0.0,0.0,0.0,0.0,0.0,0.0,0.0,0.0,0.0
120634,1729051189,704788383,0.010496881527388263,0.010944236727574079,-0.0001148935683657228,0.9998850063682917,0.0,0.0,0.0,0.0,0.0,0.0,0.0,0.0,0.0,-0.006789172556568539,-5e-324,2.1851186840134934e-12,0.0,0.0,0.0,0.0,0.0,0.0,0.0,0.0,0.0,-0.21640811990867914,0.20751501011555804,9.882353232775099,0.0,0.0,0.0,0.0,0.0,0.0,0.0,0.0,0.0
120635,1729051189,712812640,0.0105342236923838,0.010729015301471431,-0.00011303462615589889,0.9998869464019585,0.0,0.0,0.0,0.0,0.0,0.0,0.0,0.0,0.0,-0.007053333964175344,-5e-324,1.311071210408096e-12,0.0,0.0,0.0,0.0,0.0,0.0,0.0,0.0,0.0,-0.21220540905458246,0.2083060641748036,9.884872502409198,0.0,0.0,0.0,0.0,0.0,0.0,0.0,0.0,0.0
120636,1729051189,720891579,0.010400473634170317,0.011278917222105264,-0.0001173198904129079,0.9998822942779441,0.0,0.0,0.0,0.0,0.0,0.0,0.0,0.0,0.0,-0.007211830808739427,-5e-324,7.866427262448576e-13,0.0,0.0,0.0,0.0,0.0,0.0,0.0,0.0,0.0,-0.22309131183899947,0.20566823445214777,9.885186963359581,0.0,0.0,0.0,0.0,0.0,0.0,0.0,0.0,0.0
120637,1729051189,728900256,0.01023392472370966,0.01061538287192304,-0.00010864884170018413,0.9998912784031377,0.0,0.0,0.0,0.0,0.0,0.0,0.0,0.0,0.0,-0.0073069289154778765,-5e-324,4.719856357469145e-13,0.0,0.0,0.0,0.0,0.0,0.0,0.0,0.0,0.0,-0.2097509797303528,0.20217017529042924,9.875319992957156,0.0,0.0,0.0,0.0,0.0,0.0,0.0,0.0,0.0
120638,1729051189,736853641,0.010095722680247658,0.010445134947677364,-0.00010546231452719011,0.9998944766410046,0.0,0.0,0.0,0.0,0.0,0.0,0.0,0.0,0.0,-0.007789677840982979,-5e-324,2.831913814481487e-13,0.0,0.0,0.0,0.0,0.0,0.0,0.0,0.0,0.0,-0.2062957636194617,0.19935307929535132,9.87107575187781,0.0,0.0,0.0,0.0,0.0,0.0,0.0,0.0,0.0
120639,1729051189,744826581,0.010282698224818108,0.01051578565830347,-0.00010814234822635825,0.9998918304868974,0.0,0.0,0.0,0.0,0.0,0.0,0.0,0.0,0.0,-0.0076536371348240075,-5e-324,1.699148288688892e-13,0.0,0.0,0.0,0.0,0.0,0.0,0.0,0.0,0.0,-0.20757451627714577,0.20293006535064828,9.865416745071997,0.0,0.0,0.0,0.0,0.0,0.0,0.0,0.0,0.0
120640,1729051189,752836200,0.0105025832947985,0.010168819704008635,-0.0001068102903384948,0.9998931340105927,0.0,0.0,0.0,0.0,0.0,0.0,0.0,0.0,0.0,-0.007146322649666594,-5e-324,1.0194889732133353e-13,0.0,0.0,0.0,0.0,0.0,0.0,0.0,0.0,0.0,-0.20091974272527183,0.20747045864398272,9.874950029953354,0.0,0.0,0.0,0.0,0.0,0.0,0.0,0.0,0.0
120641,1729051189,760842691,0.010645367128944106,0.010225843033833006,-0.00010886971549362038,0.9998910422842693,0.0,0.0,0.0,0.0,0.0,0.0,0.0,0.0,0.0,-0.006841933958572146,-5e-324,6.116933839280011e-14,0.0,0.0,0.0,0.0,0.0,0.0,0.0,0.0,0.0,-0.2019547020804756,0.21019469461998339,9.870374933743497,0.0,0.0,0.0,0.0,0.0,0.0,0.0,0.0,0.0
120642,1729051189,768842678,0.010334611288307713,0.009985360016131069,-0.00010320547200429506,0.9998967335397683,0.0,0.0,0.0,0.0,0.0,0.0,0.0,0.0,0.0,-0.006659300743915477,-5e-324,3.6701603035680064e-14,0.0,0.0,0.0,0.0,0.0,0.0,0.0,0.0,0.0,-0.19730843404125412,0.2041677908930838,9.875770161662112,0.0,0.0,0.0,0.0,0.0,0.0,0.0,0.0,0.0
120643,1729051189,776809464,0.010736018359017021,0.009992973308549228,-0.00010729628701495843,0.9998924276549734,0.0,0.0,0.0,0.0,0.0,0.0,0.0,0.0,0.0,-0.006549720815121476,-5e-324,2.202096182140804e-14,0.0,0.0,0.0,0.0,0.0,0.0,0.0,0.0,0.0,-0.19763313537592433,0.2122832367917096,9.884274542065626,0.0,0.0,0.0,0.0,0.0,0.0,0.0,0.0,0.0
120644,1729051189,784803719,0.01087833215856183,0.010891355509901113,-0.00011849382368998828,0.9998815060915062,0.0,0.0,0.0,0.0,0.0,0.0,0.0,0.0,0.0,-0.006483972857845075,-5e-324,0.0017027602458613389,0.0,0.0,0.0,0.0,0.0,0.0,0.0,0.0,0.0,-0.21530562829586708,0.2149977228367445,9.879560943501094,0.0,0.0,0.0,0.0,0.0,0.0,0.0,0.0,0.0
120645,1729051189,792754701,0.011282402837750553,0.01036812874981173,-0.00011699114105241217,0.9998825909103063,0.0,0.0,0.0,0.0,0.0,0.0,0.0,0.0,0.0,-0.006444524083479234,-5e-324,0.0010216561475168034,0.0,0.0,0.0,0.0,0.0,0.0,0.0,0.0,0.0,-0.20484014943845774,0.22285133878017171,9.873620322204172,0.0,0.0,0.0,0.0,0.0,0.0,0.0,0.0,0.0
120646,1729051189,800985392,0.010916512124990339,0.010621781955898177,-0.00011596626472187507,0.9998839903023409,0.0,0.0,0.0,0.0,0.0,0.0,0.0,0.0,0.0,-0.006846544880321761,-5e-324,0.000612993688510082,0.0,0.0,0.0,0.0,0.0,0.0,0.0,0.0,0.0,-0.2100530300927621,0.2158319202114624,9.883224058556879,0.0,0.0,0.0,0.0,0.0,0.0,0.0,0.0,0.0
120647,1729051189,808762965,0.010842671553078638,0.011233954171274178,-0.0001218209249847471,0.9998781025239687,0.0,0.0,0.0,0.0,0.0,0.0,0.0,0.0,0.0,-0.0066620672969652465,-5e-324,0.0003677962131060492,0.0,0.0,0.0,0.0,0.0,0.0,0.0,0.0,0.0,-0.22203930462792287,0.2142538908964087,9.877733552565767,0.0,0.0,0.0,0.0,0.0,0.0,0.0,0.0,0.0
120648,1729051189,816920132,0.011098300332799195,0.011319776374169395,-0.00012564606791661229,0.9998743294062646,0.0,0.0,0.0,0.0,0.0,0.0,0.0,0.0,0.0,-0.0065513807469513375,-5e-324,0.0002206777278636295,0.0,0.0,0.0,0.0,0.0,0.0,0.0,0.0,0.0,-0.22372440553065998,0.21929257745776706,9.87707287079727,0.0,0.0,0.0,0.0,0.0,0.0,0.0,0.0,0.0
120649,1729051189,824872970,0.01063781635063964,0.011120827576462732,-0.00011831533374521393,0.9998815680163259,0.0,0.0,0.0,0.0,0.0,0.0,0.0,0.0,0.0,-0.006910658878405024,-5e-324,0.0001324066367181777,0.0,0.0,0.0,0.0,0.0,0.0,0.0,0.0,0.0,-0.21994706275198975,0.21034478109380084,9.884337907048675,0.0,0.0,0.0,0.0,0.0,0.0,0.0,0.0,0.0
120650,1729051189,832921460,0.010352628603982858,0.011393102061860266,-0.00011796253330522723,0.99988149617404,0.0,0.0,0.0,0.0,0.0,0.0,0.0,0.0,0.0,-0.007126225757277236,-5e-324,7.944398203090662e-05,0.0,0.0,0.0,0.0,0.0,0.0,0.0,0.0,0.0,-0.22510268223127197,0.20449726294338988,9.87433171883858,0.0,0.0,0.0,0.0,0.0,0.0,0.0,0.0,0.0
120651,1729051189,840878768,0.010213210115365535,0.01093291275902198,-0.00011167263487988015,0.999888068379139,0.0,0.0,0.0,0.0,0.0,0.0,0.0,0.0,0.0,-0.006829875823138531,-5e-324,4.766638921854397e-05,0.0,0.0,0.0,0.0,0.0,0.0,0.0,0.0,0.0,-0.21622504561806002,0.2019464327172058,9.884369157035568,0.0,0.0,0.0,0.0,0.0,0.0,0.0,0.0,0.0
120652,1729051189,848940172,0.009535805044341848,0.011384332468735428,-0.00010857074808536514,0.9998897207236357,0.0,0.0,0.0,0.0,0.0,0.0,0.0,0.0,0.0,-0.00707775592411734,-5e-324,0.0017313600793792527,0.0,0.0,0.0,0.0,0.0,0.0,0.0,0.0,0.0,-0.22502425344505475,0.1884449262807141,9.878899451985014,0.0,0.0,0.0,0.0,0.0,0.0,0.0,0.0,0.0
120653,1729051189,856777944,0.009749104825844386,0.011582728119036533,-0.00011293417458188486,0.9998853847368144,0.0,0.0,0.0,0.0,0.0,0.0,0.0,0.0,0.0,-0.007226483984704626,-5e-324,0.0027415762934756777,0.0,0.0,0.0,0.0,0.0,0.0,0.0,0.0,0.0,-0.22910667731117348,0.1927938710516316,9.885673275927335,0.0,0.0,0.0,0.0,0.0,0.0,0.0,0.0,0.0
120654,1729051189,864689043,0.01024849184089805,0.010706982384333378,-0.00010974247655231957,0.999890152416653,0.0,0.0,0.0,0.0,0.0,0.0,0.0,0.0,0.0,-0.007315720821056996,-5e-324,0.0016449457760854065,0.0,0.0,0.0,0.0,0.0,0.0,0.0,0.0,0.0,-0.2114448376855322,0.20234642272863518,9.86986569651343,0.0,0.0,0.0,0.0,0.0,0.0,0.0,0.0,0.0
120655,1729051189,872660150,0.010924076465386724,0.010906968236258892,-0.00011916275479800632,0.9998808370988562,0.0,0.0,0.0,0.0,0.0,0.0,0.0,0.0,0.0,-0.0069435728614063875,-5e-324,0.000986967465651244,0.0,0.0,0.0,0.0,0.0,0.0,0.0,0.0,0.0,-0.21545236403710055,0.21573939904733738,9.872112736999854,0.0,0.0,0.0,0.0,0.0,0.0,0.0,0.0,0.0
120656,1729051189,880657111,0.010490165492575735,0.010648747204547717,-0.00011171960313880548,0.9998882678227814,0.0,0.0,0.0,0.0,0.0,0.0,0.0,0.0,0.0,-0.007145974147078054,-5e-324,0.0005921804793907464,0.0,0.0,0.0,0.0,0.0,0.0,0.0,0.0,0.0,-0.2104348547015572,0.20725519338348056,9.876334003283898,0.0,0.0,0.0,0.0,0.0,0.0,0.0,0.0,0.0
120657,1729051189,888633414,0.010575948874981174,0.011082154229239296,-0.00011721805164292616,0.9998826538264185,0.0,0.0,0.0,0.0,0.0,0.0,0.0,0.0,0.0,-0.007693104979943085,-5e-324,0.0003553082876344478,0.0,0.0,0.0,0.0,0.0,0.0,0.0,0.0,0.0,-0.21891651706898121,0.20886843463360394,9.872402418571902,0.0,0.0,0.0,0.0,0.0,0.0,0.0,0.0,0.0
120658,1729051189,896683874,0.010214156367230835,0.010577823831863366,-0.00010805522972171329,0.9998918786432638,0.0,0.0,0.0,0.0,0.0,0.0,0.0,0.0,0.0,-0.008021383479662103,-5e-324,0.0002131849725806687,0.0,0.0,0.0,0.0,0.0,0.0,0.0,0.0,0.0,-0.20892204403045123,0.20169609373914674,9.871240568574782,0.0,0.0,0.0,0.0,0.0,0.0,0.0,0.0,0.0
120659,1729051189,904614519,0.010741237182940028,0.011528215629117159,-0.00012384267372632103,0.9998758476586884,0.0,0.0,0.0,0.0,0.0,0.0,0.0,0.0,0.0,-0.007366970456569452,-5e-324,0.0001279109835484012,0.0,0.0,0.0,0.0,0.0,0.0,0.0,0.0,0.0,-0.2275856373069426,0.21199731932942553,9.865994475422214,0.0,0.0,0.0,0.0,0.0,0.0,0.0,0.0,0.0
120660,1729051189,912764718,0.01097055033832488,0.011162743028505244,-0.000122476437047653,0.9998775050939371,0.0,0.0,0.0,0.0,0.0,0.0,0.0,0.0,0.0,-0.006974322642713861,-5e-324,7.674659012904073e-05,0.0,0.0,0.0,0.0,0.0,0.0,0.0,0.0,0.0,-0.2203484404896343,0.21650211352148344,9.865001601024812,0.0,0.0,0.0,0.0,0.0,0.0,0.0,0.0,0.0
120661,1729051189,920958420,0.010493090245725695,0.010862069449488513,-0.00011398967639474723,0.9998859422507765,0.0,0.0,0.0,0.0,0.0,0.0,0.0,0.0,0.0,-0.007164424015862538,-5e-324,4.6047954077424433e-05,0.0,0.0,0.0,0.0,0.0,0.0,0.0,0.0,0.0,-0.2145696014031556,0.20723398173593696,9.872546162030902,0.0,0.0,0.0,0.0,0.0,0.0,0.0,0.0,0.0
120662,1729051189,928681350,0.01073969383304263,0.010535990629561204,-0.00011316612250849088,0.9998868131299937,0.0,0.0,0.0,0.0,0.0,0.0,0.0,0.0,0.0,-0.007278484839751744,-5e-324,2.762877244645466e-05,0.0,0.0,0.0,0.0,0.0,0.0,0.0,0.0,0.0,-0.20822925595908084,0.21220758996929653,9.877312318800573,0.0,0.0,0.0,0.0,0.0,0.0,0.0,0.0,0.0
120663,1729051189,936724188,0.010472983945741105,0.01076159144946434,-0.00011271868467715166,0.9998872396681764,0.0,0.0,0.0,0.0,0.0,0.0,0.0,0.0,0.0,-0.0073469213340852674,-5e-324,1.6577263467872794e-05,0.0,0.0,0.0,0.0,0.0,0.0,0.0,0.0,0.0,-0.21280475450318287,0.20705146926478107,9.882805634688546,0.0,0.0,0.0,0.0,0.0,0.0,0.0,0.0,0.0
120664,1729051189,944814563,0.010647143285716563,0.010419486903464267,-0.00011095008282083798,0.9998890240034647,0.0,0.0,0.0,0.0,0.0,0.0,0.0,0.0,0.0,-0.007387983230685381,-5e-324,9.946358080723677e-06,0.0,0.0,0.0,0.0,0.0,0.0,0.0,0.0,0.0,-0.20573382682300345,0.210182721158478,9.868145111770158,0.0,0.0,0.0,0.0,0.0,0.0,0.0,0.0,0.0
120665,1729051189,952951531,0.01053612304351318,0.010265293134460932,-0.00010816809584637275,0.9998917952297331,0.0,0.0,0.0,0.0,0.0,0.0,0.0,0.0,0.0,-0.007412620368645449,-5e-324,5.9678148484342055e-06,0.0,0.0,0.0,0.0,0.0,0.0,0.0,0.0,0.0,-0.20268837104497395,0.20799132947243054,9.868207344161704,0.0,0.0,0.0,0.0,0.0,0.0,0.0,0.0,0.0
120666,1729051189,960815359,0.010325234936957688,0.010501413247892015,-0.00010844132015742653,0.9998915431604438,0.0,0.0,0.0,0.0,0.0,0.0,0.0,0.0,0.0,-0.007001712589959459,-5e-324,3.5806889090605232e-06,0.0,0.0,0.0,0.0,0.0,0.0,0.0,0.0,0.0,-0.2073254420605781,0.2038034524686146,9.867047582766554,0.0,0.0,0.0,0.0,0.0,0.0,0.0,0.0,0.0
120667,1729051189,968927118,0.010256587299528675,0.010519033753681071,-0.00010790103435054405,0.9998920645265782,0.0,0.0,0.0,0.0,0.0,0.0,0.0,0.0,0.0,-0.006755167922747865,-5e-324,2.148413345436314e-06,0.0,0.0,0.0,0.0,0.0,0.0,0.0,0.0,0.0,-0.20771348300978437,0.20248782709640314,9.868985347755638,0.0,0.0,0.0,0.0,0.0,0.0,0.0,0.0,0.0
120668,1729051189,976841966,0.009729482152722733,0.009995130044170224,-9.725690171547989e-05,0.9999027078138828,0.0,0.0,0.0,0.0,0.0,0.0,0.0,0.0,0.0,-0.006607241122420909,-5e-324,1.2890480072617883e-06,0.0,0.0,0.0,0.0,0.0,0.0,0.0,0.0,0.0,-0.19765124044063623,0.19236106539846687,9.883555536045959,0.0,0.0,0.0,0.0,0.0,0.0,0.0,0.0,0.0
120669,1729051189,984795393,0.010254590801073356,0.009928076089591701,-0.00010181873022204953,0.9998981279638481,0.0,0.0,0.0,0.0,0.0,0.0,0.0,0.0,0.0,-0.006518485042224735,-5e-324,7.734288043570729e-07,0.0,0.0,0.0,0.0,0.0,0.0,0.0,0.0,0.0,-0.1959234578874286,0.202326159502752,9.863088388766249,0.0,0.0,0.0,0.0,0.0,0.0,0.0,0.0,0.0
120670,1729051189,992773267,0.010351161445531144,0.010336299084249233,-0.00010700415047039547,0.9998929957390847,0.0,0.0,0.0,0.0,0.0,0.0,0.0,0.0,0.0,-0.006039541332644999,-5e-324,4.6405728261424376e-07,0.0,0.0,0.0,0.0,0.0,0.0,0.0,0.0,0.0,-0.2042241748301134,0.20447449330907308,9.874750116999982,0.0,0.0,0.0,0.0,0.0,0.0,0.0,0.0,0.0
120671,1729051190,864332,0.010580002867665094,0.010315494518305409,-0.00010914987909947973,0.9998908151385665,0.0,0.0,0.0,0.0,0.0,0.0,0.0,0.0,0.0,-0.00660355522982122,-5e-324,2.7843436956854625e-07,0.0,0.0,0.0,0.0,0.0,0.0,0.0,0.0,0.0,-0.2036979411773649,0.20887595575106885,9.869057885141395,0.0,0.0,0.0,0.0,0.0,0.0,0.0,0.0,0.0
120672,1729051190,8806778,0.010594293283385653,0.010482985889966337,-0.00011107216471772719,0.9998889216406144,0.0,0.0,0.0,0.0,0.0,0.0,0.0,0.0,0.0,-0.007367653629588984,-5e-324,1.6706062174112775e-07,0.0,0.0,0.0,0.0,0.0,0.0,0.0,0.0,0.0,-0.20673408330993454,0.20888321139009444,9.856065739385619,0.0,0.0,0.0,0.0,0.0,0.0,0.0,0.0,0.0
120673,1729051190,16849442,0.011056884619998812,0.010225920715739373,-0.0001130796515355909,0.9998865750978997,0.0,0.0,0.0,0.0,0.0,0.0,0.0,0.0,0.0,-0.007400422607987612,-5e-324,1.0023637304467665e-07,0.0,0.0,0.0,0.0,0.0,0.0,0.0,0.0,0.0,-0.20209142410705447,0.21846437141413477,9.876761451688013,0.0,0.0,0.0,0.0,0.0,0.0,0.0,0.0,0.0
120674,1729051190,24978085,0.01123272603905207,0.010503224781004192,-0.00011799380042504911,0.9998817401134968,0.0,0.0,0.0,0.0,0.0,0.0,0.0,0.0,0.0,-0.0069943939335647565,-5e-324,6.014182382680599e-08,0.0,0.0,0.0,0.0,0.0,0.0,0.0,0.0,0.0,-0.2076855343958733,0.22205828593441837,9.881996274088978,0.0,0.0,0.0,0.0,0.0,0.0,0.0,0.0,0.0
120675,1729051190,32830265,0.011246863408628389,0.011086255945593608,-0.00012470115832039017,0.999875285944301,0.0,0.0,0.0,0.0,0.0,0.0,0.0,0.0,0.0,-0.007176466790373075,-5e-324,3.6085094296083595e-08,0.0,0.0,0.0,0.0,0.0,0.0,0.0,0.0,0.0,-0.21894286604768023,0.2220598531524479,9.869574856738543,0.0,0.0,0.0,0.0,0.0,0.0,0.0,0.0,0.0
120676,1729051190,40832505,0.0111488876226426,0.010410748382881415,-0.00011608177038932353,0.9998836458048049,0.0,0.0,0.0,0.0,0.0,0.0,0.0,0.0,0.0,-0.0077114005659200974,-5e-324,2.1651056577650157e-08,0.0,0.0,0.0,0.0,0.0,0.0,0.0,0.0,0.0,-0.20606481142548316,0.22062427248717187,9.892049527080236,0.0,0.0,0.0,0.0,0.0,0.0,0.0,0.0,0.0
120677,1729051190,48796283,0.010684815629232356,0.010531352530815701,-0.00011253822629578264,0.9998874499982429,0.0,0.0,0.0,0.0,0.0,0.0,0.0,0.0,0.0,-0.007180980708324248,-5e-324,1.2990633946590094e-08,0.0,0.0,0.0,0.0,0.0,0.0,0.0,0.0,0.0,-0.2083936256248211,0.21138321827745934,9.889493178162203,0.0,0.0,0.0,0.0,0.0,0.0,0.0,0.0,0.0
120678,1729051190,56805279,0.010712042402577704,0.010486066662648987,-0.0001123398138286418,0.9998876346536535,0.0,0.0,0.0,0.0,0.0,0.0,0.0,0.0,0.0,-0.006862728793766738,-5e-324,7.794380367954056e-09,0.0,0.0,0.0,0.0,0.0,0.0,0.0,0.0,0.0,-0.20763613265028327,0.21206351006803809,9.896099654455917,0.0,0.0,0.0,0.0,0.0,0.0,0.0,0.0,0.0
120679,1729051190,64817670,0.010275787473883894,0.010852896153034138,-0.00011153451286580433,0.9998882989599065,0.0,0.0,0.0,0.0,0.0,0.0,0.0,0.0,0.0,-0.006671777645032233,-5e-324,4.676628220772433e-09,0.0,0.0,0.0,0.0,0.0,0.0,0.0,0.0,0.0,-0.21484308217806058,0.2033737188337916,9.893599195749722,0.0,0.0,0.0,0.0,0.0,0.0,0.0,0.0,0.0
120680,1729051190,72812390,0.010518351783312348,0.011069043567001767,-0.00011644167046129063,0.9998834066988069,0.0,0.0,0.0,0.0,0.0,0.0,0.0,0.0,0.0,-0.00655720695579153,-5e-324,2.80597693246346e-09,0.0,0.0,0.0,0.0,0.0,0.0,0.0,0.0,0.0,-0.21916725189472697,0.20821549106589995,9.895450802850224,0.0,0.0,0.0,0.0,0.0,0.0,0.0,0.0,0.0
120681,1729051190,80851014,0.010462373613135888,0.01120314076891407,-0.00011722521827958599,0.9998825004136932,0.0,0.0,0.0,0.0,0.0,0.0,0.0,0.0,0.0,-0.006488464542247108,-5e-324,1.683586159478076e-09,0.0,0.0,0.0,0.0,0.0,0.0,0.0,0.0,0.0,-0.2217617537247268,0.20705041158289933,9.892731044454274,0.0,0.0,0.0,0.0,0.0,0.0,0.0,0.0,0.0
120682,1729051190,88809985,0.01072059776677784,0.01153907206466946,-0.00012372109855781214,0.999875943951298,0.0,0.0,0.0,0.0,0.0,0.0,0.0,0.0,0.0,-0.006447219094120454,-5e-324,1.0101516956868456e-09,0.0,0.0,0.0,0.0,0.0,0.0,0.0,0.0,0.0,-0.22834627830905485,0.21209744787747398,9.88966266842061,0.0,0.0,0.0,0.0,0.0,0.0,0.0,0.0,0.0
120683,1729051190,96819855,0.010637593808952355,0.010777063128021434,-0.0001146551669317521,0.9998853351072228,0.0,0.0,0.0,0.0,0.0,0.0,0.0,0.0,0.0,-0.006848161886706493,-5e-324,6.060910174121074e-10,0.0,0.0,0.0,0.0,0.0,0.0,0.0,0.0,0.0,-0.21314337977840167,0.21033726633390626,9.884230340310177,0.0,0.0,0.0,0.0,0.0,0.0,0.0,0.0,0.0
120684,1729051190,104801841,0.011086270863109064,0.010769133841620376,-0.0001194037980008266,0.9998805459140527,0.0,0.0,0.0,0.0,0.0,0.0,0.0,0.0,0.0,-0.007088727562258116,-5e-324,3.636546104472644e-10,0.0,0.0,0.0,0.0,0.0,0.0,0.0,0.0,0.0,-0.21288018680258788,0.21909738421440625,9.879055582115793,0.0,0.0,0.0,0.0,0.0,0.0,0.0,0.0,0.0
120685,1729051190,112873786,0.01089428561782278,0.011199935153104761,-0.0001220301895263031,0.9998779230996534,0.0,0.0,0.0,0.0,0.0,0.0,0.0,0.0,0.0,-0.00723306696758909,-5e-324,2.1819276626835864e-10,0.0,0.0,0.0,0.0,0.0,0.0,0.0,0.0,0.0,-0.22110197682764648,0.21501606846809687,9.865895080226506,0.0,0.0,0.0,0.0,0.0,0.0,0.0,0.0,0.0
120686,1729051190,120846659,0.010661901707885026,0.010832124661547671,-0.00011550439136682283,0.999884481120706,0.0,0.0,0.0,0.0,0.0,0.0,0.0,0.0,0.0,-0.007745360672249707,-5e-324,1.309156597610152e-10,0.0,0.0,0.0,0.0,0.0,0.0,0.0,0.0,0.0,-0.21406404254190037,0.21065191769218625,9.876434131876138,0.0,0.0,0.0,0.0,0.0,0.0,0.0,0.0,0.0
120687,1729051190,128816737,0.011260022192713676,0.010997601634121279,-0.00012384858120228405,0.9998761169865223,0.0,0.0,0.0,0.0,0.0,0.0,0.0,0.0,0.0,-0.008052736895046077,-5e-324,7.854939585660911e-11,0.0,0.0,0.0,0.0,0.0,0.0,0.0,0.0,0.0,-0.21750272728295272,0.22263805735359302,9.88371524352998,0.0,0.0,0.0,0.0,0.0,0.0,0.0,0.0,0.0
120688,1729051190,136824296,0.011709726165322924,0.01059456420556382,-0.00012407491742216895,0.9998753032892863,0.0,0.0,0.0,0.0,0.0,0.0,0.0,0.0,0.0,-0.0078114725672618675,-5e-324,4.712963751396546e-11,0.0,0.0,0.0,0.0,0.0,0.0,0.0,0.0,0.0,-0.2095102911549279,0.23150568231254645,9.882577246703926,0.0,0.0,0.0,0.0,0.0,0.0,0.0,0.0,0.0
120689,1729051190,144946101,0.011962490723116484,0.011315721328385197,-0.00013538256817193208,0.9998644082764813,0.0,0.0,0.0,0.0,0.0,0.0,0.0,0.0,0.0,-0.007666713970591342,-5e-324,2.8277782508379276e-11,0.0,0.0,0.0,0.0,0.0,0.0,0.0,0.0,0.0,-0.22362902259334735,0.23634741695588726,9.875908944457901,0.0,0.0,0.0,0.0,0.0,0.0,0.0,0.0,0.0
120690,1729051190,152810400,0.01146117747661828,0.01080534379489885,-0.00012385733020408226,0.9998759276108637,0.0,0.0,0.0,0.0,0.0,0.0,0.0,0.0,0.0,-0.007579858812589026,-5e-324,1.6966669505027566e-11,0.0,0.0,0.0,0.0,0.0,0.0,0.0,0.0,0.0,-0.21342548850718027,0.22632376877704796,9.870950282446225,0.0,0.0,0.0,0.0,0.0,0.0,0.0,0.0,0.0
120691,1729051190,160873371,0.011269278324725424,0.010996121475014504,-0.00012393371758441952,0.9998760289750825,0.0,0.0,0.0,0.0,0.0,0.0,0.0,0.0,0.0,-0.007527745717787637,-5e-324,1.0180001703016539e-11,0.0,0.0,0.0,0.0,0.0,0.0,0.0,0.0,0.0,-0.2173590150281363,0.22270378152990067,9.878509572543907,0.0,0.0,0.0,0.0,0.0,0.0,0.0,0.0,0.0
120692,1729051190,168869064,0.011044833249838876,0.01081953255643909,-0.00011951421960905644,0.9998804604001894,0.0,0.0,0.0,0.0,0.0,0.0,0.0,0.0,0.0,-0.007922167922368835,-5e-324,6.108001021809923e-12,0.0,0.0,0.0,0.0,0.0,0.0,0.0,0.0,0.0,-0.2139730469563349,0.21837700768747165,9.883523986934549,0.0,0.0,0.0,0.0,0.0,0.0,0.0,0.0,0.0
120693,1729051190,176929442,0.011070543267363241,0.010643809465617897,-0.00011784665178207011,0.999882062297345,0.0,0.0,0.0,0.0,0.0,0.0,0.0,0.0,0.0,-0.00730744112219349,-5e-324,3.6648006130859535e-12,0.0,0.0,0.0,0.0,0.0,0.0,0.0,0.0,0.0,-0.21050494511716034,0.21889340554021736,9.883899013742761,0.0,0.0,0.0,0.0,0.0,0.0,0.0,0.0,0.0
120694,1729051190,184890790,0.01109372206427103,0.010702772058469975,-0.0001187476886222769,0.9998811758904212,0.0,0.0,0.0,0.0,0.0,0.0,0.0,0.0,0.0,-0.006938605042088284,-5e-324,2.198880367851572e-12,0.0,0.0,0.0,0.0,0.0,0.0,0.0,0.0,0.0,-0.21129712600584308,0.21896382408584913,9.86640693754253,0.0,0.0,0.0,0.0,0.0,0.0,0.0,0.0,0.0
120695,1729051190,192779914,0.010907059767903488,0.010647452306529743,-0.0001161458924654447,0.9998838204095171,0.0,0.0,0.0,0.0,0.0,0.0,0.0,0.0,0.0,-0.00671730339402516,-5e-324,1.319328220710943e-12,0.0,0.0,0.0,0.0,0.0,0.0,0.0,0.0,0.0,-0.21033591354295897,0.21541477272299384,9.872671103443485,0.0,0.0,0.0,0.0,0.0,0.0,0.0,0.0,0.0
120696,1729051190,200794690,0.011016551503583846,0.010920171884549693,-0.0001203171127605677,0.999879678242724,0.0,0.0,0.0,0.0,0.0,0.0,0.0,0.0,0.0,-0.007435902528111348,-5e-324,7.915969324265658e-13,0.0,0.0,0.0,0.0,0.0,0.0,0.0,0.0,0.0,-0.21550527004960351,0.2173554847275463,9.862543233355154,0.0,0.0,0.0,0.0,0.0,0.0,0.0,0.0,0.0
120697,1729051190,208814995,0.0109129700633877,0.010939080626227156,-0.00011939211391256432,0.9998806075452067,0.0,0.0,0.0,0.0,0.0,0.0,0.0,0.0,0.0,-0.007867062008563061,-5e-324,4.749581594559395e-13,0.0,0.0,0.0,0.0,0.0,0.0,0.0,0.0,0.0,-0.21573384196140274,0.21516802960605902,9.855987670970125,0.0,0.0,0.0,0.0,0.0,0.0,0.0,0.0,0.0
120698,1729051190,216936725,0.010975051839878727,0.010540754719080576,-0.00011569872657988753,0.9998842069664211,0.0,0.0,0.0,0.0,0.0,0.0,0.0,0.0,0.0,-0.0077000676353720585,-5e-324,2.849748956735637e-13,0.0,0.0,0.0,0.0,0.0,0.0,0.0,0.0,0.0,-0.20797011962996664,0.21648917835933854,9.860434039349652,0.0,0.0,0.0,0.0,0.0,0.0,0.0,0.0,0.0
120699,1729051190,224873976,0.010700677258617284,0.011215734553586935,-0.00012003037888918367,0.9998798369790934,0.0,0.0,0.0,0.0,0.0,0.0,0.0,0.0,0.0,-0.007599871011457456,-5e-324,1.709849374041382e-13,0.0,0.0,0.0,0.0,0.0,0.0,0.0,0.0,0.0,-0.22126839868227688,0.2110569432949,9.859510557887134,0.0,0.0,0.0,0.0,0.0,0.0,0.0,0.0,0.0
120700,1729051190,232890180,0.011528768918609543,0.011375045629066558,-0.00013115747632942628,0.9998688307082456,0.0,0.0,0.0,0.0,0.0,0.0,0.0,0.0,0.0,-0.007539753037108694,-5e-324,1.0259096244248291e-13,0.0,0.0,0.0,0.0,0.0,0.0,0.0,0.0,0.0,-0.22421954262733487,0.22719063570350248,9.850576763199077,0.0,0.0,0.0,0.0,0.0,0.0,0.0,0.0,0.0
120701,1729051190,240902026,0.011051730470177656,0.010922445927750456,-0.00012072650436638525,0.9998792651383871,0.0,0.0,0.0,0.0,0.0,0.0,0.0,0.0,0.0,-0.007503682252499437,-5e-324,6.155457746548975e-14,0.0,0.0,0.0,0.0,0.0,0.0,0.0,0.0,0.0,-0.21569516185569776,0.21819607819944525,9.869158502987807,0.0,0.0,0.0,0.0,0.0,0.0,0.0,0.0,0.0
120702,1729051190,248840693,0.01094707891445157,0.010868437108309155,-0.00011899179811738776,0.9998810051096158,0.0,0.0,0.0,0.0,0.0,0.0,0.0,0.0,0.0,-0.007482039781733884,-5e-324,3.693274647929385e-14,0.0,0.0,0.0,0.0,0.0,0.0,0.0,0.0,0.0,-0.21441125604896552,0.21591180585521402,9.859238572251668,0.0,0.0,0.0,0.0,0.0,0.0,0.0,0.0,0.0
120703,1729051190,256946122,0.011160406200627788,0.010869584859141945,-0.00012132370683265816,0.99987863400464,0.0,0.0,0.0,0.0,0.0,0.0,0.0,0.0,0.0,-0.007469054299274551,-5e-324,2.215964788757631e-14,0.0,0.0,0.0,0.0,0.0,0.0,0.0,0.0,0.0,-0.21459859322898867,0.2202873264330503,9.866694143106859,0.0,0.0,0.0,0.0,0.0,0.0,0.0,0.0,0.0
120704,1729051190,264976421,0.011045704293123133,0.010446777379715598,-0.00011540535284661973,0.9998844152904135,0.0,0.0,0.0,0.0,0.0,0.0,0.0,0.0,0.0,-0.007461263009798951,-5e-324,1.3295788732545785e-14,0.0,0.0,0.0,0.0,0.0,0.0,0.0,0.0,0.0,-0.2065707098924713,0.21836365562545518,9.882180813256694,0.0,0.0,0.0,0.0,0.0,0.0,0.0,0.0,0.0
120705,1729051190,272909844,0.010894548727312178,0.010266978776453503,-0.00011186663673577363,0.9998879364412232,0.0,0.0,0.0,0.0,0.0,0.0,0.0,0.0,0.0,-0.007456588236113592,-5e-324,7.97747323952747e-15,0.0,0.0,0.0,0.0,0.0,0.0,0.0,0.0,0.0,-0.2027116605546234,0.21505467164675748,9.867530798745031,0.0,0.0,0.0,0.0,0.0,0.0,0.0,0.0,0.0
120706,1729051190,280943311,0.010682367861415732,0.01117771506281659,-0.00011941873963729133,0.9998804585759301,0.0,0.0,0.0,0.0,0.0,0.0,0.0,0.0,0.0,-0.007453783371902377,-5e-324,4.786483943716482e-15,0.0,0.0,0.0,0.0,0.0,0.0,0.0,0.0,0.0,-0.2207469450632428,0.21091449976539822,9.869754117674752,0.0,0.0,0.0,0.0,0.0,0.0,0.0,0.0,0.0
120707,1729051190,288904101,0.010309268113819745,0.01109022998337154,-0.00011434526405158696,0.9998853497851811,0.0,0.0,0.0,0.0,0.0,0.0,0.0,0.0,0.0,-0.0074521004533756475,-5e-324,2.871890366229889e-15,0.0,0.0,0.0,0.0,0.0,0.0,0.0,0.0,0.0,-0.21911826713560195,0.2036419933162702,9.874439991356804,0.0,0.0,0.0,0.0,0.0,0.0,0.0,0.0,0.0
120708,1729051190,296846033,0.010616421290793137,0.01143577976343047,-0.00012142183977865989,0.9998782424860116,0.0,0.0,0.0,0.0,0.0,0.0,0.0,0.0,0.0,-0.007025400640797578,-5e-324,1.7231342197379334e-15,0.0,0.0,0.0,0.0,0.0,0.0,0.0,0.0,0.0,-0.22580250569151744,0.20957355658546523,9.867914129091426,0.0,0.0,0.0,0.0,0.0,0.0,0.0,0.0,0.0
120709,1729051190,304840554,0.010055465349835408,0.011140388939177301,-0.00011203441260678227,0.9998873770576227,0.0,0.0,0.0,0.0,0.0,0.0,0.0,0.0,0.0,-0.006769380753250736,-5e-324,1.03388053184276e-15,0.0,0.0,0.0,0.0,0.0,0.0,0.0,0.0,0.0,-0.2199968220184261,0.19852786442002915,9.86950527555056,0.0,0.0,0.0,0.0,0.0,0.0,0.0,0.0,0.0
120710,1729051190,312948202,0.01037451215407726,0.011266863954655931,-0.00011690192964109625,0.9998826999244116,0.0,0.0,0.0,0.0,0.0,0.0,0.0,0.0,0.0,-0.0070414588821846626,-5e-324,6.203283191056559e-16,0.0,0.0,0.0,0.0,0.0,0.0,0.0,0.0,0.0,-0.2224989159649619,0.20482913808561126,9.869502282761976,0.0,0.0,0.0,0.0,0.0,0.0,0.0,0.0,0.0
120711,1729051190,320884415,0.010267303763189505,0.011104307220004219,-0.0001140243367982387,0.999885625375747,0.0,0.0,0.0,0.0,0.0,0.0,0.0,0.0,0.0,-0.0067790156980829875,-5e-324,3.7219699146339354e-16,0.0,0.0,0.0,0.0,0.0,0.0,0.0,0.0,0.0,-0.2194511891785865,0.2028638183005855,9.87692251223531,0.0,0.0,0.0,0.0,0.0,0.0,0.0,0.0,0.0
120712,1729051190,328834314,0.009960447109102374,0.011029446553242903,-0.00010987035330851359,0.9998895582666224,0.0,0.0,0.0,0.0,0.0,0.0,0.0,0.0,0.0,-0.006621549787621982,-5e-324,2.233181948780361e-16,0.0,0.0,0.0,0.0,0.0,0.0,0.0,0.0,0.0,-0.21834081360480814,0.19713564327527316,9.893824498552123,0.0,0.0,0.0,0.0,0.0,0.0,0.0,0.0,0.0
120713,1729051190,336855916,0.010391452837870052,0.010693225815741933,-0.0001111305067986753,0.9998888239597352,0.0,0.0,0.0,0.0,0.0,0.0,0.0,0.0,0.0,-0.00695276030280741,-5e-324,0.0017027602458482604,0.0,0.0,0.0,0.0,0.0,0.0,0.0,0.0,0.0,-0.2116890841101505,0.205669746560867,9.893910043369553,0.0,0.0,0.0,0.0,0.0,0.0,0.0,0.0,0.0
120714,1729051190,344862185,0.0102776832042011,0.01027655934071526,-0.0001056303791101028,0.9998943696202583,0.0,0.0,0.0,0.0,0.0,0.0,0.0,0.0,0.0,-0.006725796550456635,-5e-324,0.0010216561475089561,0.0,0.0,0.0,0.0,0.0,0.0,0.0,0.0,0.0,-0.20338848342507465,0.20336818338573895,9.891567168599856,0.0,0.0,0.0,0.0,0.0,0.0,0.0,0.0,0.0
120715,1729051190,352853696,0.01063146249509315,0.010545133577299757,-0.00011212276406483902,0.9998878735095941,0.0,0.0,0.0,0.0,0.0,0.0,0.0,0.0,0.0,-0.006163928237584139,-5e-324,0.0006129936885053736,0.0,0.0,0.0,0.0,0.0,0.0,0.0,0.0,0.0,-0.20894261031871667,0.21060637145722458,9.902611292370851,0.0,0.0,0.0,0.0,0.0,0.0,0.0,0.0,0.0
120716,1729051190,360902715,0.011267403175057615,0.010221960022952694,-0.00011518827610449122,0.9998842652480541,0.0,0.0,0.0,0.0,0.0,0.0,0.0,0.0,0.0,-0.0062524973113226735,-5e-324,0.0003677962131032242,0.0,0.0,0.0,0.0,0.0,0.0,0.0,0.0,0.0,-0.2022194394822456,0.22285014977863163,9.886732271027979,0.0,0.0,0.0,0.0,0.0,0.0,0.0,0.0,0.0
120717,1729051190,368894171,0.010852878166602326,0.010236816961922707,-0.00011111129410634823,0.9998886989401716,0.0,0.0,0.0,0.0,0.0,0.0,0.0,0.0,0.0,-0.006731328817027826,-5e-324,0.0002206777278619345,0.0,0.0,0.0,0.0,0.0,0.0,0.0,0.0,0.0,-0.20249509996864423,0.2146341059804602,9.886063404364835,0.0,0.0,0.0,0.0,0.0,0.0,0.0,0.0,0.0
120718,1729051190,376830736,0.01047655294015657,0.010469178799484008,-0.00010969293847649307,0.9998903070343346,0.0,0.0,0.0,0.0,0.0,0.0,0.0,0.0,0.0,-0.006592937658988885,-5e-324,0.0001324066367171607,0.0,0.0,0.0,0.0,0.0,0.0,0.0,0.0,0.0,-0.2069700592487647,0.2070708578753855,9.880394840714603,0.0,0.0,0.0,0.0,0.0,0.0,0.0,0.0,0.0
120719,1729051190,384862662,0.010526655479743074,0.010158007054052948,-0.00010694128432385747,0.999892990764843,0.0,0.0,0.0,0.0,0.0,0.0,0.0,0.0,0.0,-0.0069355930256275525,-5e-324,7.944398203029641e-05,0.0,0.0,0.0,0.0,0.0,0.0,0.0,0.0,0.0,-0.2007964886742588,0.20803957283070004,9.87938790418462,0.0,0.0,0.0,0.0,0.0,0.0,0.0,0.0,0.0
120720,1729051190,392798428,0.011208174099031324,0.010695080470961012,-0.00011988671252651434,0.9998799816549292,0.0,0.0,0.0,0.0,0.0,0.0,0.0,0.0,0.0,-0.007141186245610753,-5e-324,4.766638921817785e-05,0.0,0.0,0.0,0.0,0.0,0.0,0.0,0.0,0.0,-0.21145755629049276,0.22154949076873254,9.880938523760772,0.0,0.0,0.0,0.0,0.0,0.0,0.0,0.0,0.0
120721,1729051190,400888666,0.01108323181192714,0.010786513370332467,-0.00011956372887441366,0.9998803922502079,0.0,0.0,0.0,0.0,0.0,0.0,0.0,0.0,0.0,-0.0076902322390627045,-5e-324,2.859983353090671e-05,0.0,0.0,0.0,0.0,0.0,0.0,0.0,0.0,0.0,-0.21330521370593628,0.2191209542268645,9.882826576170526,0.0,0.0,0.0,0.0,0.0,0.0,0.0,0.0,0.0
120722,1729051190,408853140,0.011345008178795569,0.010668932276187862,-0.00012105380562177957,0.9998787176550391,0.0,0.0,0.0,0.0,0.0,0.0,0.0,0.0,0.0,-0.008019659835133875,-5e-324,1.7159900118544024e-05,0.0,0.0,0.0,0.0,0.0,0.0,0.0,0.0,0.0,-0.21082250566496802,0.22412817678416558,9.875340281639817,0.0,0.0,0.0,0.0,0.0,0.0,0.0,0.0,0.0
120723,1729051190,416829953,0.01115522304709303,0.009644904045882271,-0.00010760275697736578,0.9998912567106295,0.0,0.0,0.0,0.0,0.0,0.0,0.0,0.0,0.0,-0.007791626331314546,-5e-324,0.0017130561859192528,0.0,0.0,0.0,0.0,0.0,0.0,0.0,0.0,0.0,-0.1904186877251527,0.22018932550409312,9.86701778226514,0.0,0.0,0.0,0.0,0.0,0.0,0.0,0.0,0.0
120724,1729051190,424824006,0.010890270338146359,0.009558764078264026,-0.00010410845576886609,0.9998950050893782,0.0,0.0,0.0,0.0,0.0,0.0,0.0,0.0,0.0,-0.007654806229022948,-5e-324,0.0027305939573996777,0.0,0.0,0.0,0.0,0.0,0.0,0.0,0.0,0.0,-0.18871088426595098,0.21495297274386213,9.866812685960646,0.0,0.0,0.0,0.0,0.0,0.0,0.0,0.0,0.0
120725,1729051190,432845712,0.0106721349680013,0.010223908304445197,-0.00010912284808326257,0.9998907766983407,0.0,0.0,0.0,0.0,0.0,0.0,0.0,0.0,0.0,-0.0071470241061859585,-5e-324,0.0016383563744398065,0.0,0.0,0.0,0.0,0.0,0.0,0.0,0.0,0.0,-0.2018119919853518,0.21061406025764537,9.865253107181857,0.0,0.0,0.0,0.0,0.0,0.0,0.0,0.0,0.0
120726,1729051190,440817875,0.010786208500896495,0.010867830050482056,-0.00011723642564682544,0.9998827602433145,0.0,0.0,0.0,0.0,0.0,0.0,0.0,0.0,0.0,-0.007268044893945795,-5e-324,0.0009830138246638839,0.0,0.0,0.0,0.0,0.0,0.0,0.0,0.0,0.0,-0.21470048010332043,0.21303853625224348,9.873175906057162,0.0,0.0,0.0,0.0,0.0,0.0,0.0,0.0,0.0
120727,1729051190,448790343,0.010081074672863006,0.011401359580046535,-0.00011495127128220696,0.9998841771522199,0.0,0.0,0.0,0.0,0.0,0.0,0.0,0.0,0.0,-0.007340657366601699,-5e-324,0.0005898082947983303,0.0,0.0,0.0,0.0,0.0,0.0,0.0,0.0,0.0,-0.22530661496628912,0.19917033122400232,9.876253644220233,0.0,0.0,0.0,0.0,0.0,0.0,0.0,0.0,0.0
120728,1729051190,457010528,0.010791519589988245,0.010904138903120366,-0.00011768607934456058,0.9998823075791006,0.0,0.0,0.0,0.0,0.0,0.0,0.0,0.0,0.0,-0.007384224850195241,-5e-324,0.00035388497687899816,0.0,0.0,0.0,0.0,0.0,0.0,0.0,0.0,0.0,-0.21538972459500785,0.21311548364651076,9.871875362801672,0.0,0.0,0.0,0.0,0.0,0.0,0.0,0.0,0.0
120729,1729051190,464813815,0.011120217546402578,0.01092036367387796,-0.00012145157264933729,0.9998785284565652,0.0,0.0,0.0,0.0,0.0,0.0,0.0,0.0,0.0,-0.007836055401813397,-5e-324,0.0002123309861273989,0.0,0.0,0.0,0.0,0.0,0.0,0.0,0.0,0.0,-0.2161433550206766,0.22004605410392208,9.891514469389987,0.0,0.0,0.0,0.0,0.0,0.0,0.0,0.0,0.0
120730,1729051190,472899226,0.011115705607492851,0.011370234535978326,-0.00012640416189677332,0.999873563445615,0.0,0.0,0.0,0.0,0.0,0.0,0.0,0.0,0.0,-0.0072557736098602275,-5e-324,0.00012739859167643932,0.0,0.0,0.0,0.0,0.0,0.0,0.0,0.0,0.0,-0.22449639875459346,0.21941599305805637,9.867145488274616,0.0,0.0,0.0,0.0,0.0,0.0,0.0,0.0,0.0
120731,1729051190,480800276,0.011091780435612781,0.011037356271838094,-0.00012243892382826142,0.9998775595951769,0.0,0.0,0.0,0.0,0.0,0.0,0.0,0.0,0.0,-0.006907604534688326,-5e-324,7.643915500586359e-05,0.0,0.0,0.0,0.0,0.0,0.0,0.0,0.0,0.0,-0.21801605702619356,0.21903795643053695,9.871438292720631,0.0,0.0,0.0,0.0,0.0,0.0,0.0,0.0,0.0
120732,1729051190,488881140,0.010525374698159524,0.010165142367416813,-0.00010700338894521647,0.9998929317273867,0.0,0.0,0.0,0.0,0.0,0.0,0.0,0.0,0.0,-0.007124393151047216,-5e-324,4.5863493003518154e-05,0.0,0.0,0.0,0.0,0.0,0.0,0.0,0.0,0.0,-0.20095974285829427,0.20803722698332217,9.880478319870658,0.0,0.0,0.0,0.0,0.0,0.0,0.0,0.0,0.0
120733,1729051190,496783474,0.010593449026237661,0.010981813989853265,-0.00011634883254226122,0.9998835757537824,0.0,0.0,0.0,0.0,0.0,0.0,0.0,0.0,0.0,-0.007680156382324582,-5e-324,2.751809580211089e-05,0.0,0.0,0.0,0.0,0.0,0.0,0.0,0.0,0.0,-0.21706217261927344,0.2093376547935089,9.878240890848177,0.0,0.0,0.0,0.0,0.0,0.0,0.0,0.0,0.0
120734,1729051190,504977687,0.011252878891281497,0.01146029583472132,-0.00012897795917476095,0.9998710005299307,0.0,0.0,0.0,0.0,0.0,0.0,0.0,0.0,0.0,-0.008013614321091002,-5e-324,1.6510857481266533e-05,0.0,0.0,0.0,0.0,0.0,0.0,0.0,0.0,0.0,-0.2264842103098453,0.22232833994641785,9.87618017293664,0.0,0.0,0.0,0.0,0.0,0.0,0.0,0.0,0.0
120735,1729051190,512819836,0.010889142361649201,0.01146115205457197,-0.00012481771623290154,0.9998750186862093,0.0,0.0,0.0,0.0,0.0,0.0,0.0,0.0,0.0,-0.00736230896142679,-5e-324,9.906514488759919e-06,0.0,0.0,0.0,0.0,0.0,0.0,0.0,0.0,0.0,-0.2263913489398134,0.21503928057917884,9.8715918598655,0.0,0.0,0.0,0.0,0.0,0.0,0.0,0.0,0.0
120736,1729051190,521178672,0.011243526345430245,0.011258279158169886,-0.00012659878558537985,0.9998734011055919,0.0,0.0,0.0,0.0,0.0,0.0,0.0,0.0,0.0,-0.006545835684166232,-5e-324,5.943908693255951e-06,0.0,0.0,0.0,0.0,0.0,0.0,0.0,0.0,0.0,-0.22226548929552867,0.22191859276156978,9.866205250196641,0.0,0.0,0.0,0.0,0.0,0.0,0.0,0.0,0.0
120737,1729051190,528778673,0.010873850729770537,0.01110015936354668,-0.00012071605145222193,0.9998792583407485,0.0,0.0,0.0,0.0,0.0,0.0,0.0,0.0,0.0,-0.006481641779271929,-5e-324,3.5663452159535705e-06,0.0,0.0,0.0,0.0,0.0,0.0,0.0,0.0,0.0,-0.21907171301091097,0.21455401210225436,9.863212704561345,0.0,0.0,0.0,0.0,0.0,0.0,0.0,0.0,0.0
120738,1729051190,536875165,0.010427794976666058,0.010550840702364625,-0.00011003411201450048,0.9998899583178602,0.0,0.0,0.0,0.0,0.0,0.0,0.0,0.0,0.0,-0.006868815497797378,-5e-324,2.139807129572142e-06,0.0,0.0,0.0,0.0,0.0,0.0,0.0,0.0,0.0,-0.20805748093154658,0.20558628055236824,9.855431673029775,0.0,0.0,0.0,0.0,0.0,0.0,0.0,0.0,0.0
120739,1729051190,544804200,0.010206586510632503,0.010764045809659095,-0.00010987625462464873,0.9998899683649283,0.0,0.0,0.0,0.0,0.0,0.0,0.0,0.0,0.0,-0.0066754296674506166,-5e-324,1.2838842777432853e-06,0.0,0.0,0.0,0.0,0.0,0.0,0.0,0.0,0.0,-0.21270168948666235,0.2016421626185303,9.875902171542474,0.0,0.0,0.0,0.0,0.0,0.0,0.0,0.0,0.0
120740,1729051190,552989979,0.010571888912499416,0.011207396874963096,-0.00011849742032782825,0.9998813006444666,0.0,0.0,0.0,0.0,0.0,0.0,0.0,0.0,0.0,-0.006559398169242559,-5e-324,7.703305666459711e-07,0.0,0.0,0.0,0.0,0.0,0.0,0.0,0.0,0.0,-0.221713138936138,0.20909191866486815,9.886747949653998,0.0,0.0,0.0,0.0,0.0,0.0,0.0,0.0,0.0
120741,1729051190,560779475,0.010583708890869084,0.011364527753578168,-0.00012029336058879458,0.9998794018003165,0.0,0.0,0.0,0.0,0.0,0.0,0.0,0.0,0.0,-0.006489779270317725,-5e-324,4.6219833998758267e-07,0.0,0.0,0.0,0.0,0.0,0.0,0.0,0.0,0.0,-0.22448638677965155,0.20901278913837398,9.871947021745523,0.0,0.0,0.0,0.0,0.0,0.0,0.0,0.0,0.0
120742,1729051190,569139365,0.010780849446579173,0.011151098125526483,-0.0001202327742163282,0.9998796986837393,0.0,0.0,0.0,0.0,0.0,0.0,0.0,0.0,0.0,-0.006448007930962825,-5e-324,0.001703037564852119,0.0,0.0,0.0,0.0,0.0,0.0,0.0,0.0,0.0,-0.22040425150138468,0.21303545424474313,9.877910515293408,0.0,0.0,0.0,0.0,0.0,0.0,0.0,0.0,0.0
120743,1729051190,576781314,0.010293739477513223,0.011048733769438069,-0.00011374575749482334,0.9998859692342742,0.0,0.0,0.0,0.0,0.0,0.0,0.0,0.0,0.0,-0.006848635188811916,-5e-324,0.0010218225389112714,0.0,0.0,0.0,0.0,0.0,0.0,0.0,0.0,0.0,-0.21819439050044018,0.20323862484176772,9.869757023287374,0.0,0.0,0.0,0.0,0.0,0.0,0.0,0.0,0.0
120744,1729051190,584785506,0.010053457347140991,0.010711598922690052,-0.00010770022555272675,0.999892083199257,0.0,0.0,0.0,0.0,0.0,0.0,0.0,0.0,0.0,-0.007089011543521371,-5e-324,0.0006130935233467628,0.0,0.0,0.0,0.0,0.0,0.0,0.0,0.0,0.0,-0.21160123024752975,0.19855762803006063,9.873005213728282,0.0,0.0,0.0,0.0,0.0,0.0,0.0,0.0,0.0
120745,1729051190,592890025,0.010199099354866077,0.011077501909254163,-0.00011299335366651314,0.9998866208507353,0.0,0.0,0.0,0.0,0.0,0.0,0.0,0.0,0.0,-0.007233237356347044,-5e-324,0.00036785611400805767,0.0,0.0,0.0,0.0,0.0,0.0,0.0,0.0,0.0,-0.21889808189851784,0.20149511392741137,9.875911808656891,0.0,0.0,0.0,0.0,0.0,0.0,0.0,0.0,0.0
120746,1729051190,600828049,0.010357102409310459,0.011355233745773081,-0.00011762121212720365,0.9998818806546663,0.0,0.0,0.0,0.0,0.0,0.0,0.0,0.0,0.0,-0.006468392721118384,-5e-324,0.00022071366840483459,0.0,0.0,0.0,0.0,0.0,0.0,0.0,0.0,0.0,-0.2244732937191888,0.2046941264619156,9.879571126942182,0.0,0.0,0.0,0.0,0.0,0.0,0.0,0.0,0.0
120747,1729051190,608812643,0.01050001383207249,0.011581976051102174,-0.00012162577275805869,0.9998777889059489,0.0,0.0,0.0,0.0,0.0,0.0,0.0,0.0,0.0,-0.0060094859399811885,-5e-324,0.00013242820104290075,0.0,0.0,0.0,0.0,0.0,0.0,0.0,0.0,0.0,-0.22901552164166952,0.20757121464668057,9.88200613807937,0.0,0.0,0.0,0.0,0.0,0.0,0.0,0.0,0.0
120748,1729051190,616899582,0.010878439173977492,0.011151491193079436,-0.00012132554305331645,0.9998786371782434,0.0,0.0,0.0,0.0,0.0,0.0,0.0,0.0,0.0,-0.0057341418712988715,-5e-324,7.945692062574044e-05,0.0,0.0,0.0,0.0,0.0,0.0,0.0,0.0,0.0,-0.22024869042640796,0.21480413137589896,9.87053845579684,0.0,0.0,0.0,0.0,0.0,0.0,0.0,0.0,0.0
120749,1729051190,624847286,0.010546213677212042,0.011375320529252705,-0.0001199809976266334,0.9998796752932283,0.0,0.0,0.0,0.0,0.0,0.0,0.0,0.0,0.0,-0.005994625491551513,-5e-324,4.7674152375444264e-05,0.0,0.0,0.0,0.0,0.0,0.0,0.0,0.0,0.0,-0.22480481850389167,0.20836997394272688,9.876586535392168,0.0,0.0,0.0,0.0,0.0,0.0,0.0,0.0,0.0
120750,1729051190,632870404,0.010792332881646976,0.010719475901479095,-0.00011570153939885442,0.9998842958065314,0.0,0.0,0.0,0.0,0.0,0.0,0.0,0.0,0.0,-0.006576605725165129,-5e-324,2.8604491425266558e-05,0.0,0.0,0.0,0.0,0.0,0.0,0.0,0.0,0.0,-0.21197618455936626,0.21336802562540172,9.882849004975535,0.0,0.0,0.0,0.0,0.0,0.0,0.0,0.0,0.0
120751,1729051190,640780409,0.010817204555334616,0.01039698607643499,-0.00011247898660116093,0.9998874327216098,0.0,0.0,0.0,0.0,0.0,0.0,0.0,0.0,0.0,-0.0060744137424092355,-5e-324,0.0017199229407032863,0.0,0.0,0.0,0.0,0.0,0.0,0.0,0.0,0.0,-0.20547610502272914,0.2137332348088348,9.877029680084929,0.0,0.0,0.0,0.0,0.0,0.0,0.0,0.0,0.0
120752,1729051190,648881666,0.01066758078468691,0.01095982521558946,-0.0001169284981402715,0.999883028798455,0.0,0.0,0.0,0.0,0.0,0.0,0.0,0.0,0.0,-0.0057730985527557,-5e-324,0.002734714010270098,0.0,0.0,0.0,0.0,0.0,0.0,0.0,0.0,0.0,-0.2164201075937156,0.21060047799467585,9.868749681830256,0.0,0.0,0.0,0.0,0.0,0.0,0.0,0.0,0.0
120753,1729051190,656842549,0.010523947135520325,0.011170438193652594,-0.0001175709485279668,0.999882220076106,0.0,0.0,0.0,0.0,0.0,0.0,0.0,0.0,0.0,-0.006017999500425609,-5e-324,0.0016408284061620588,0.0,0.0,0.0,0.0,0.0,0.0,0.0,0.0,0.0,-0.22083172764216688,0.20800256340813364,9.880062254166512,0.0,0.0,0.0,0.0,0.0,0.0,0.0,0.0,0.0
120754,1729051190,664820889,0.010737454323632737,0.011245433898551538,-0.00012076193186021659,0.9998791090465072,0.0,0.0,0.0,0.0,0.0,0.0,0.0,0.0,0.0,-0.006590630130489586,-5e-324,0.0009844970436972353,0.0,0.0,0.0,0.0,0.0,0.0,0.0,0.0,0.0,-0.2222815988411595,0.2121898986405833,9.87847009175772,0.0,0.0,0.0,0.0,0.0,0.0,0.0,0.0,0.0
120755,1729051190,672842061,0.010718950030642686,0.011968682425764371,-0.00012830827206504128,0.9998709108121003,0.0,0.0,0.0,0.0,0.0,0.0,0.0,0.0,0.0,-0.007359898569990004,-5e-324,0.0005906982262183411,0.0,0.0,0.0,0.0,0.0,0.0,0.0,0.0,0.0,-0.23631963069141446,0.21158983762184996,9.867459147339787,0.0,0.0,0.0,0.0,0.0,0.0,0.0,0.0,0.0
120756,1729051190,680856604,0.011141242073712336,0.010920139581597921,-0.00012167872724418609,0.9998782968295995,0.0,0.0,0.0,0.0,0.0,0.0,0.0,0.0,0.0,-0.007395769572228223,-5e-324,0.0003544189357310047,0.0,0.0,0.0,0.0,0.0,0.0,0.0,0.0,0.0,-0.2157726097136768,0.2200883471531881,9.874738950317933,0.0,0.0,0.0,0.0,0.0,0.0,0.0,0.0,0.0
120757,1729051190,688821548,0.01063602073123272,0.01013860049288413,-0.00010784600913168987,0.9998920302774139,0.0,0.0,0.0,0.0,0.0,0.0,0.0,0.0,0.0,-0.006991602112109124,-5e-324,0.0002126513614386028,0.0,0.0,0.0,0.0,0.0,0.0,0.0,0.0,0.0,-0.20009251480281548,0.209864562246991,9.863544521313807,0.0,0.0,0.0,0.0,0.0,0.0,0.0,0.0,0.0
120758,1729051190,696808907,0.010181122343618839,0.010766798426980065,-0.00010963012960195534,0.999890198362146,0.0,0.0,0.0,0.0,0.0,0.0,0.0,0.0,0.0,-0.006749101636037664,-5e-324,0.00012759081686316168,0.0,0.0,0.0,0.0,0.0,0.0,0.0,0.0,0.0,-0.21271111312973617,0.20109666947710084,9.87382669569844,0.0,0.0,0.0,0.0,0.0,0.0,0.0,0.0,0.0
120759,1729051190,704930220,0.009811837835081506,0.01042958937163754,-0.00010234393340979522,0.9998974652580915,0.0,0.0,0.0,0.0,0.0,0.0,0.0,0.0,0.0,-0.0070292914118568195,-5e-324,7.6554490117897e-05,0.0,0.0,0.0,0.0,0.0,0.0,0.0,0.0,0.0,-0.2059170621649511,0.19368115232102612,9.867785571862424,0.0,0.0,0.0,0.0,0.0,0.0,0.0,0.0,0.0
120760,1729051190,712865816,0.010425416139923122,0.01052798810437848,-0.00010977070728993422,0.9998902240322062,0.0,0.0,0.0,0.0,0.0,0.0,0.0,0.0,0.0,-0.007623095338810344,-5e-324,4.59326940707382e-05,0.0,0.0,0.0,0.0,0.0,0.0,0.0,0.0,0.0,-0.20830497606850187,0.20623067381449067,9.888581754494407,0.0,0.0,0.0,0.0,0.0,0.0,0.0,0.0,0.0
120761,1729051190,720944119,0.010482841586541282,0.01066470408929544,-0.00011180890661600402,0.9998881745563989,0.0,0.0,0.0,0.0,0.0,0.0,0.0,0.0,0.0,-0.007553687633520427,-5e-324,2.755961644244292e-05,0.0,0.0,0.0,0.0,0.0,0.0,0.0,0.0,0.0,-0.2106954050746949,0.2070566220621319,9.873765565147815,0.0,0.0,0.0,0.0,0.0,0.0,0.0,0.0,0.0
120762,1729051190,728807693,0.010212481600657651,0.010333068870560335,-0.00010553741463213807,0.999894455314723,0.0,0.0,0.0,0.0,0.0,0.0,0.0,0.0,0.0,-0.007086352948884446,-5e-324,0.001719296015713592,0.0,0.0,0.0,0.0,0.0,0.0,0.0,0.0,0.0,-0.20398937683387944,0.201566686860326,9.86655179270197,0.0,0.0,0.0,0.0,0.0,0.0,0.0,0.0,0.0
120763,1729051190,737119724,0.010809722593103517,0.009996623596286546,-0.00010807244332150786,0.9998915969916345,0.0,0.0,0.0,0.0,0.0,0.0,0.0,0.0,0.0,-0.006805952138102857,-5e-324,0.0010315776094281552,0.0,0.0,0.0,0.0,0.0,0.0,0.0,0.0,0.0,-0.19757155822923392,0.21359561636424246,9.877546419859462,0.0,0.0,0.0,0.0,0.0,0.0,0.0,0.0,0.0
120764,1729051190,744790501,0.010774297484005463,0.01018927375151313,-0.00010979434013060554,0.999890034533471,0.0,0.0,0.0,0.0,0.0,0.0,0.0,0.0,0.0,-0.006637711651633904,-5e-324,0.0006189465656568931,0.0,0.0,0.0,0.0,0.0,0.0,0.0,0.0,0.0,-0.2016217325449622,0.21315152875409235,9.889410439806303,0.0,0.0,0.0,0.0,0.0,0.0,0.0,0.0,0.0
120765,1729051190,752890872,0.010727050572264528,0.010180786321860171,-0.00010922175542801184,0.9998906290422452,0.0,0.0,0.0,0.0,0.0,0.0,0.0,0.0,0.0,-0.006111077298290501,-5e-324,0.0003713679393941358,0.0,0.0,0.0,0.0,0.0,0.0,0.0,0.0,0.0,-0.2011787951422117,0.21192739552393977,9.875938717497062,0.0,0.0,0.0,0.0,0.0,0.0,0.0,0.0,0.0
120766,1729051190,760823952,0.011393516644715784,0.010385923781801365,-0.00011834626139143298,0.999881146116791,0.0,0.0,0.0,0.0,0.0,0.0,0.0,0.0,0.0,-0.005795096686284459,-5e-324,0.00022282076363648148,0.0,0.0,0.0,0.0,0.0,0.0,0.0,0.0,0.0,-0.20522259568884266,0.22507928521475448,9.875038289091988,0.0,0.0,0.0,0.0,0.0,0.0,0.0,0.0,0.0
120767,1729051190,769392414,0.011134424876494594,0.01010415088403487,-0.00011251662866699859,0.9998869526389425,0.0,0.0,0.0,0.0,0.0,0.0,0.0,0.0,0.0,-0.006031198380542865,-5e-324,0.0001336924581818889,0.0,0.0,0.0,0.0,0.0,0.0,0.0,0.0,0.0,-0.19950859037228996,0.2198023098983839,9.86803368756652,0.0,0.0,0.0,0.0,0.0,0.0,0.0,0.0,0.0
120768,1729051190,776788716,0.011020558225302898,0.010462100216841328,-0.00011531149932193819,0.9998845325629924,0.0,0.0,0.0,0.0,0.0,0.0,0.0,0.0,0.0,-0.0065985494585599404,-5e-324,8.021547490913333e-05,0.0,0.0,0.0,0.0,0.0,0.0,0.0,0.0,0.0,-0.20661467448704585,0.2175938053726241,9.869816430801631,0.0,0.0,0.0,0.0,0.0,0.0,0.0,0.0,0.0
120769,1729051190,784845052,0.011068938742460895,0.010333175953786378,-0.00011439040777537179,0.9998853389187474,0.0,0.0,0.0,0.0,0.0,0.0,0.0,0.0,0.0,-0.006513270043908154,-5e-324,4.812928494548e-05,0.0,0.0,0.0,0.0,0.0,0.0,0.0,0.0,0.0,-0.20417456030746187,0.21866290431732446,9.874956219564963,0.0,0.0,0.0,0.0,0.0,0.0,0.0,0.0,0.0
120770,1729051190,792861722,0.011237412925058416,0.010394799216066305,-0.00011682434046305858,0.9998828206605426,0.0,0.0,0.0,0.0,0.0,0.0,0.0,0.0,0.0,-0.006462102395117082,-5e-324,0.0017316378168154144,0.0,0.0,0.0,0.0,0.0,0.0,0.0,0.0,0.0,-0.20534411362588337,0.22193798551031654,9.872533429004603,0.0,0.0,0.0,0.0,0.0,0.0,0.0,0.0,0.0
120771,1729051190,800883188,0.010893274534253844,0.010374473755665562,-0.0001130247805804527,0.9998868406422866,0.0,0.0,0.0,0.0,0.0,0.0,0.0,0.0,0.0,-0.0064314018058424394,-5e-324,0.002741742935937375,0.0,0.0,0.0,0.0,0.0,0.0,0.0,0.0,0.0,-0.20484874478685813,0.21504448808353366,9.8682067126762,0.0,0.0,0.0,0.0,0.0,0.0,0.0,0.0,0.0
120772,1729051190,808787171,0.010640155356299948,0.010679552008854728,-0.00011364500778588815,0.999886354216166,0.0,0.0,0.0,0.0,0.0,0.0,0.0,0.0,0.0,-0.006838671513739685,-5e-324,0.001645045761562425,0.0,0.0,0.0,0.0,0.0,0.0,0.0,0.0,0.0,-0.21101586796586488,0.2101901291294171,9.874948069353765,0.0,0.0,0.0,0.0,0.0,0.0,0.0,0.0,0.0
120773,1729051190,816815864,0.01024133343970458,0.010664190185924167,-0.00010922746796359587,0.9998906831281185,0.0,0.0,0.0,0.0,0.0,0.0,0.0,0.0,0.0,-0.007083033338478031,-5e-324,0.000987027456937455,0.0,0.0,0.0,0.0,0.0,0.0,0.0,0.0,0.0,-0.21064599905100329,0.20224969027061898,9.872049698545851,0.0,0.0,0.0,0.0,0.0,0.0,0.0,0.0,0.0
120774,1729051190,824839646,0.010526458974444831,0.010815629382215097,-0.00011386324857465872,0.9998860949416621,0.0,0.0,0.0,0.0,0.0,0.0,0.0,0.0,0.0,-0.007655340494783071,-5e-324,0.0022949767200105995,0.0,0.0,0.0,0.0,0.0,0.0,0.0,0.0,0.0,-0.21353653986028945,0.20778049409401203,9.867198213902903,0.0,0.0,0.0,0.0,0.0,0.0,0.0,0.0,0.0
120775,1729051190,832848541,0.011551341905082968,0.010391248547083273,-0.00012004735693685306,0.9998792797345372,0.0,0.0,0.0,0.0,0.0,0.0,0.0,0.0,0.0,-0.007998724788566097,-5e-324,0.0013769860320063598,0.0,0.0,0.0,0.0,0.0,0.0,0.0,0.0,0.0,-0.20545463753922052,0.22833722834117282,9.881046734738225,0.0,0.0,0.0,0.0,0.0,0.0,0.0,0.0,0.0
120776,1729051190,840903996,0.01117888939389564,0.010481334397800983,-0.00011718343840142292,0.9998825732700828,0.0,0.0,0.0,0.0,0.0,0.0,0.0,0.0,0.0,-0.00777906530337388,-5e-324,0.0008261916192038158,0.0,0.0,0.0,0.0,0.0,0.0,0.0,0.0,0.0,-0.20706984062900108,0.22079939511017244,9.873314696116372,0.0,0.0,0.0,0.0,0.0,0.0,0.0,0.0,0.0
120777,1729051190,848766239,0.011156270839603534,0.011172822524262894,-0.00012466257489815606,0.9998753372881227,0.0,0.0,0.0,0.0,0.0,0.0,0.0,0.0,0.0,-0.007647269612258549,-5e-324,0.0004957149715222894,0.0,0.0,0.0,0.0,0.0,0.0,0.0,0.0,0.0,-0.22072823128169752,0.22034683799383784,9.872985035931542,0.0,0.0,0.0,0.0,0.0,0.0,0.0,0.0,0.0
120778,1729051190,856841342,0.010871380933530683,0.011474532569679625,-0.0001247596022508139,0.9998750585017846,0.0,0.0,0.0,0.0,0.0,0.0,0.0,0.0,0.0,-0.007142502136127319,-5e-324,0.00029742898291337366,0.0,0.0,0.0,0.0,0.0,0.0,0.0,0.0,0.0,-0.22652906401315914,0.21456863990567768,9.866083475172205,0.0,0.0,0.0,0.0,0.0,0.0,0.0,0.0,0.0
120779,1729051190,864821692,0.010928357981416326,0.011677319978271644,-0.00012763025826564565,0.9998720892696586,0.0,0.0,0.0,0.0,0.0,0.0,0.0,0.0,0.0,-0.006839641650448581,-5e-324,0.0001784573897480242,0.0,0.0,0.0,0.0,0.0,0.0,0.0,0.0,0.0,-0.23048840398406734,0.21565070420707846,9.864097320210744,0.0,0.0,0.0,0.0,0.0,0.0,0.0,0.0,0.0
120780,1729051190,872818166,0.010946068757411706,0.010545613911776207,-0.00011544635208435395,0.9998844734658707,0.0,0.0,0.0,0.0,0.0,0.0,0.0,0.0,0.0,-0.006657925359041338,-5e-324,0.00010707443384881451,0.0,0.0,0.0,0.0,0.0,0.0,0.0,0.0,0.0,-0.2082037308670029,0.2160605226219033,9.866975770056134,0.0,0.0,0.0,0.0,0.0,0.0,0.0,0.0,0.0
120781,1729051190,880781228,0.01118127202566508,0.01032206416903565,-0.00011542717337909128,0.9998842037074823,0.0,0.0,0.0,0.0,0.0,0.0,0.0,0.0,0.0,-0.006974585645659023,-5e-324,6.424466030928871e-05,0.0,0.0,0.0,0.0,0.0,0.0,0.0,0.0,0.0,-0.203930893305358,0.22085539682509508,9.873730663449697,0.0,0.0,0.0,0.0,0.0,0.0,0.0,0.0,0.0
120782,1729051190,889022262,0.011328531103165888,0.010059091425330706,-0.00011396781057158984,0.999885226450556,0.0,0.0,0.0,0.0,0.0,0.0,0.0,0.0,0.0,-0.007590271879091667,-5e-324,3.854679618557323e-05,0.0,0.0,0.0,0.0,0.0,0.0,0.0,0.0,0.0,-0.19849414877618354,0.22349290118099455,9.861742448362786,0.0,0.0,0.0,0.0,0.0,0.0,0.0,0.0,0.0
120783,1729051190,896752091,0.01117730444034172,0.010391254967134755,-0.00011615974925826289,0.9998835313138068,0.0,0.0,0.0,0.0,0.0,0.0,0.0,0.0,0.0,-0.007959683619151253,-5e-324,2.3128077711343934e-05,0.0,0.0,0.0,0.0,0.0,0.0,0.0,0.0,0.0,-0.20528774903133515,0.22076584080625294,9.873224292259858,0.0,0.0,0.0,0.0,0.0,0.0,0.0,0.0,0.0
120784,1729051190,904797126,0.011710332235473644,0.010448623451017722,-0.0001223719243051629,0.9998768321208497,0.0,0.0,0.0,0.0,0.0,0.0,0.0,0.0,0.0,-0.007755640601724973,-5e-324,1.387684662680636e-05,0.0,0.0,0.0,0.0,0.0,0.0,0.0,0.0,0.0,-0.20625144702622297,0.23110061288218928,9.864790507973103,0.0,0.0,0.0,0.0,0.0,0.0,0.0,0.0,0.0
120785,1729051190,912802960,0.011044430503082958,0.010445430880107517,-0.0001153771680197018,0.99988444343169,0.0,0.0,0.0,0.0,0.0,0.0,0.0,0.0,0.0,-0.008058904852731237,-5e-324,8.326107976083815e-06,0.0,0.0,0.0,0.0,0.0,0.0,0.0,0.0,0.0,-0.20659024565714001,0.2183872830125167,9.884390514500659,0.0,0.0,0.0,0.0,0.0,0.0,0.0,0.0,0.0
120786,1729051190,920840534,0.011664021742213378,0.01029573119248605,-0.00012010416992348358,0.9998789597201242,0.0,0.0,0.0,0.0,0.0,0.0,0.0,0.0,0.0,-0.007389483280410932,-5e-324,4.995664785650288e-06,0.0,0.0,0.0,0.0,0.0,0.0,0.0,0.0,0.0,-0.2032022223454559,0.23015231853797877,9.863349955673051,0.0,0.0,0.0,0.0,0.0,0.0,0.0,0.0,0.0
120787,1729051190,928788887,0.011574993962113997,0.010582864344988601,-0.00012251166029744908,0.9998769961789928,0.0,0.0,0.0,0.0,0.0,0.0,0.0,0.0,0.0,-0.006136450214094685,-5e-324,2.9973988713901727e-06,0.0,0.0,0.0,0.0,0.0,0.0,0.0,0.0,0.0,-0.2088308536709454,0.22835279371067788,9.86149952784719,0.0,0.0,0.0,0.0,0.0,0.0,0.0,0.0,0.0
120788,1729051190,937028606,0.011183192001326319,0.010829496379107503,-0.00012112301564642744,0.999878814434055,0.0,0.0,0.0,0.0,0.0,0.0,0.0,0.0,0.0,-0.006236010497229,-5e-324,1.7984393228341035e-06,0.0,0.0,0.0,0.0,0.0,0.0,0.0,0.0,0.0,-0.21364455346233288,0.22056931416585984,9.859192170321593,0.0,0.0,0.0,0.0,0.0,0.0,0.0,0.0,0.0
120789,1729051190,944793046,0.011577947067959714,0.011097391824924325,-0.000128501542625486,0.999871382990697,0.0,0.0,0.0,0.0,0.0,0.0,0.0,0.0,0.0,-0.006295746667109589,-5e-324,1.079063593700462e-06,0.0,0.0,0.0,0.0,0.0,0.0,0.0,0.0,0.0,-0.2189269749973216,0.22834907507178154,9.8587654364703,0.0,0.0,0.0,0.0,0.0,0.0,0.0,0.0,0.0
120790,1729051190,953339335,0.011247514765530698,0.01097025109838225,-0.00012340329432700744,0.9998765582681017,0.0,0.0,0.0,0.0,0.0,0.0,0.0,0.0,0.0,-0.006331588369037943,-5e-324,0.0017034076840043465,0.0,0.0,0.0,0.0,0.0,0.0,0.0,0.0,0.0,-0.21635034393393981,0.22176418381260016,9.855875774333352,0.0,0.0,0.0,0.0,0.0,0.0,0.0,0.0,0.0
120791,1729051190,960813828,0.01118988571523752,0.011410767880293285,-0.00012770149929171613,0.9998722741062426,0.0,0.0,0.0,0.0,0.0,0.0,0.0,0.0,0.0,-0.006778783451656987,-5e-324,0.001022044610402608,0.0,0.0,0.0,0.0,0.0,0.0,0.0,0.0,0.0,-0.22509943243458266,0.22068629104927884,9.858451540039464,0.0,0.0,0.0,0.0,0.0,0.0,0.0,0.0,0.0
120792,1729051190,969302422,0.010806069156804236,0.011168760715877885,-0.00012070497832244514,0.9998792292490919,0.0,0.0,0.0,0.0,0.0,0.0,0.0,0.0,0.0,-0.0070471005012284135,-5e-324,0.0006132267662415648,0.0,0.0,0.0,0.0,0.0,0.0,0.0,0.0,0.0,-0.22005381839629648,0.2128569504108173,9.846589470166258,0.0,0.0,0.0,0.0,0.0,0.0,0.0,0.0,0.0
120793,1729051190,976835007,0.01040405362189301,0.011349381394108378,-0.00011809357145809094,0.9998814596061436,0.0,0.0,0.0,0.0,0.0,0.0,0.0,0.0,0.0,-0.00720809073097127,-5e-324,0.0003679360597449389,0.0,0.0,0.0,0.0,0.0,0.0,0.0,0.0,0.0,-0.22373021462176226,0.2050468838695373,9.851922076875143,0.0,0.0,0.0,0.0,0.0,0.0,0.0,0.0,0.0
120794,1729051190,984786295,0.010121203107340332,0.01157286541656808,-0.00011714516783679307,0.9998818011698781,0.0,0.0,0.0,0.0,0.0,0.0,0.0,0.0,0.0,-0.006878994807354951,-5e-324,0.00022076163584696333,0.0,0.0,0.0,0.0,0.0,0.0,0.0,0.0,0.0,-0.22833025401719798,0.19964258344672234,9.860388884552819,0.0,0.0,0.0,0.0,0.0,0.0,0.0,0.0,0.0
120795,1729051190,992816458,0.010685331967188986,0.011323904133973255,-0.00012101434398085606,0.9998787817687922,0.0,0.0,0.0,0.0,0.0,0.0,0.0,0.0,0.0,-0.006681537253185161,-5e-324,0.000132456981508178,0.0,0.0,0.0,0.0,0.0,0.0,0.0,0.0,0.0,-0.22366825250797503,0.21100463331998653,9.8712150531438,0.0,0.0,0.0,0.0,0.0,0.0,0.0,0.0,0.0
120796,1729051191,860451,0.011038284071620774,0.010329036310860412,-0.00011402786801990716,0.9998857206157554,0.0,0.0,0.0,0.0,0.0,0.0,0.0,0.0,0.0,-0.006563062720683286,-5e-324,7.947418890490679e-05,0.0,0.0,0.0,0.0,0.0,0.0,0.0,0.0,0.0,-0.20387221981533188,0.21782186324394504,9.864303225001514,0.0,0.0,0.0,0.0,0.0,0.0,0.0,0.0,0.0
120797,1729051191,8797065,0.011182906483707407,0.010708283207959982,-0.00011976408664158415,0.9998801232797252,0.0,0.0,0.0,0.0,0.0,0.0,0.0,0.0,0.0,-0.006917668062644192,-5e-324,4.768451334294407e-05,0.0,0.0,0.0,0.0,0.0,0.0,0.0,0.0,0.0,-0.21162705381302724,0.22095452053425768,9.876676119571222,0.0,0.0,0.0,0.0,0.0,0.0,0.0,0.0,0.0
120798,1729051191,16856905,0.011221182145151783,0.011165377777798795,-0.00012530443916169097,0.9998746940037746,0.0,0.0,0.0,0.0,0.0,0.0,0.0,0.0,0.0,-0.007130431267820736,-5e-324,2.8610708005766443e-05,0.0,0.0,0.0,0.0,0.0,0.0,0.0,0.0,0.0,-0.22058951719992573,0.2216370140783671,9.873325948842341,0.0,0.0,0.0,0.0,0.0,0.0,0.0,0.0,0.0
120799,1729051191,24822866,0.010706330894913029,0.011205656863138028,-0.00011998588184127638,0.9998798894549397,0.0,0.0,0.0,0.0,0.0,0.0,0.0,0.0,0.0,-0.007258089190926662,-5e-324,1.7166424803459866e-05,0.0,0.0,0.0,0.0,0.0,0.0,0.0,0.0,0.0,-0.2211785919117523,0.21127260273412965,9.86437266159056,0.0,0.0,0.0,0.0,0.0,0.0,0.0,0.0,0.0
120800,1729051191,32833974,0.010699757788655754,0.011167862361037204,-0.00011950771746805694,0.9998803827215806,0.0,0.0,0.0,0.0,0.0,0.0,0.0,0.0,0.0,-0.006483303821866156,-5e-324,1.0299854882075919e-05,0.0,0.0,0.0,0.0,0.0,0.0,0.0,0.0,0.0,-0.22057435607478576,0.2112788802439934,9.870732277374257,0.0,0.0,0.0,0.0,0.0,0.0,0.0,0.0,0.0
120801,1729051191,40870555,0.01058106137228997,0.01120051525805704,-0.00011852741083474692,0.9998812807275886,0.0,0.0,0.0,0.0,0.0,0.0,0.0,0.0,0.0,-0.006018432600429852,-5e-324,6.179912929245551e-06,0.0,0.0,0.0,0.0,0.0,0.0,0.0,0.0,0.0,-0.22116949523666832,0.2088884450897554,9.868562542694086,0.0,0.0,0.0,0.0,0.0,0.0,0.0,0.0,0.0
120802,1729051191,48819669,0.01055312469159902,0.011057622972265264,-0.00011670610918686043,0.9998831666315475,0.0,0.0,0.0,0.0,0.0,0.0,0.0,0.0,0.0,-0.005313819806106037,-5e-324,3.7079477575473307e-06,0.0,0.0,0.0,0.0,0.0,0.0,0.0,0.0,0.0,-0.21817469640957912,0.2081724444952595,9.860796357403562,0.0,0.0,0.0,0.0,0.0,0.0,0.0,0.0,0.0
120803,1729051191,56828209,0.010852771176608933,0.010838918449355528,-0.00011764614235888044,0.9998823537616921,0.0,0.0,0.0,0.0,0.0,0.0,0.0,0.0,0.0,-0.00531674219097378,-5e-324,2.2247686545283985e-06,0.0,0.0,0.0,0.0,0.0,0.0,0.0,0.0,0.0,-0.21398361545316935,0.21420718862098384,9.866431713367918,0.0,0.0,0.0,0.0,0.0,0.0,0.0,0.0,0.0
120804,1729051191,64842072,0.01049905163685197,0.010514211080078287,-0.00011040143353971628,0.9998895984515559,0.0,0.0,0.0,0.0,0.0,0.0,0.0,0.0,0.0,-0.005744185683356458,-5e-324,1.334861192717039e-06,0.0,0.0,0.0,0.0,0.0,0.0,0.0,0.0,0.0,-0.20763824422307348,0.2072935477917309,9.869812926946532,0.0,0.0,0.0,0.0,0.0,0.0,0.0,0.0,0.0
120805,1729051191,72873368,0.010991003574952382,0.010768822666251976,-0.00011837418379192484,0.9998816011340297,0.0,0.0,0.0,0.0,0.0,0.0,0.0,0.0,0.0,-0.006000651778786064,-5e-324,8.009167156302233e-07,0.0,0.0,0.0,0.0,0.0,0.0,0.0,0.0,0.0,-0.2129289877936097,0.21727115308910103,9.88165788190034,0.0,0.0,0.0,0.0,0.0,0.0,0.0,0.0,0.0
120806,1729051191,80793579,0.010694433200962921,0.010620766618572046,-0.00011359598350103254,0.9998864013031162,0.0,0.0,0.0,0.0,0.0,0.0,0.0,0.0,0.0,-0.006154531436043828,-5e-324,4.805500293781339e-07,0.0,0.0,0.0,0.0,0.0,0.0,0.0,0.0,0.0,-0.2098785096195252,0.21128670796674187,9.876075586073798,0.0,0.0,0.0,0.0,0.0,0.0,0.0,0.0,0.0
120807,1729051191,88832296,0.01038395436007663,0.011150899360545218,-0.00011580387462928122,0.9998839020230106,0.0,0.0,0.0,0.0,0.0,0.0,0.0,0.0,0.0,-0.006672549291860518,-5e-324,2.8833001762688035e-07,0.0,0.0,0.0,0.0,0.0,0.0,0.0,0.0,0.0,-0.22025865118187138,0.2050624190671545,9.87176852791381,0.0,0.0,0.0,0.0,0.0,0.0,0.0,0.0,0.0
120808,1729051191,96846024,0.01051425256246132,0.010573498059236576,-0.000111184791316459,0.9998888134536691,0.0,0.0,0.0,0.0,0.0,0.0,0.0,0.0,0.0,-0.006557669943888501,-5e-324,1.729980105761282e-07,0.0,0.0,0.0,0.0,0.0,0.0,0.0,0.0,0.0,-0.20900906400013844,0.20779219020982392,9.879239939990473,0.0,0.0,0.0,0.0,0.0,0.0,0.0,0.0,0.0
120809,1729051191,104997604,0.010919193775989194,0.01049312321128092,-0.00011458958683379243,0.9998853196450991,0.0,0.0,0.0,0.0,0.0,0.0,0.0,0.0,0.0,-0.006063052273643258,-5e-324,1.0379880634567692e-07,0.0,0.0,0.0,0.0,0.0,0.0,0.0,0.0,0.0,-0.20728713517742683,0.21565497721183183,9.87270945959975,0.0,0.0,0.0,0.0,0.0,0.0,0.0,0.0,0.0
120810,1729051191,112838545,0.010418349651546983,0.010489258205049118,-0.00010929270473563135,0.9998907047812529,0.0,0.0,0.0,0.0,0.0,0.0,0.0,0.0,0.0,-0.005766281671496114,-5e-324,6.227928380740616e-08,0.0,0.0,0.0,0.0,0.0,0.0,0.0,0.0,0.0,-0.20697223838184672,0.20552859912006785,9.86160856638485,0.0,0.0,0.0,0.0,0.0,0.0,0.0,0.0,0.0
120811,1729051191,121177079,0.01097098284950528,0.010636235726447554,-0.00011670358600378507,0.9998832403861765,0.0,0.0,0.0,0.0,0.0,0.0,0.0,0.0,0.0,-0.006013909371669858,-5e-324,3.736757028444369e-08,0.0,0.0,0.0,0.0,0.0,0.0,0.0,0.0,0.0,-0.20989576246270175,0.21645160405211886,9.862370055602394,0.0,0.0,0.0,0.0,0.0,0.0,0.0,0.0,0.0
120812,1729051191,128795217,0.011427297656653398,0.01103132783741718,-0.00012607417132668575,0.9998738474326214,0.0,0.0,0.0,0.0,0.0,0.0,0.0,0.0,0.0,-0.006588176053236135,-5e-324,2.2420542170666216e-08,0.0,0.0,0.0,0.0,0.0,0.0,0.0,0.0,0.0,-0.21787480122762107,0.22563902883752132,9.870248974279404,0.0,0.0,0.0,0.0,0.0,0.0,0.0,0.0,0.0
120813,1729051191,137213381,0.011392390217861235,0.011141509320160099,-0.00012694454070263838,0.9998730239886845,0.0,0.0,0.0,0.0,0.0,0.0,0.0,0.0,0.0,-0.007358426123637934,-5e-324,1.3452325302399728e-08,0.0,0.0,0.0,0.0,0.0,0.0,0.0,0.0,0.0,-0.22002860266040075,0.22492655939235653,9.869230241501237,0.0,0.0,0.0,0.0,0.0,0.0,0.0,0.0,0.0
120814,1729051191,144797040,0.010626558450160825,0.010875577043150165,-0.00011558331821538797,0.9998843856766544,0.0,0.0,0.0,0.0,0.0,0.0,0.0,0.0,0.0,-0.007394886104416982,-5e-324,8.071395181439837e-09,0.0,0.0,0.0,0.0,0.0,0.0,0.0,0.0,0.0,-0.21461711887163107,0.20965502743228892,9.862394077517928,0.0,0.0,0.0,0.0,0.0,0.0,0.0,0.0,0.0
120815,1729051191,153167001,0.010441866781493598,0.010638983739425496,-0.00011110319697639864,0.9998888773754758,0.0,0.0,0.0,0.0,0.0,0.0,0.0,0.0,0.0,-0.006139691908498316,-5e-324,4.842837108863902e-09,0.0,0.0,0.0,0.0,0.0,0.0,0.0,0.0,0.0,-0.2099337076022755,0.20599877207460773,9.86188368161818,0.0,0.0,0.0,0.0,0.0,0.0,0.0,0.0,0.0
120816,1729051191,160823520,0.010353599392255348,0.0106525939980647,-0.00011030486283757597,0.9998896504382743,0.0,0.0,0.0,0.0,0.0,0.0,0.0,0.0,0.0,-0.005386575390947116,-5e-324,2.9057022653183414e-09,0.0,0.0,0.0,0.0,0.0,0.0,0.0,0.0,0.0,-0.21047554316488093,0.2045232793580459,9.874745553209188,0.0,0.0,0.0,0.0,0.0,0.0,0.0,0.0,0.0
120817,1729051191,168872228,0.010029242385494384,0.011431451015606138,-0.00011466205316354726,0.999884354851832,0.0,0.0,0.0,0.0,0.0,0.0,0.0,0.0,0.0,-0.004934705480416396,-5e-324,1.7434213591910048e-09,0.0,0.0,0.0,0.0,0.0,0.0,0.0,0.0,0.0,-0.22588411496142854,0.19813131990974941,9.87551949134934,0.0,0.0,0.0,0.0,0.0,0.0,0.0,0.0,0.0
120818,1729051191,176873809,0.010329702221373877,0.011121407088432424,-0.00011489406015885194,0.9998847925414938,0.0,0.0,0.0,0.0,0.0,0.0,0.0,0.0,0.0,-0.0050892735955599955,-5e-324,1.0460528155146029e-09,0.0,0.0,0.0,0.0,0.0,0.0,0.0,0.0,0.0,-0.21980636741435713,0.20411237104741214,9.877659795395543,0.0,0.0,0.0,0.0,0.0,0.0,0.0,0.0,0.0
120819,1729051191,184901303,0.010959253687507373,0.01075498902761111,-0.00011788055144358414,0.9998820985865305,0.0,0.0,0.0,0.0,0.0,0.0,0.0,0.0,0.0,-0.005607704526108186,-5e-324,6.276316893087617e-10,0.0,0.0,0.0,0.0,0.0,0.0,0.0,0.0,0.0,-0.21280783656189553,0.21679896803860352,9.888760204629902,0.0,0.0,0.0,0.0,0.0,0.0,0.0,0.0,0.0
120820,1729051191,192875689,0.010621354458606205,0.010837029422129767,-0.00011511718541454005,0.9998848595567403,0.0,0.0,0.0,0.0,0.0,0.0,0.0,0.0,0.0,-0.005918763084437102,-5e-324,3.76579013585257e-10,0.0,0.0,0.0,0.0,0.0,0.0,0.0,0.0,0.0,-0.21411538186877793,0.20980629610636525,9.874351475561145,0.0,0.0,0.0,0.0,0.0,0.0,0.0,0.0,0.0
120821,1729051191,200913015,0.010367682120719146,0.010774763239854412,-0.00011172181121691452,0.9998881953312609,0.0,0.0,0.0,0.0,0.0,0.0,0.0,0.0,0.0,-0.006531088280896482,-5e-324,2.2594740815115419e-10,0.0,0.0,0.0,0.0,0.0,0.0,0.0,0.0,0.0,-0.2129845477247824,0.2048924324489754,9.879113767416765,0.0,0.0,0.0,0.0,0.0,0.0,0.0,0.0,0.0
120822,1729051191,208836230,0.010661551880375025,0.01052924646309469,-0.00011227071312319834,0.999887720534515,0.0,0.0,0.0,0.0,0.0,0.0,0.0,0.0,0.0,-0.007324173460234142,-5e-324,1.355684448906925e-10,0.0,0.0,0.0,0.0,0.0,0.0,0.0,0.0,0.0,-0.2079964842501038,0.21056324023110395,9.872633756055528,0.0,0.0,0.0,0.0,0.0,0.0,0.0,0.0,0.0
120823,1729051191,216799567,0.010670532707891348,0.01111098247213677,-0.00011857417322175601,0.9998813288287761,0.0,0.0,0.0,0.0,0.0,0.0,0.0,0.0,0.0,-0.007374334506374706,-5e-324,8.13410669344155e-11,0.0,0.0,0.0,0.0,0.0,0.0,0.0,0.0,0.0,-0.21960827629224977,0.210853262742178,9.877843715547378,0.0,0.0,0.0,0.0,0.0,0.0,0.0,0.0,0.0
120824,1729051191,224957300,0.010739671134068119,0.01070016738599402,-0.00011492948768187227,0.999885069732045,0.0,0.0,0.0,0.0,0.0,0.0,0.0,0.0,0.0,-0.007404431134059045,-5e-324,4.88046401606493e-11,0.0,0.0,0.0,0.0,0.0,0.0,0.0,0.0,0.0,-0.211491881058553,0.21222437707890054,9.878096649250303,0.0,0.0,0.0,0.0,0.0,0.0,0.0,0.0,0.0
120825,1729051191,232971806,0.010624653759946381,0.011096611377351106,-0.00011791157006343973,0.999881977057934,0.0,0.0,0.0,0.0,0.0,0.0,0.0,0.0,0.0,-0.007422489110669648,-5e-324,2.928278409638958e-11,0.0,0.0,0.0,0.0,0.0,0.0,0.0,0.0,0.0,-0.21931131271716303,0.20993458352273098,9.877290728807994,0.0,0.0,0.0,0.0,0.0,0.0,0.0,0.0,0.0
120826,1729051191,240950218,0.010418359159078945,0.011221243526000166,-0.00011692065338944335,0.9998827570349053,0.0,0.0,0.0,0.0,0.0,0.0,0.0,0.0,0.0,-0.007433323896636011,-5e-324,1.7569670457833745e-11,0.0,0.0,0.0,0.0,0.0,0.0,0.0,0.0,0.0,-0.22184819021818844,0.20592708556285733,9.88063789919886,0.0,0.0,0.0,0.0,0.0,0.0,0.0,0.0,0.0
120827,1729051191,248844597,0.010311066221559795,0.010731533789157517,-0.00011066581226338314,0.999889245791245,0.0,0.0,0.0,0.0,0.0,0.0,0.0,0.0,0.0,-0.007865514829677858,-5e-324,1.0541802274700246e-11,0.0,0.0,0.0,0.0,0.0,0.0,0.0,0.0,0.0,-0.2121175689160693,0.20376200695294877,9.878576058611113,0.0,0.0,0.0,0.0,0.0,0.0,0.0,0.0,0.0
120828,1729051191,256809824,0.010688345349592681,0.01067309149032693,-0.00011409070449853934,0.9998859091791613,0.0,0.0,0.0,0.0,0.0,0.0,0.0,0.0,0.0,-0.008124829389502968,-5e-324,0.0017027602521732077,0.0,0.0,0.0,0.0,0.0,0.0,0.0,0.0,0.0,-0.21106759945511033,0.21132150592958174,9.883324458408854,0.0,0.0,0.0,0.0,0.0,0.0,0.0,0.0,0.0
120829,1729051191,264817098,0.011002348820158511,0.010434614099347267,-0.00011481846590917773,0.9998850203727212,0.0,0.0,0.0,0.0,0.0,0.0,0.0,0.0,0.0,-0.007854728063936002,-5e-324,0.0010216561513039246,0.0,0.0,0.0,0.0,0.0,0.0,0.0,0.0,0.0,-0.2061280547902537,0.2172937263116553,9.87252654882461,0.0,0.0,0.0,0.0,0.0,0.0,0.0,0.0,0.0
120830,1729051191,272784558,0.010872879525108892,0.01040991977063485,-0.0001131986295929336,0.9998866942045341,0.0,0.0,0.0,0.0,0.0,0.0,0.0,0.0,0.0,-0.007266977207133791,-5e-324,0.0006129936907823548,0.0,0.0,0.0,0.0,0.0,0.0,0.0,0.0,0.0,-0.20555852965149596,0.21465213422449317,9.868681424900233,0.0,0.0,0.0,0.0,0.0,0.0,0.0,0.0,0.0
120831,1729051191,280816999,0.010648087675008706,0.010369418373976185,-0.00011042667432302564,0.9998895344973866,0.0,0.0,0.0,0.0,0.0,0.0,0.0,0.0,0.0,-0.0069143266930524645,-5e-324,0.00036779621446941286,0.0,0.0,0.0,0.0,0.0,0.0,0.0,0.0,0.0,-0.2047379742362101,0.2101941369800084,9.867810871541701,0.0,0.0,0.0,0.0,0.0,0.0,0.0,0.0,0.0
120832,1729051191,288851717,0.010474764829507214,0.010500691340266939,-0.00011000437333566364,0.9998899952905723,0.0,0.0,0.0,0.0,0.0,0.0,0.0,0.0,0.0,-0.006702736384603668,-5e-324,0.0002206777286816477,0.0,0.0,0.0,0.0,0.0,0.0,0.0,0.0,0.0,-0.2073581031452417,0.20680107813527066,9.869203900854709,0.0,0.0,0.0,0.0,0.0,0.0,0.0,0.0,0.0
120833,1729051191,296867672,0.010749252444768905,0.011042217348646178,-0.0001187096789128052,0.9998812474068688,0.0,0.0,0.0,0.0,0.0,0.0,0.0,0.0,0.0,-0.00657578219953439,-5e-324,0.00013240663720898862,0.0,0.0,0.0,0.0,0.0,0.0,0.0,0.0,0.0,-0.21826756696527,0.212426688140928,9.878658844419075,0.0,0.0,0.0,0.0,0.0,0.0,0.0,0.0,0.0
120834,1729051191,304828717,0.01046131418065206,0.011059543620210012,-0.00011571077019317985,0.9998841102905597,0.0,0.0,0.0,0.0,0.0,0.0,0.0,0.0,0.0,-0.0069252997499548545,-5e-324,7.944398232539317e-05,0.0,0.0,0.0,0.0,0.0,0.0,0.0,0.0,0.0,-0.2188277411068964,0.2069435080017443,9.888641373545976,0.0,0.0,0.0,0.0,0.0,0.0,0.0,0.0,0.0
120835,1729051191,312818509,0.010086729560063224,0.01153516423187717,-0.0001163657450900676,0.9998825852728606,0.0,0.0,0.0,0.0,0.0,0.0,0.0,0.0,0.0,-0.007135010280207134,-5e-324,4.76663893952359e-05,0.0,0.0,0.0,0.0,0.0,0.0,0.0,0.0,0.0,-0.22802239173445032,0.1993440369299528,9.879308000397115,0.0,0.0,0.0,0.0,0.0,0.0,0.0,0.0,0.0
120836,1729051191,320827121,0.009434554047100991,0.011536242815578749,-0.00010885139537411269,0.9998889400543473,0.0,0.0,0.0,0.0,0.0,0.0,0.0,0.0,0.0,-0.007260836598358501,-5e-324,2.8599833637141538e-05,0.0,0.0,0.0,0.0,0.0,0.0,0.0,0.0,0.0,-0.22827193845863894,0.1866440686423467,9.889509707464832,0.0,0.0,0.0,0.0,0.0,0.0,0.0,0.0,0.0
120837,1729051191,328843655,0.009484496462055222,0.011180235089139455,-0.00010605029928935937,0.9998925119349313,0.0,0.0,0.0,0.0,0.0,0.0,0.0,0.0,0.0,-0.006484952266325259,-5e-324,1.715990018228492e-05,0.0,0.0,0.0,0.0,0.0,0.0,0.0,0.0,0.0,-0.22123906151268338,0.1876432136463455,9.890124067887102,0.0,0.0,0.0,0.0,0.0,0.0,0.0,0.0,0.0
120838,1729051191,336805035,0.009906872528588321,0.01194291501788971,-0.00011833118424054353,0.9998795960791023,0.0,0.0,0.0,0.0,0.0,0.0,0.0,0.0,0.0,-0.006445111728567345,-5e-324,1.0295940109370953e-05,0.0,0.0,0.0,0.0,0.0,0.0,0.0,0.0,0.0,-0.2359335284603444,0.19566472579522917,9.873015012021323,0.0,0.0,0.0,0.0,0.0,0.0,0.0,0.0,0.0
120839,1729051191,344880417,0.01021989761139527,0.012300109689584384,-0.0001257219396600509,0.9998721144168541,0.0,0.0,0.0,0.0,0.0,0.0,0.0,0.0,0.0,-0.006421207405912597,-5e-324,6.177564065622571e-06,0.0,0.0,0.0,0.0,0.0,0.0,0.0,0.0,0.0,-0.2430742674668316,0.20191415408065314,9.876157107798733,0.0,0.0,0.0,0.0,0.0,0.0,0.0,0.0,0.0
120840,1729051191,352879166,0.010180330586217754,0.011656178940288123,-0.00011867796869249066,0.9998802329665324,0.0,0.0,0.0,0.0,0.0,0.0,0.0,0.0,0.0,-0.006406864812319748,-5e-324,3.7065384393735426e-06,0.0,0.0,0.0,0.0,0.0,0.0,0.0,0.0,0.0,-0.2305992992496302,0.20135424806362626,9.88714033157377,0.0,0.0,0.0,0.0,0.0,0.0,0.0,0.0,0.0
120841,1729051191,360846178,0.01031556767877439,0.011429489782028814,-0.0001179156526377329,0.9998814639359438,0.0,0.0,0.0,0.0,0.0,0.0,0.0,0.0,0.0,-0.00682394931762607,-5e-324,2.2239230636241256e-06,0.0,0.0,0.0,0.0,0.0,0.0,0.0,0.0,0.0,-0.2262267804775125,0.20413076661161328,9.892054324676685,0.0,0.0,0.0,0.0,0.0,0.0,0.0,0.0,0.0
120842,1729051191,368866541,0.010017743803256046,0.011012473569590517,-0.00011033236667767484,0.9998891728895459,0.0,0.0,0.0,0.0,0.0,0.0,0.0,0.0,0.0,-0.0074998900822718945,-5e-324,1.3343538381744754e-06,0.0,0.0,0.0,0.0,0.0,0.0,0.0,0.0,0.0,-0.21785718522986686,0.19813523242790546,9.887101855059916,0.0,0.0,0.0,0.0,0.0,0.0,0.0,0.0,0.0
120843,1729051191,376815907,0.009893305909991575,0.010804864592449991,-0.00010690730431760653,0.9998926772259803,0.0,0.0,0.0,0.0,0.0,0.0,0.0,0.0,0.0,-0.00790545454105939,-5e-324,8.006123029046852e-07,0.0,0.0,0.0,0.0,0.0,0.0,0.0,0.0,0.0,-0.21355368857932636,0.1954955925817433,9.878144869139465,0.0,0.0,0.0,0.0,0.0,0.0,0.0,0.0,0.0
120844,1729051191,384949117,0.010258434828909943,0.01109478094574845,-0.00011382808391562682,0.9998858221786097,0.0,0.0,0.0,0.0,0.0,0.0,0.0,0.0,0.0,-0.008148793216331886,-5e-324,4.803673817428111e-07,0.0,0.0,0.0,0.0,0.0,0.0,0.0,0.0,0.0,-0.21935129639954895,0.20277035481662406,9.880910963231726,0.0,0.0,0.0,0.0,0.0,0.0,0.0,0.0,0.0
120845,1729051191,392861367,0.010148503171970623,0.011219454919461124,-0.00011387370636197229,0.9998855528246509,0.0,0.0,0.0,0.0,0.0,0.0,0.0,0.0,0.0,-0.007017726237109289,-5e-324,2.882204290456866e-07,0.0,0.0,0.0,0.0,0.0,0.0,0.0,0.0,0.0,-0.22163276026160433,0.20043144750911504,9.872754392880442,0.0,0.0,0.0,0.0,0.0,0.0,0.0,0.0,0.0
120846,1729051191,400843706,0.01035832276611287,0.011206089139083927,-0.00011608980680904184,0.9998835508392149,0.0,0.0,0.0,0.0,0.0,0.0,0.0,0.0,0.0,-0.0059133959881137,-5e-324,1.7293225742741196e-07,0.0,0.0,0.0,0.0,0.0,0.0,0.0,0.0,0.0,-0.2213256974167282,0.20453476694296904,9.87073349266186,0.0,0.0,0.0,0.0,0.0,0.0,0.0,0.0,0.0
120847,1729051191,408836366,0.01067745449703757,0.01103960055881041,-0.00011788873811728425,0.9998820456869956,0.0,0.0,0.0,0.0,0.0,0.0,0.0,0.0,0.0,-0.005676487900178379,-5e-324,1.0375935445644718e-07,0.0,0.0,0.0,0.0,0.0,0.0,0.0,0.0,0.0,-0.2180289975515994,0.2108274812595314,9.870239213028757,0.0,0.0,0.0,0.0,0.0,0.0,0.0,0.0,0.0
120848,1729051191,416897083,0.010963745462181955,0.010417007886987205,-0.0001142224867987671,0.9998856280522019,0.0,0.0,0.0,0.0,0.0,0.0,0.0,0.0,0.0,-0.006385723170341248,-5e-324,6.22556126738683e-08,0.0,0.0,0.0,0.0,0.0,0.0,0.0,0.0,0.0,-0.2059953306598659,0.21675789134360945,9.88287133421374,0.0,0.0,0.0,0.0,0.0,0.0,0.0,0.0,0.0
120849,1729051191,424993966,0.010554384023234335,0.010516072621043886,-0.00011100299060410374,0.9998889962755141,0.0,0.0,0.0,0.0,0.0,0.0,0.0,0.0,0.0,-0.00681126433243897,-5e-324,3.735336760432098e-08,0.0,0.0,0.0,0.0,0.0,0.0,0.0,0.0,0.0,-0.20787309683341954,0.20858454925929068,9.879197859121993,0.0,0.0,0.0,0.0,0.0,0.0,0.0,0.0,0.0
120850,1729051191,432964447,0.010472905507680855,0.01029166762331878,-0.00010779528412914153,0.9998921882922853,0.0,0.0,0.0,0.0,0.0,0.0,0.0,0.0,0.0,-0.00621520890677354,-5e-324,2.241202056259259e-08,0.0,0.0,0.0,0.0,0.0,0.0,0.0,0.0,0.0,-0.20349309271919233,0.20703242633291816,9.882021597553274,0.0,0.0,0.0,0.0,0.0,0.0,0.0,0.0,0.0
120851,1729051191,440873368,0.010741192594595907,0.01051003607227942,-0.00011290307174850785,0.9998870702115822,0.0,0.0,0.0,0.0,0.0,0.0,0.0,0.0,0.0,-0.005857575651374282,-5e-324,1.3447212337555553e-08,0.0,0.0,0.0,0.0,0.0,0.0,0.0,0.0,0.0,-0.20756885489909352,0.21208665672748525,9.870308311315169,0.0,0.0,0.0,0.0,0.0,0.0,0.0,0.0,0.0
120852,1729051191,448922977,0.011116774432041199,0.010467583942702363,-0.00011637933821378095,0.9998834099376183,0.0,0.0,0.0,0.0,0.0,0.0,0.0,0.0,0.0,-0.005642995698134728,-5e-324,8.068327402533332e-09,0.0,0.0,0.0,0.0,0.0,0.0,0.0,0.0,0.0,-0.20666242988281552,0.2194287579525068,9.866871642062538,0.0,0.0,0.0,0.0,0.0,0.0,0.0,0.0,0.0
120853,1729051191,456832120,0.010606843018046517,0.010543973251788947,-0.00011185077988621914,0.99988814724381,0.0,0.0,0.0,0.0,0.0,0.0,0.0,0.0,0.0,-0.005939937787653026,-5e-324,4.840996441519999e-09,0.0,0.0,0.0,0.0,0.0,0.0,0.0,0.0,0.0,-0.2082733563671893,0.2094688087265822,9.871992245491429,0.0,0.0,0.0,0.0,0.0,0.0,0.0,0.0,0.0
120854,1729051191,464856301,0.010786022556640776,0.010529184188252301,-0.00011358092252971407,0.999886386094496,0.0,0.0,0.0,0.0,0.0,0.0,0.0,0.0,0.0,-0.005692412979901974,-5e-324,2.904597864911999e-09,0.0,0.0,0.0,0.0,0.0,0.0,0.0,0.0,0.0,-0.20804281142773545,0.21306964583165242,9.874825187382749,0.0,0.0,0.0,0.0,0.0,0.0,0.0,0.0,0.0
120855,1729051191,472830802,0.010330255098438375,0.010345050883619257,-0.00010687843764624463,0.9998931214528961,0.0,0.0,0.0,0.0,0.0,0.0,0.0,0.0,0.0,-0.0059695881567133745,-5e-324,1.7427587189471994e-09,0.0,0.0,0.0,0.0,0.0,0.0,0.0,0.0,0.0,-0.2045526021398444,0.20421682045797582,9.882271036501916,0.0,0.0,0.0,0.0,0.0,0.0,0.0,0.0,0.0
120856,1729051191,480830671,0.010158272512138342,0.010977456729646767,-0.00011152447207779858,0.9998881399964747,0.0,0.0,0.0,0.0,0.0,0.0,0.0,0.0,0.0,-0.006561583324262246,-5e-324,1.0456552313683196e-09,0.0,0.0,0.0,0.0,0.0,0.0,0.0,0.0,0.0,-0.2170631066940629,0.20082048656189488,9.882428982985134,0.0,0.0,0.0,0.0,0.0,0.0,0.0,0.0,0.0
120857,1729051191,488912382,0.010115122532984876,0.011404702101795651,-0.00011537336615935805,0.9998837951257629,0.0,0.0,0.0,0.0,0.0,0.0,0.0,0.0,0.0,-0.006916780424791569,-5e-324,6.273931388209917e-10,0.0,0.0,0.0,0.0,0.0,0.0,0.0,0.0,0.0,-0.2255270900906565,0.19997978705432443,9.883002591207095,0.0,0.0,0.0,0.0,0.0,0.0,0.0,0.0,0.0
120858,1729051191,496906823,0.009968144937362852,0.011903122781141655,-0.00011866635694580706,0.999879461571674,0.0,0.0,0.0,0.0,0.0,0.0,0.0,0.0,0.0,-0.007129898685109163,-5e-324,3.76435883292595e-10,0.0,0.0,0.0,0.0,0.0,0.0,0.0,0.0,0.0,-0.23539388344892515,0.1970811656896259,9.883346756140272,0.0,0.0,0.0,0.0,0.0,0.0,0.0,0.0,0.0
120859,1729051191,504856511,0.010311717424682391,0.011654263455818948,-0.0001201900255085326,0.9998789087591625,0.0,0.0,0.0,0.0,0.0,0.0,0.0,0.0,0.0,-0.007257769641299719,-5e-324,2.25861529975557e-10,0.0,0.0,0.0,0.0,0.0,0.0,0.0,0.0,0.0,-0.2303006318271676,0.20372169868135367,9.875891809787678,0.0,0.0,0.0,0.0,0.0,0.0,0.0,0.0,0.0
120860,1729051191,512813415,0.010609378554376058,0.011487439727190688,-0.0001218895007246202,0.9998777250034895,0.0,0.0,0.0,0.0,0.0,0.0,0.0,0.0,0.0,-0.006908802153552021,-5e-324,1.355169179853342e-10,0.0,0.0,0.0,0.0,0.0,0.0,0.0,0.0,0.0,-0.2267658405220818,0.2093819596384997,9.865433337825733,0.0,0.0,0.0,0.0,0.0,0.0,0.0,0.0,0.0
120861,1729051191,520853813,0.010124554702476926,0.011887281839435456,-0.00012036811073366735,0.9998780782845799,0.0,0.0,0.0,0.0,0.0,0.0,0.0,0.0,0.0,-0.006699421660903402,-5e-324,8.131015079120052e-11,0.0,0.0,0.0,0.0,0.0,0.0,0.0,0.0,0.0,-0.23470061271168655,0.19984942724794355,9.867298540293095,0.0,0.0,0.0,0.0,0.0,0.0,0.0,0.0,0.0
120862,1729051191,528809607,0.010140925790174244,0.011548048223029586,-0.00011712173350175038,0.9998818882692377,0.0,0.0,0.0,0.0,0.0,0.0,0.0,0.0,0.0,-0.006573793365314231,-5e-324,4.878609047472031e-11,0.0,0.0,0.0,0.0,0.0,0.0,0.0,0.0,0.0,-0.22820872822271504,0.20035483213001612,9.876318527252028,0.0,0.0,0.0,0.0,0.0,0.0,0.0,0.0,0.0
120863,1729051191,536764765,0.010428206116738949,0.011429441120495829,-0.00011920283686872008,0.9998802959272393,0.0,0.0,0.0,0.0,0.0,0.0,0.0,0.0,0.0,-0.006924106449422759,-5e-324,2.9271654284832184e-11,0.0,0.0,0.0,0.0,0.0,0.0,0.0,0.0,0.0,-0.2257501185254259,0.2059253187116034,9.8711960321227,0.0,0.0,0.0,0.0,0.0,0.0,0.0,0.0,0.0
120864,1729051191,544785695,0.010587289519367857,0.011490156363415849,-0.00012166446387259158,0.9998779279517753,0.0,0.0,0.0,0.0,0.0,0.0,0.0,0.0,0.0,-0.007134294299887876,-5e-324,1.756299257089931e-11,0.0,0.0,0.0,0.0,0.0,0.0,0.0,0.0,0.0,-0.2269085745332243,0.20902819049454016,9.869319635875183,0.0,0.0,0.0,0.0,0.0,0.0,0.0,0.0,0.0
120865,1729051191,552853871,0.010863850154686175,0.011392332219728865,-0.00012377992890379034,0.9998760804244399,0.0,0.0,0.0,0.0,0.0,0.0,0.0,0.0,0.0,-0.006834716948704915,-5e-324,1.0537795542539584e-11,0.0,0.0,0.0,0.0,0.0,0.0,0.0,0.0,0.0,-0.22497002631173144,0.2144812160545366,9.86891205862472,0.0,0.0,0.0,0.0,0.0,0.0,0.0,0.0,0.0
120866,1729051191,560875954,0.011119557268243065,0.010950523174610682,-0.0001217798016171665,0.9998782059121204,0.0,0.0,0.0,0.0,0.0,0.0,0.0,0.0,0.0,-0.0070806605994571704,-5e-324,6.322677325523751e-12,0.0,0.0,0.0,0.0,0.0,0.0,0.0,0.0,0.0,-0.21614545206633573,0.21942897255264382,9.864357949286157,0.0,0.0,0.0,0.0,0.0,0.0,0.0,0.0,0.0
120867,1729051191,568914576,0.01055404789326106,0.010972907596468207,-0.00011582201720122977,0.9998840902610695,0.0,0.0,0.0,0.0,0.0,0.0,0.0,0.0,0.0,-0.007228226789908523,-5e-324,3.7936063953142504e-12,0.0,0.0,0.0,0.0,0.0,0.0,0.0,0.0,0.0,-0.21683621166948894,0.2085112568226019,9.87599069364396,0.0,0.0,0.0,0.0,0.0,0.0,0.0,0.0,0.0
120868,1729051191,576821002,0.01088936171225365,0.01083674580360511,-0.00011801917352788723,0.9998819794422552,0.0,0.0,0.0,0.0,0.0,0.0,0.0,0.0,0.0,-0.007316766504179334,-5e-324,2.27616383718855e-12,0.0,0.0,0.0,0.0,0.0,0.0,0.0,0.0,0.0,-0.21437762543919334,0.21536815668145176,9.886561642748877,0.0,0.0,0.0,0.0,0.0,0.0,0.0,0.0,0.0
120869,1729051191,584793963,0.010895888157633302,0.011250622353608259,-0.00012260056148016382,0.9998773365203429,0.0,0.0,0.0,0.0,0.0,0.0,0.0,0.0,0.0,-0.0077955803942038535,-5e-324,1.36569830231313e-12,0.0,0.0,0.0,0.0,0.0,0.0,0.0,0.0,0.0,-0.22247928034164102,0.21541215377449605,9.882609145073154,0.0,0.0,0.0,0.0,0.0,0.0,0.0,0.0,0.0
120870,1729051191,592956317,0.010966195848909788,0.011480964686556693,-0.00012591837940883596,0.9998739491271043,0.0,0.0,0.0,0.0,0.0,0.0,0.0,0.0,0.0,-0.0076571786667565325,-5e-324,8.194189813878779e-13,0.0,0.0,0.0,0.0,0.0,0.0,0.0,0.0,0.0,-0.22686143295107833,0.21663565286040073,9.874970402815375,0.0,0.0,0.0,0.0,0.0,0.0,0.0,0.0,0.0
120871,1729051191,601405890,0.011288459014277401,0.011002617135707604,-0.00012421802777929996,0.9998757411194301,0.0,0.0,0.0,0.0,0.0,0.0,0.0,0.0,0.0,-0.007148447568826109,-5e-324,4.916513888327267e-13,0.0,0.0,0.0,0.0,0.0,0.0,0.0,0.0,0.0,-0.2175197162159595,0.22311583629631856,9.879963964101334,0.0,0.0,0.0,0.0,0.0,0.0,0.0,0.0,0.0
120872,1729051191,608831445,0.011528659246690392,0.01087182108494768,-0.00012535326116041014,0.999874431020631,0.0,0.0,0.0,0.0,0.0,0.0,0.0,0.0,0.0,-0.006843208910067855,-5e-324,2.9499083329963604e-13,0.0,0.0,0.0,0.0,0.0,0.0,0.0,0.0,0.0,-0.2150271483330913,0.22796162702193176,9.884157201702989,0.0,0.0,0.0,0.0,0.0,0.0,0.0,0.0,0.0
120873,1729051191,616833272,0.011609911797536681,0.010814696425093629,-0.0001255734800156549,0.9998741103361901,0.0,0.0,0.0,0.0,0.0,0.0,0.0,0.0,0.0,-0.006234375653350872,-5e-324,1.7699449997978162e-13,0.0,0.0,0.0,0.0,0.0,0.0,0.0,0.0,0.0,-0.21377102776938606,0.22943258046120593,9.878293438453433,0.0,0.0,0.0,0.0,0.0,0.0,0.0,0.0,0.0
120874,1729051191,624853798,0.011230693180528004,0.011164398199479716,-0.00012539965607290647,0.9998745981464149,0.0,0.0,0.0,0.0,0.0,0.0,0.0,0.0,0.0,-0.005869075699320681,-5e-324,1.0619669998786897e-13,0.0,0.0,0.0,0.0,0.0,0.0,0.0,0.0,0.0,-0.22091822090967853,0.22217486688023919,9.888900970298621,0.0,0.0,0.0,0.0,0.0,0.0,0.0,0.0,0.0
120875,1729051191,632934691,0.011123361248429622,0.011457281198881437,-0.00012745973078901355,0.9998724845179428,0.0,0.0,0.0,0.0,0.0,0.0,0.0,0.0,0.0,-0.00650127584982663,-5e-324,6.371801999272137e-14,0.0,0.0,0.0,0.0,0.0,0.0,0.0,0.0,0.0,-0.22688247795596334,0.2202144403918154,9.896223170069797,0.0,0.0,0.0,0.0,0.0,0.0,0.0,0.0,0.0
120876,1729051191,640817983,0.010652097358720549,0.011384347046197313,-0.0001212819149194984,0.9998784499902421,0.0,0.0,0.0,0.0,0.0,0.0,0.0,0.0,0.0,-0.006880595940130199,-5e-324,3.823081199563282e-14,0.0,0.0,0.0,0.0,0.0,0.0,0.0,0.0,0.0,-0.22519378853139052,0.21065847868821422,9.885772439639535,0.0,0.0,0.0,0.0,0.0,0.0,0.0,0.0,0.0
120877,1729051191,648912676,0.010844813569959675,0.011585469281273963,-0.00012565807889488876,0.9998740676356261,0.0,0.0,0.0,0.0,0.0,0.0,0.0,0.0,0.0,-0.006682497932850309,-5e-324,2.293848719737969e-14,0.0,0.0,0.0,0.0,0.0,0.0,0.0,0.0,0.0,-0.22920839836297494,0.21450170830667856,9.887163446693876,0.0,0.0,0.0,0.0,0.0,0.0,0.0,0.0,0.0
120878,1729051191,656924629,0.010607926759940624,0.011960112688152207,-0.00012688821605762006,0.9998721975801322,0.0,0.0,0.0,0.0,0.0,0.0,0.0,0.0,0.0,-0.006563639128482375,-5e-324,1.3763092318427814e-14,0.0,0.0,0.0,0.0,0.0,0.0,0.0,0.0,0.0,-0.23640556758223807,0.2096250410972884,9.87818182411984,0.0,0.0,0.0,0.0,0.0,0.0,0.0,0.0,0.0
120879,1729051191,664933315,0.010792830963932437,0.01177313744278928,-0.00012708169315472218,0.9998724378063336,0.0,0.0,0.0,0.0,0.0,0.0,0.0,0.0,0.0,-0.006492323845861615,-5e-324,8.257855391056688e-15,0.0,0.0,0.0,0.0,0.0,0.0,0.0,0.0,0.0,-0.23258358346926472,0.21316338525407613,9.872792850575419,0.0,0.0,0.0,0.0,0.0,0.0,0.0,0.0,0.0
120880,1729051191,672936280,0.010931087234918884,0.010633830614371129,-0.00011625284994830108,0.9998837029693015,0.0,0.0,0.0,0.0,0.0,0.0,0.0,0.0,0.0,-0.006449534676289158,-5e-324,4.9547132346340125e-15,0.0,0.0,0.0,0.0,0.0,0.0,0.0,0.0,0.0,-0.21017909905616822,0.21600465224619567,9.877939172259314,0.0,0.0,0.0,0.0,0.0,0.0,0.0,0.0,0.0
120881,1729051191,680854610,0.010703157330204906,0.011190037242580612,-0.00011978309132457431,0.9998800983826439,0.0,0.0,0.0,0.0,0.0,0.0,0.0,0.0,0.0,-0.006849551236007716,-5e-324,2.9728279407804073e-15,0.0,0.0,0.0,0.0,0.0,0.0,0.0,0.0,0.0,-0.22115726534190405,0.21148448812506115,9.877196242613401,0.0,0.0,0.0,0.0,0.0,0.0,0.0,0.0,0.0
120882,1729051191,688920385,0.010662299895874281,0.011159353436465841,-0.00011899854833818443,0.999880877920543,0.0,0.0,0.0,0.0,0.0,0.0,0.0,0.0,0.0,-0.00708956117183885,-5e-324,1.7836967644682442e-15,0.0,0.0,0.0,0.0,0.0,0.0,0.0,0.0,0.0,-0.2205615601328768,0.21068775098050543,9.877708165489915,0.0,0.0,0.0,0.0,0.0,0.0,0.0,0.0,0.0
120883,1729051191,696894442,0.010596554580454044,0.011293181671850469,-0.00011968316907419086,0.9998800741862441,0.0,0.0,0.0,0.0,0.0,0.0,0.0,0.0,0.0,-0.0068078770718755,-5e-324,1.0702180586809465e-15,0.0,0.0,0.0,0.0,0.0,0.0,0.0,0.0,0.0,-0.22331659916566357,0.20949144819572513,9.882564302370122,0.0,0.0,0.0,0.0,0.0,0.0,0.0,0.0,0.0
120884,1729051191,704869265,0.010278325786284407,0.010925361540671278,-0.00011230706163302812,0.9998874836107113,0.0,0.0,0.0,0.0,0.0,0.0,0.0,0.0,0.0,-0.0062131765504354584,-5e-324,6.421308352085679e-16,0.0,0.0,0.0,0.0,0.0,0.0,0.0,0.0,0.0,-0.2161110764427575,0.20326700270649756,9.885956824830277,0.0,0.0,0.0,0.0,0.0,0.0,0.0,0.0,0.0
120885,1729051191,712840498,0.01039546178428764,0.01125495497703709,-0.00011701418988917173,0.9998826164457684,0.0,0.0,0.0,0.0,0.0,0.0,0.0,0.0,0.0,-0.005856356237571433,-5e-324,3.852785011251407e-16,0.0,0.0,0.0,0.0,0.0,0.0,0.0,0.0,0.0,-0.22256167027971702,0.20551783956335165,9.882725094654026,0.0,0.0,0.0,0.0,0.0,0.0,0.0,0.0,0.0
120886,1729051191,720852717,0.010482060630631831,0.011334268889549802,-0.00011882065519953519,0.9998808162152762,0.0,0.0,0.0,0.0,0.0,0.0,0.0,0.0,0.0,-0.00606795411131505,-5e-324,2.3116710067508443e-16,0.0,0.0,0.0,0.0,0.0,0.0,0.0,0.0,0.0,-0.2245166652537677,0.207586602175511,9.899700249663509,0.0,0.0,0.0,0.0,0.0,0.0,0.0,0.0,0.0
120887,1729051191,728853959,0.010012814514253515,0.011479955496980348,-0.00011496000455172031,0.9998839637435375,0.0,0.0,0.0,0.0,0.0,0.0,0.0,0.0,0.0,-0.007471983019947314,-5e-324,0.002128450307310297,0.0,0.0,0.0,0.0,0.0,0.0,0.0,0.0,0.0,-0.22712618323429187,0.19805395227210346,9.887858687395763,0.0,0.0,0.0,0.0,0.0,0.0,0.0,0.0,0.0
120888,1729051191,736858734,0.010209898661879168,0.011599331564646268,-0.00011844214268948195,0.999880592594949,0.0,0.0,0.0,0.0,0.0,0.0,0.0,0.0,0.0,-0.007463020242202609,-5e-324,0.0012770701843861781,0.0,0.0,0.0,0.0,0.0,0.0,0.0,0.0,0.0,-0.2291707343546376,0.20167174880466832,9.874049985386675,0.0,0.0,0.0,0.0,0.0,0.0,0.0,0.0,0.0
120889,1729051191,744856753,0.01004896974300072,0.011365977646563672,-0.00011422951291771112,0.9998849032317972,0.0,0.0,0.0,0.0,0.0,0.0,0.0,0.0,0.0,-0.0074576425755557875,-5e-324,0.0007662421106317069,0.0,0.0,0.0,0.0,0.0,0.0,0.0,0.0,0.0,-0.22465138104247004,0.1985751830718635,9.878214612814036,0.0,0.0,0.0,0.0,0.0,0.0,0.0,0.0,0.0
120890,1729051191,752814813,0.009969195127982,0.011037432545242918,-0.00011004649177457696,0.9998893829424729,0.0,0.0,0.0,0.0,0.0,0.0,0.0,0.0,0.0,-0.007880106037029724,-5e-324,0.0004597452663790241,0.0,0.0,0.0,0.0,0.0,0.0,0.0,0.0,0.0,-0.2181090463989195,0.1969566637981962,9.876164406116157,0.0,0.0,0.0,0.0,0.0,0.0,0.0,0.0,0.0
120891,1729051191,760781036,0.010501295880142822,0.011395431922066941,-0.00011968117372031038,0.999879919086569,0.0,0.0,0.0,0.0,0.0,0.0,0.0,0.0,0.0,-0.0072822039909900245,-5e-324,0.00027584715982741445,0.0,0.0,0.0,0.0,0.0,0.0,0.0,0.0,0.0,-0.225196973249508,0.20747772020274585,9.876370803093522,0.0,0.0,0.0,0.0,0.0,0.0,0.0,0.0,0.0
120892,1729051191,768784355,0.01099338546923005,0.01093521187147071,-0.0001202294546159736,0.9998797688533003,0.0,0.0,0.0,0.0,0.0,0.0,0.0,0.0,0.0,-0.0069234627633662045,-5e-324,0.00016550829589644868,0.0,0.0,0.0,0.0,0.0,0.0,0.0,0.0,0.0,-0.21652104039501727,0.21762107670172562,9.895408834395175,0.0,0.0,0.0,0.0,0.0,0.0,0.0,0.0,0.0
120893,1729051191,776883351,0.011016507172516548,0.010799084749106517,-0.00011898235420805623,0.9998809940095366,0.0,0.0,0.0,0.0,0.0,0.0,0.0,0.0,0.0,-0.007133908088253944,-5e-324,9.93049775378692e-05,0.0,0.0,0.0,0.0,0.0,0.0,0.0,0.0,0.0,-0.21370968234247908,0.2179610066167385,9.890072241555075,0.0,0.0,0.0,0.0,0.0,0.0,0.0,0.0,0.0
120894,1729051191,784980868,0.010867212492983246,0.011376181233190508,-0.0001236426823474362,0.999876227793055,0.0,0.0,0.0,0.0,0.0,0.0,0.0,0.0,0.0,-0.007260175283186588,-5e-324,5.958298652272152e-05,0.0,0.0,0.0,0.0,0.0,0.0,0.0,0.0,0.0,-0.22543039680783122,0.21529192257355875,9.903150857140076,0.0,0.0,0.0,0.0,0.0,0.0,0.0,0.0,0.0
120895,1729051191,792920563,0.010995619257067015,0.010901243621194549,-0.00011988029610645289,0.9998801152505132,0.0,0.0,0.0,0.0,0.0,0.0,0.0,0.0,0.0,-0.007335935600146174,-5e-324,3.574979191363291e-05,0.0,0.0,0.0,0.0,0.0,0.0,0.0,0.0,0.0,-0.21594283403196438,0.21776061496991647,9.899745278688341,0.0,0.0,0.0,0.0,0.0,0.0,0.0,0.0,0.0
120896,1729051191,800812720,0.011578170861901644,0.01021503859889055,-0.00011828556362844066,0.9998807853711568,0.0,0.0,0.0,0.0,0.0,0.0,0.0,0.0,0.0,-0.006955701728859894,-5e-324,2.1449875148179745e-05,0.0,0.0,0.0,0.0,0.0,0.0,0.0,0.0,0.0,-0.20234943088792862,0.2292974773803874,9.899617292945425,0.0,0.0,0.0,0.0,0.0,0.0,0.0,0.0,0.0
120897,1729051191,808836393,0.01115440353171855,0.010589953937789547,-0.00011813859515175813,0.9998817021031635,0.0,0.0,0.0,0.0,0.0,0.0,0.0,0.0,0.0,-0.006301871344626094,-5e-324,1.2869925088907846e-05,0.0,0.0,0.0,0.0,0.0,0.0,0.0,0.0,0.0,-0.2099951199585384,0.22113612436768557,9.910074988804366,0.0,0.0,0.0,0.0,0.0,0.0,0.0,0.0,0.0
120898,1729051191,816956068,0.010859160490405686,0.01039837195636646,-0.00011293035516726542,0.9998869634817905,0.0,0.0,0.0,0.0,0.0,0.0,0.0,0.0,0.0,-0.005909573114085815,-5e-324,7.721955053344707e-06,0.0,0.0,0.0,0.0,0.0,0.0,0.0,0.0,0.0,-0.20596340742434177,0.21504221172998633,9.899111354366605,0.0,0.0,0.0,0.0,0.0,0.0,0.0,0.0,0.0
120899,1729051191,825096656,0.011031569245925658,0.010705437936122844,-0.00011811173656389138,0.9998818350826191,0.0,0.0,0.0,0.0,0.0,0.0,0.0,0.0,0.0,-0.005674194175761647,-5e-324,4.633173032006824e-06,0.0,0.0,0.0,0.0,0.0,0.0,0.0,0.0,0.0,-0.21192408571437066,0.2183290489618199,9.893251434201993,0.0,0.0,0.0,0.0,0.0,0.0,0.0,0.0,0.0
120900,1729051191,833120305,0.010825657764729492,0.010471966387257477,-0.00011337878607303826,0.9998865586651298,0.0,0.0,0.0,0.0,0.0,0.0,0.0,0.0,0.0,-0.006384346935691209,-5e-324,2.7799038192040945e-06,0.0,0.0,0.0,0.0,0.0,0.0,0.0,0.0,0.0,-0.20736020704385677,0.21431564715052948,9.896199826585649,0.0,0.0,0.0,0.0,0.0,0.0,0.0,0.0,0.0
120901,1729051191,840929433,0.010759337506977178,0.010546027572758458,-0.00011348115056648963,0.9998864960988691,0.0,0.0,0.0,0.0,0.0,0.0,0.0,0.0,0.0,-0.006384748530186915,-5e-324,1.6679422915224566e-06,0.0,0.0,0.0,0.0,0.0,0.0,0.0,0.0,0.0,-0.2086920226638141,0.2128652867278177,9.88982857637131,0.0,0.0,0.0,0.0,0.0,0.0,0.0,0.0,0.0
120902,1729051191,848860776,0.010738250964033245,0.01057302447496995,-0.00011354868511491228,0.9998864376649886,0.0,0.0,0.0,0.0,0.0,0.0,0.0,0.0,0.0,-0.006384989486884339,-5e-324,1.000765374913474e-06,0.0,0.0,0.0,0.0,0.0,0.0,0.0,0.0,0.0,-0.20925169186977283,0.21247391080622183,9.891033649729035,0.0,0.0,0.0,0.0,0.0,0.0,0.0,0.0,0.0
120903,1729051191,856879050,0.011290632141779269,0.011117442406364317,-0.00012553871441924196,0.9998744462882384,0.0,0.0,0.0,0.0,0.0,0.0,0.0,0.0,0.0,-0.006810824122364825,-5e-324,0.0017033607050730745,0.0,0.0,0.0,0.0,0.0,0.0,0.0,0.0,0.0,-0.21988256053201996,0.22325241288998307,9.884095248431173,0.0,0.0,0.0,0.0,0.0,0.0,0.0,0.0,0.0
120904,1729051191,864804000,0.011630037097448385,0.011318660807091659,-0.00013165378418105952,0.9998682977382207,0.0,0.0,0.0,0.0,0.0,0.0,0.0,0.0,0.0,-0.0066406348421910845,-5e-324,0.0027247766688919713,0.0,0.0,0.0,0.0,0.0,0.0,0.0,0.0,0.0,-0.22362745990319635,0.2297195141402398,9.873467863170031,0.0,0.0,0.0,0.0,0.0,0.0,0.0,0.0,0.0
120905,1729051191,872855855,0.010636573575456634,0.011102839489339919,-0.00011811013196692513,0.999881781166076,0.0,0.0,0.0,0.0,0.0,0.0,0.0,0.0,0.0,-0.006964211335548871,-5e-324,0.0016348660013351826,0.0,0.0,0.0,0.0,0.0,0.0,0.0,0.0,0.0,-0.21964947520949596,0.21037601878687825,9.886963305792644,0.0,0.0,0.0,0.0,0.0,0.0,0.0,0.0,0.0
120906,1729051191,880859562,0.011021688812695087,0.011397547775903148,-0.00012563601809717075,0.9998742933469202,0.0,0.0,0.0,0.0,0.0,0.0,0.0,0.0,0.0,-0.007584047293025575,-5e-324,0.0009809196008011096,0.0,0.0,0.0,0.0,0.0,0.0,0.0,0.0,0.0,-0.22516354987179132,0.2176841146900957,9.872794495926758,0.0,0.0,0.0,0.0,0.0,0.0,0.0,0.0,0.0
120907,1729051191,888812369,0.011473898185359925,0.011177332553743834,-0.00012826403300821558,0.9998716919914039,0.0,0.0,0.0,0.0,0.0,0.0,0.0,0.0,0.0,-0.007955948867511598,-5e-324,0.0005885517604806657,0.0,0.0,0.0,0.0,0.0,0.0,0.0,0.0,0.0,-0.22104996952268416,0.22685737555233865,9.883207403122462,0.0,0.0,0.0,0.0,0.0,0.0,0.0,0.0,0.0
120908,1729051191,896950623,0.011413778215428336,0.011077329973853536,-0.00012645018434671962,0.9998734932169421,0.0,0.0,0.0,0.0,0.0,0.0,0.0,0.0,0.0,-0.008604779873665244,-5e-324,0.0003531310562883994,0.0,0.0,0.0,0.0,0.0,0.0,0.0,0.0,0.0,-0.21906066164525112,0.2256575674212469,9.882751382791444,0.0,0.0,0.0,0.0,0.0,0.0,0.0,0.0,0.0
120909,1729051191,904892574,0.011033282837293348,0.011278525284205566,-0.00012445465215123793,0.9998755152759194,0.0,0.0,0.0,0.0,0.0,0.0,0.0,0.0,0.0,-0.0085683884158954,-5e-324,0.00021187863377303964,0.0,0.0,0.0,0.0,0.0,0.0,0.0,0.0,0.0,-0.22289490040511942,0.21799449772813878,9.876492266442442,0.0,0.0,0.0,0.0,0.0,0.0,0.0,0.0,0.0
120910,1729051191,912887861,0.01113887379983514,0.011490357349149589,-0.00012800603387887175,0.9998719321957765,0.0,0.0,0.0,0.0,0.0,0.0,0.0,0.0,0.0,-0.007695173418309429,-5e-324,0.00012712718026382377,0.0,0.0,0.0,0.0,0.0,0.0,0.0,0.0,0.0,-0.22735022515518102,0.220339840726727,9.888059687258044,0.0,0.0,0.0,0.0,0.0,0.0,0.0,0.0,0.0
120911,1729051191,920905071,0.010813404082068464,0.010950889594422482,-0.000118430421126559,0.9998815601277403,0.0,0.0,0.0,0.0,0.0,0.0,0.0,0.0,0.0,-0.007171244419757847,-5e-324,7.627630815829426e-05,0.0,0.0,0.0,0.0,0.0,0.0,0.0,0.0,0.0,-0.21661589070834297,0.2138461810473643,9.885662753272793,0.0,0.0,0.0,0.0,0.0,0.0,0.0,0.0,0.0
120912,1729051191,928886008,0.010741350687934187,0.011210289840368998,-0.00012042817067439585,0.9998794618773552,0.0,0.0,0.0,0.0,0.0,0.0,0.0,0.0,0.0,-0.0072825770820889296,-5e-324,4.5765784894976555e-05,0.0,0.0,0.0,0.0,0.0,0.0,0.0,0.0,0.0,-0.22166745800899013,0.21234418689990295,9.882069811387504,0.0,0.0,0.0,0.0,0.0,0.0,0.0,0.0,0.0
120913,1729051191,936837542,0.0104536946745274,0.011146676000917769,-0.00011653755653357708,0.9998832223318782,0.0,0.0,0.0,0.0,0.0,0.0,0.0,0.0,0.0,-0.0073493766794875785,-5e-324,2.7459470936985934e-05,0.0,0.0,0.0,0.0,0.0,0.0,0.0,0.0,0.0,-0.22014941523508155,0.206415166925098,9.87057665978172,0.0,0.0,0.0,0.0,0.0,0.0,0.0,0.0,0.0
120914,1729051191,944815652,0.01112798236522596,0.010633715443628499,-0.00011834581812212603,0.9998815320319755,0.0,0.0,0.0,0.0,0.0,0.0,0.0,0.0,0.0,-0.007389456437926769,-5e-324,1.647568256219156e-05,0.0,0.0,0.0,0.0,0.0,0.0,0.0,0.0,0.0,-0.21014062326214267,0.21985658672732442,9.876130617451063,0.0,0.0,0.0,0.0,0.0,0.0,0.0,0.0,0.0
120915,1729051191,952892241,0.01063757031360716,0.010606710010153259,-0.00011284235698030824,0.9998871571668405,0.0,0.0,0.0,0.0,0.0,0.0,0.0,0.0,0.0,-0.007413504292990283,-5e-324,9.885409537314935e-06,0.0,0.0,0.0,0.0,0.0,0.0,0.0,0.0,0.0,-0.2094025917307231,0.2099649261574884,9.866773723253841,0.0,0.0,0.0,0.0,0.0,0.0,0.0,0.0,0.0
120916,1729051191,960842121,0.010647437260481677,0.010821871534506339,-0.00011523847986508928,0.9998847463064768,0.0,0.0,0.0,0.0,0.0,0.0,0.0,0.0,0.0,-0.007002242944566359,-5e-324,5.931245722388961e-06,0.0,0.0,0.0,0.0,0.0,0.0,0.0,0.0,0.0,-0.2137481761321839,0.21025485413199305,9.871215233708163,0.0,0.0,0.0,0.0,0.0,0.0,0.0,0.0,0.0
120917,1729051191,968799762,0.010940999449025178,0.010741643003140375,-0.00011753812772611186,0.9998824420007775,0.0,0.0,0.0,0.0,0.0,0.0,0.0,0.0,0.0,-0.007181176196974037,-5e-324,3.5587474334333763e-06,0.0,0.0,0.0,0.0,0.0,0.0,0.0,0.0,0.0,-0.21228538395079471,0.2161748949010708,9.876753181972944,0.0,0.0,0.0,0.0,0.0,0.0,0.0,0.0,0.0
120918,1729051191,976845915,0.011296149805190867,0.010642695120699677,-0.00012023596077122223,0.9998795505376936,0.0,0.0,0.0,0.0,0.0,0.0,0.0,0.0,0.0,-0.007288536148418644,-5e-324,2.1352484600600258e-06,0.0,0.0,0.0,0.0,0.0,0.0,0.0,0.0,0.0,-0.2104500279778987,0.22331822185275185,9.882230732425953,0.0,0.0,0.0,0.0,0.0,0.0,0.0,0.0,0.0
120919,1729051191,984922214,0.011328468883163233,0.011443725510459649,-0.00012965670007376306,0.9998703366578812,0.0,0.0,0.0,0.0,0.0,0.0,0.0,0.0,0.0,-0.007352952119285407,-5e-324,1.2811490760360155e-06,0.0,0.0,0.0,0.0,0.0,0.0,0.0,0.0,0.0,-0.22610822601525485,0.22377349536751046,9.874025094729008,0.0,0.0,0.0,0.0,0.0,0.0,0.0,0.0,0.0
120920,1729051191,992830196,0.011642485137434802,0.01157706475421186,-0.0001348039767366447,0.99986519388335,0.0,0.0,0.0,0.0,0.0,0.0,0.0,0.0,0.0,-0.007817291763267497,-5e-324,7.686894456216093e-07,0.0,0.0,0.0,0.0,0.0,0.0,0.0,0.0,0.0,-0.22903880035524662,0.23027158379277188,9.886579384229984,0.0,0.0,0.0,0.0,0.0,0.0,0.0,0.0,0.0
120921,1729051192,784336,0.01148195961227914,0.011550507508178294,-0.0001326400544058884,0.9998673575961871,0.0,0.0,0.0,0.0,0.0,0.0,0.0,0.0,0.0,-0.00809589554965675,-5e-324,4.6121366737296555e-07,0.0,0.0,0.0,0.0,0.0,0.0,0.0,0.0,0.0,-0.22840294329908545,0.22698783186746,9.881901529463772,0.0,0.0,0.0,0.0,0.0,0.0,0.0,0.0,0.0
120922,1729051192,8861550,0.011096931334652298,0.010640627853689641,-0.00011809227472949957,0.9998818036188317,0.0,0.0,0.0,0.0,0.0,0.0,0.0,0.0,0.0,-0.008263057821490302,-5e-324,2.767282004237793e-07,0.0,0.0,0.0,0.0,0.0,0.0,0.0,0.0,0.0,-0.21030433678023253,0.21927149672789786,9.877418875441935,0.0,0.0,0.0,0.0,0.0,0.0,0.0,0.0,0.0
120923,1729051192,16901915,0.010678027360921358,0.01062140630253818,-0.00011342853332396007,0.999886569863704,0.0,0.0,0.0,0.0,0.0,0.0,0.0,0.0,0.0,-0.007937665123128402,-5e-324,1.6603692025426759e-07,0.0,0.0,0.0,0.0,0.0,0.0,0.0,0.0,0.0,-0.20974024000759262,0.2108109729879106,9.868983199044457,0.0,0.0,0.0,0.0,0.0,0.0,0.0,0.0,0.0
120924,1729051192,24884390,0.011127134408233338,0.010497767970530867,-0.00011682374611926985,0.9998829782028047,0.0,0.0,0.0,0.0,0.0,0.0,0.0,0.0,0.0,-0.0068910493811872,-5e-324,0.001702859868000279,0.0,0.0,0.0,0.0,0.0,0.0,0.0,0.0,0.0,-0.20724700044986807,0.21962102837282446,9.866315994866126,0.0,0.0,0.0,0.0,0.0,0.0,0.0,0.0,0.0
120925,1729051192,32806451,0.011079746420804788,0.010664690868663047,-0.00011817604623812322,0.9998817378182024,0.0,0.0,0.0,0.0,0.0,0.0,0.0,0.0,0.0,-0.00668876999748451,-5e-324,0.0010217159208001673,0.0,0.0,0.0,0.0,0.0,0.0,0.0,0.0,0.0,-0.21053946003554586,0.21868213728736655,9.866152193355223,0.0,0.0,0.0,0.0,0.0,0.0,0.0,0.0,0.0
120926,1729051192,40819435,0.010630499435681945,0.010817051230355866,-0.00011500388489473965,0.9998849787143191,0.0,0.0,0.0,0.0,0.0,0.0,0.0,0.0,0.0,-0.006567402367262895,-5e-324,0.002315789798328227,0.0,0.0,0.0,0.0,0.0,0.0,0.0,0.0,0.0,-0.21371203661703064,0.20997851699156056,9.873954777927196,0.0,0.0,0.0,0.0,0.0,0.0,0.0,0.0,0.0
120927,1729051192,48866949,0.010402641869584279,0.011046868972125866,-0.00011492985441827305,0.9998848626312804,0.0,0.0,0.0,0.0,0.0,0.0,0.0,0.0,0.0,-0.006920271850591958,-5e-324,0.001389473878996936,0.0,0.0,0.0,0.0,0.0,0.0,0.0,0.0,0.0,-0.2182492043920934,0.20547460531212386,9.873847925350068,0.0,0.0,0.0,0.0,0.0,0.0,0.0,0.0,0.0
120928,1729051192,56866131,0.010673790094755579,0.011022766919524144,-0.00011766855341600154,0.99988227055417,0.0,0.0,0.0,0.0,0.0,0.0,0.0,0.0,0.0,-0.007131993540589396,-5e-324,0.0008336843273981615,0.0,0.0,0.0,0.0,0.0,0.0,0.0,0.0,0.0,-0.2178590428989279,0.21091254394899306,9.877614536460042,0.0,0.0,0.0,0.0,0.0,0.0,0.0,0.0,0.0
120929,1729051192,64878507,0.01027951621245312,0.010173205360403349,-0.00010458656837618446,0.9998954077806251,0.0,0.0,0.0,0.0,0.0,0.0,0.0,0.0,0.0,-0.007259026554587858,-5e-324,0.0005002105964388969,0.0,0.0,0.0,0.0,0.0,0.0,0.0,0.0,0.0,-0.20086553438193486,0.20292255932838021,9.868142914991259,0.0,0.0,0.0,0.0,0.0,0.0,0.0,0.0,0.0
120930,1729051192,72830614,0.01031804668938743,0.011125472262066002,-0.00011480636016502501,0.9998848676717541,0.0,0.0,0.0,0.0,0.0,0.0,0.0,0.0,0.0,-0.007335246362986936,-5e-324,0.00030012635786333814,0.0,0.0,0.0,0.0,0.0,0.0,0.0,0.0,0.0,-0.2198786895256453,0.20387465254038753,9.877303992402958,0.0,0.0,0.0,0.0,0.0,0.0,0.0,0.0,0.0
120931,1729051192,80840937,0.010398157565919629,0.011486271025189718,-0.00011945039507577498,0.9998799576092988,0.0,0.0,0.0,0.0,0.0,0.0,0.0,0.0,0.0,-0.007806668309488414,-5e-324,0.0001800758147180029,0.0,0.0,0.0,0.0,0.0,0.0,0.0,0.0,0.0,-0.22721643978960593,0.20564300929767002,9.886152521174195,0.0,0.0,0.0,0.0,0.0,0.0,0.0,0.0,0.0
120932,1729051192,88928228,0.010760330497896459,0.01110974467478848,-0.00011955882605934264,0.9998803801288053,0.0,0.0,0.0,0.0,0.0,0.0,0.0,0.0,0.0,-0.0076638314159272695,-5e-324,0.00010804548883080172,0.0,0.0,0.0,0.0,0.0,0.0,0.0,0.0,0.0,-0.21964808164720107,0.21268952750243014,9.880687730966235,0.0,0.0,0.0,0.0,0.0,0.0,0.0,0.0,0.0
120933,1729051192,96863609,0.010168922355686706,0.011359397139428724,-0.00011552625569769477,0.9998837651289458,0.0,0.0,0.0,0.0,0.0,0.0,0.0,0.0,0.0,-0.0071524392183285514,-5e-324,6.482729329848104e-05,0.0,0.0,0.0,0.0,0.0,0.0,0.0,0.0,0.0,-0.22444445323636752,0.2008762873022393,9.874775235015287,0.0,0.0,0.0,0.0,0.0,0.0,0.0,0.0,0.0
120934,1729051192,104864351,0.010227067680865565,0.011546838522084208,-0.00011810435055983483,0.9998810247515243,0.0,0.0,0.0,0.0,0.0,0.0,0.0,0.0,0.0,-0.007271293961231351,-5e-324,3.8896375979088624e-05,0.0,0.0,0.0,0.0,0.0,0.0,0.0,0.0,0.0,-0.22804053668791427,0.2019286288266561,9.870030636614642,0.0,0.0,0.0,0.0,0.0,0.0,0.0,0.0,0.0
120935,1729051192,112790698,0.010034813803733866,0.010801274503548315,-0.00010840056100836232,0.9998913057079463,0.0,0.0,0.0,0.0,0.0,0.0,0.0,0.0,0.0,-0.0069169167455110005,-5e-324,2.3337825587453172e-05,0.0,0.0,0.0,0.0,0.0,0.0,0.0,0.0,0.0,-0.21343877513774856,0.1982504707530249,9.876042423716832,0.0,0.0,0.0,0.0,0.0,0.0,0.0,0.0,0.0
